File: Data/GaN_150K_450ms/GaN_sample D_spot15_UVVIS_150 K_200um_450 ms 2x2mm1_205.txt
340.368	1	5
340.710	1	5
341.052	1	4
341.394	1	-9
341.737	1	1
342.079	1	6
342.421	1	11
342.763	1	8
343.105	1	6
343.447	1	6
343.789	1	5
344.131	1	-8
344.473	1	-3
344.815	1	12
345.157	1	11
345.499	1	9
345.841	1	14
346.183	1	2
346.526	1	11
346.868	1	0
347.210	1	8
347.552	1	17
347.894	1	2
348.236	1	2
348.578	1	15
348.920	1	1
349.262	1	4
349.604	1	3
349.946	1	3
350.288	1	-2
350.630	1	-6
350.972	1	7
351.314	1	-1
351.656	1	5
351.998	1	8
352.340	1	3
352.682	1	-9
353.024	1	10
353.366	1	8
353.708	1	9
354.050	1	-5
354.392	1	-6
354.734	1	4
355.076	1	23
355.418	1	10
355.760	1	0
356.102	1	-2
356.444	1	11
356.785	1	9
357.127	1	11
357.469	1	8
357.811	1	1
358.153	1	-9
358.495	1	6
358.837	1	19
359.179	1	5
359.521	1	14
359.863	1	5
360.205	1	22
360.547	1	8
360.889	1	8
361.231	1	8
361.572	1	8
361.914	1	8
362.256	1	9
362.598	1	15
362.940	1	7
363.282	1	4
363.624	1	5
363.966	1	14
364.308	1	14
364.649	1	14
364.991	1	7
365.333	1	9
365.675	1	20
366.017	1	23
366.359	1	19
366.701	1	13
367.042	1	18
367.384	1	20
367.726	1	19
368.068	1	28
368.410	1	34
368.752	1	42
369.093	1	19
369.435	1	27
369.777	1	29
370.119	1	21
370.461	1	15
370.803	1	18
371.144	1	25
371.486	1	26
371.828	1	12
372.170	1	15
372.512	1	13
372.853	1	26
373.195	1	9
373.537	1	5
373.879	1	8
374.220	1	14
374.562	1	24
374.904	1	11
375.246	1	8
375.588	1	6
375.929	1	8
376.271	1	11
376.613	1	17
376.955	1	14
377.296	1	15
377.638	1	4
377.980	1	2
378.321	1	8
378.663	1	7
379.005	1	7
379.347	1	7
379.688	1	13
380.030	1	12
380.372	1	8
380.714	1	8
381.055	1	4
381.397	1	5
381.739	1	-7
382.080	1	5
382.422	1	14
382.764	1	3
383.105	1	10
383.447	1	3
383.789	1	-5
384.130	1	3
384.472	1	-3
384.814	1	15
385.156	1	13
385.497	1	4
385.839	1	2
386.180	1	-1
386.522	1	5
386.864	1	2
387.205	1	10
387.547	1	11
387.889	1	-1
388.230	1	3
388.572	1	-4
388.914	1	11
389.255	1	10
389.597	1	10
389.939	1	14
390.280	1	3
390.622	1	-2
390.963	1	0
391.305	1	8
391.647	1	6
391.988	1	1
392.330	1	-7
392.671	1	6
393.013	1	20
393.355	1	9
393.696	1	4
394.038	1	4
394.379	1	5
394.721	1	6
395.062	1	2
395.404	1	12
395.746	1	3
396.087	1	6
396.429	1	5
396.770	1	-6
397.112	1	5
397.453	1	-5
397.795	1	3
398.136	1	3
398.478	1	6
398.819	1	9
399.161	1	8
399.503	1	0
399.844	1	4
400.186	1	1
400.527	1	5
400.869	1	2
401.210	1	11
401.552	1	14
401.893	1	8
402.235	1	8
402.576	1	1
402.918	1	-3
403.259	1	-3
403.601	1	10
403.942	1	-3
404.284	1	15
404.625	1	1
404.967	1	4
405.308	1	-8
405.649	1	9
405.991	1	7
406.332	1	2
406.674	1	4
407.015	1	2
407.357	1	4
407.698	1	8
408.040	1	7
408.381	1	5
408.722	1	5
409.064	1	14
409.405	1	5
409.747	1	4
410.088	1	7
410.430	1	9
410.771	1	3
411.112	1	4
411.454	1	5
411.795	1	3
412.137	1	4
412.478	1	3
412.819	1	6
413.161	1	-2
413.502	1	5
413.844	1	10
414.185	1	3
414.526	1	-2
414.868	1	-4
415.209	1	-2
415.550	1	5
415.892	1	9
416.233	1	8
416.575	1	1
416.916	1	-3
417.257	1	8
417.599	1	3
417.940	1	-4
418.281	1	13
418.623	1	6
418.964	1	18
419.305	1	14
419.647	1	-3
419.988	1	14
420.329	1	15
420.671	1	13
421.012	1	-5
421.353	1	16
421.695	1	7
422.036	1	18
422.377	1	-3
422.718	1	15
423.060	1	8
423.401	1	4
423.742	1	13
424.084	1	7
424.425	1	16
424.766	1	-4
425.107	1	9
425.449	1	8
425.790	1	4
426.131	1	-1
426.472	1	18
426.814	1	2
427.155	1	10
427.496	1	3
427.837	1	0
428.179	1	13
428.520	1	0
428.861	1	11
429.202	1	-3
429.544	1	7
429.885	1	7
430.226	1	-4
430.567	1	3
430.909	1	4
431.250	1	11
431.591	1	7
431.932	1	-2
432.273	1	7
432.615	1	9
432.956	1	10
433.297	1	1
433.638	1	8
433.979	1	0
434.320	1	0
434.662	1	15
435.003	1	11
435.344	1	-1
435.685	1	-3
436.026	1	7
436.368	1	3
436.709	1	5
437.050	1	7
437.391	1	0
437.732	1	9
438.073	1	-8
438.414	1	17
438.756	1	3
439.097	1	4
439.438	1	1
439.779	1	5
440.120	1	7
440.461	1	9
440.802	1	7
441.143	1	3
441.485	1	1
441.826	1	8
442.167	1	4
442.508	1	7
442.849	1	12
443.190	1	0
443.531	1	4
443.872	1	-3
444.213	1	-6
444.554	1	11
444.895	1	3
445.237	1	5
445.578	1	4
445.919	1	6
446.260	1	17
446.601	1	6
446.942	1	4
447.283	1	12
447.624	1	-4
447.965	1	8
448.306	1	10
448.647	1	1
448.988	1	6
449.329	1	1
449.670	1	6
450.011	1	6
450.352	1	-3
450.693	1	7
451.034	1	-3
451.375	1	-2
451.716	1	6
452.057	1	3
452.398	1	11
452.739	1	8
453.080	1	6
453.421	1	14
453.762	1	7
454.103	1	-10
454.444	1	3
454.785	1	8
455.126	1	6
455.467	1	3
455.808	1	13
456.149	1	2
456.490	1	0
456.831	1	-1
457.172	1	1
457.513	1	2
457.854	1	7
458.195	1	4
458.536	1	4
458.877	1	5
459.218	1	12
459.559	1	4
459.899	1	3
460.240	1	-6
460.581	1	0
460.922	1	3
461.263	1	6
461.604	1	3
461.945	1	1
462.286	1	3
462.627	1	1
462.968	1	4
463.309	1	13
463.649	1	-2
463.990	1	6
464.331	1	5
464.672	1	5
465.013	1	5
465.354	1	7
465.695	1	7
466.036	1	15
466.376	1	14
466.717	1	-6
467.058	1	10
467.399	1	-7
467.740	1	23
468.081	1	1
468.422	1	1
468.762	1	3
469.103	1	3
469.444	1	-1
469.785	1	-2
470.126	1	8
470.467	1	1
470.807	1	11
471.148	1	5
471.489	1	12
471.830	1	4
472.171	1	9
472.511	1	8
472.852	1	11
473.193	1	3
473.534	1	-1
473.875	1	4
474.215	1	3
474.556	1	2
474.897	1	-2
475.238	1	3
475.578	1	6
475.919	1	-2
476.260	1	0
476.601	1	2
476.942	1	6
477.282	1	-3
477.623	1	3
477.964	1	0
478.305	1	5
478.645	1	-2
478.986	1	11
479.327	1	8
479.667	1	0
480.008	1	12
480.349	1	-3
480.690	1	8
481.030	1	0
481.371	1	-8
481.712	1	9
482.053	1	8
482.393	1	3
482.734	1	2
483.075	1	5
483.415	1	1
483.756	1	12
484.097	1	10
484.437	1	5
484.778	1	-1
485.119	1	1
485.459	1	-7
485.800	1	-6
486.141	1	13
486.481	1	-8
486.822	1	4
487.163	1	-2
487.503	1	2
487.844	1	0
488.185	1	6
488.525	1	-2
488.866	1	-3
489.207	1	7
489.547	1	5
489.888	1	8
490.228	1	5
490.569	1	4
490.910	1	5
491.250	1	4
491.591	1	6
491.932	1	8
492.272	1	-4
492.613	1	-3
492.953	1	1
493.294	1	3
493.635	1	9
493.975	1	8
494.316	1	9
494.656	1	13
494.997	1	-3
495.337	1	7
495.678	1	5
496.019	1	8
496.359	1	7
496.700	1	7
497.040	1	0
497.381	1	12
497.721	1	-8
498.062	1	-6
498.403	1	17
498.743	1	10
499.084	1	3
499.424	1	0
499.765	1	9
500.105	1	12
500.446	1	1
500.786	1	-4
501.127	1	5
501.467	1	6
501.808	1	2
502.148	1	5
502.489	1	6
502.829	1	1
503.170	1	6
503.510	1	1
503.851	1	9
504.191	1	-6
504.532	1	9
504.872	1	6
505.213	1	-3
505.553	1	-1
505.894	1	7
506.234	1	11
506.575	1	7
506.915	1	4
507.256	1	9
507.596	1	9
507.936	1	12
508.277	1	10
508.617	1	2
508.958	1	11
509.298	1	-4
509.639	1	-8
509.979	1	-1
510.319	1	7
510.660	1	1
511.000	1	2
511.341	1	19
511.681	1	5
512.022	1	0
512.362	1	16
512.702	1	-4
513.043	1	5
513.383	1	2
513.724	1	2
514.064	1	4
514.404	1	10
514.745	1	2
515.085	1	10
515.425	1	6
515.766	1	7
516.106	1	0
516.447	1	11
516.787	1	12
517.127	1	17
517.468	1	14
517.808	1	4
518.148	1	16
518.489	1	-1
518.829	1	-2
519.169	1	6
519.510	1	-6
519.850	1	9
520.190	1	1
520.531	1	2
520.871	1	0
521.211	1	7
521.552	1	5
521.892	1	2
522.232	1	-4
522.573	1	2
522.913	1	10
523.253	1	13
523.593	1	14
523.934	1	14
524.274	1	12
524.614	1	12
524.955	1	6
525.295	1	7
525.635	1	6
525.975	1	4
526.316	1	-15
526.656	1	11
526.996	1	-3
527.337	1	9
527.677	1	16
528.017	1	2
528.357	1	7
528.698	1	12
529.038	1	3
529.378	1	-1
529.718	1	-6
530.058	1	3
530.399	1	1
530.739	1	4
531.079	1	-5
531.419	1	5
531.760	1	16
532.100	1	11
532.440	1	7
532.780	1	5
533.120	1	8
533.461	1	4
533.801	1	-2
534.141	1	1
534.481	1	25
534.821	1	9
535.162	1	6
535.502	1	11
535.842	1	-1
536.182	1	9
536.522	1	5
536.862	1	0
537.203	1	6
537.543	1	8
537.883	1	4
538.223	1	12
538.563	1	4
538.903	1	-2
539.243	1	6
539.584	1	1
539.924	1	5
540.264	1	11
540.604	1	13
540.944	1	2
541.284	1	0
541.624	1	7
541.964	1	7
542.305	1	12
542.645	1	4
542.985	1	4
543.325	1	8
543.665	1	-1
544.005	1	3
544.345	1	9
544.685	1	0
545.025	1	7
545.365	1	0
545.705	1	11
546.045	1	14
546.386	1	2
546.726	1	1
547.066	1	7
547.406	1	-5
547.746	1	10
548.086	1	8
548.426	1	6
548.766	1	5
549.106	1	4
549.446	1	2
549.786	1	8
550.126	1	8
550.466	1	1
550.806	1	7
551.146	1	5
551.486	1	6
551.826	1	9
552.166	1	0
552.506	1	1
552.846	1	16
553.186	1	-10
553.526	1	7
553.866	1	-1
554.206	1	7
554.546	1	8
554.886	1	-4
555.226	1	7
555.566	1	11
555.906	1	6
556.246	1	5
556.586	1	10
556.926	1	-6
557.266	1	12
557.606	1	-12
557.946	1	9
558.286	1	0
558.626	1	4
558.966	1	5
559.306	1	10
559.646	1	11
559.986	1	3
560.325	1	4
560.665	1	8
561.005	1	3
561.345	1	1
561.685	1	8
562.025	1	6
562.365	1	-6
562.705	1	8
563.045	1	8
563.385	1	6
563.725	1	4
564.064	1	-6
564.404	1	-2
564.744	1	7
565.084	1	11
565.424	1	-5
565.764	1	3
566.104	1	14
566.444	1	13
566.783	1	8
567.123	1	4
567.463	1	5
567.803	1	8
568.143	1	8
568.483	1	12
568.823	1	7
569.162	1	-3
569.502	1	8
569.842	1	1
570.182	1	6
570.522	1	-1
570.862	1	-9
571.201	1	15
571.541	1	5
571.881	1	-8
572.221	1	-3
572.561	1	7
572.900	1	3
573.240	1	-1
573.580	1	5
573.920	1	9
574.260	1	4
574.599	1	9
574.939	1	5
575.279	1	7
575.619	1	3
575.959	1	4
576.298	1	-13
576.638	1	10
576.978	1	-2
577.318	1	8
577.657	1	4
577.997	1	0
578.337	1	5
578.677	1	8
579.016	1	4
579.356	1	2
579.696	1	2
580.036	1	4
580.375	1	2
580.715	1	7
581.055	1	1
581.394	1	2
581.734	1	3
582.074	1	5
582.414	1	4
582.753	1	3
583.093	1	2
583.433	1	4
583.772	1	4
584.112	1	3
584.452	1	9
584.791	1	4
585.131	1	14
585.471	1	2
585.811	1	6
586.150	1	14
586.490	1	9
586.830	1	12
587.169	1	7
587.509	1	6
587.849	1	8
588.188	1	3
588.528	1	6
588.867	1	4
589.207	1	11
589.547	1	9
589.886	1	8
590.226	1	-4
590.566	1	-3
590.905	1	-4
591.245	1	-4
591.585	1	1
591.924	1	-5
592.264	1	-6
592.603	1	-10
592.943	1	-1
593.283	1	3
593.622	1	6
593.962	1	17
594.301	1	-1
594.641	1	8
594.981	1	8
595.320	1	19
595.660	1	6
595.999	1	3
596.339	1	3
596.678	1	-5
597.018	1	-5
597.358	1	4
597.697	1	1
598.037	1	4
598.376	1	3
598.716	1	9
599.055	1	2
599.395	1	-5
599.734	1	0
600.074	1	-10
600.413	1	5
600.753	1	5
601.092	1	-10
601.432	1	-17
601.771	1	5
602.111	1	1
602.451	1	4
602.790	1	7
603.130	1	-2
603.469	1	-1
603.809	1	4
604.148	1	-12
604.487	1	-2
604.827	1	3
605.166	1	4
605.506	1	4
605.845	1	13
606.185	1	-1
606.524	1	0
606.864	1	9
607.203	1	5
607.543	1	5
607.882	1	5
608.222	1	8
608.561	1	-1
608.901	1	6
609.240	1	4
609.579	1	-10
609.919	1	-8
610.258	1	10
610.598	1	-5
610.937	1	-2
611.277	1	6
611.616	1	14
611.955	1	-1
612.295	1	15
612.634	1	0
612.974	1	-2
613.313	1	6
613.652	1	11
613.992	1	-1
614.331	1	8
614.671	1	3
615.010	1	3
615.349	1	8
615.689	1	2
616.028	1	20
616.368	1	11
616.707	1	5
617.046	1	0
617.386	1	5
617.725	1	0
618.064	1	0
618.404	1	0
618.743	1	11
619.082	1	13
619.422	1	5
619.761	1	-4
620.100	1	0
620.440	1	10
620.779	1	7
621.118	1	1
621.458	1	3
621.797	1	17
622.136	1	-12
622.476	1	5
622.815	1	5
623.154	1	-11
623.494	1	2
623.833	1	7
624.172	1	11
624.511	1	-2
624.851	1	1
625.190	1	-6
625.529	1	0
625.869	1	5
626.208	1	-5
626.547	1	-5
626.886	1	-5
627.226	1	10
627.565	1	1
627.904	1	1
628.243	1	15
628.583	1	7
628.922	1	2
629.261	1	1
629.600	1	6
629.940	1	13
630.279	1	9
630.618	1	1
630.957	1	8
631.297	1	4
631.636	1	-1
631.975	1	6
632.314	1	1
632.653	1	0
632.993	1	5
633.332	1	-1
633.671	1	13
634.010	1	5
634.349	1	9
634.689	1	2
635.028	1	-2
635.367	1	4
635.706	1	6
636.045	1	2
636.384	1	9
636.724	1	-1
637.063	1	-6
637.402	1	11
637.741	1	1
638.080	1	8
638.419	1	0
638.759	1	5
639.098	1	-1
639.437	1	-2
639.776	1	7
640.115	1	-3
640.454	1	-2
640.793	1	2
641.132	1	6
641.472	1	18
641.811	1	-11
642.150	1	3
642.489	1	10
642.828	1	14
643.167	1	-2
643.506	1	3
643.845	1	7
644.184	1	15
644.524	1	4
644.863	1	6
645.202	1	4
645.541	1	4
645.880	1	5
646.219	1	2
646.558	1	1
646.897	1	5
647.236	1	-3
647.575	1	5
647.914	1	0
648.253	1	7
648.592	1	5
648.931	1	3
649.270	1	10
649.610	1	16
649.949	1	-3
650.288	1	6
650.627	1	-2
650.966	1	4
651.305	1	10
651.644	1	10
651.983	1	1
652.322	1	9
652.661	1	12
653.000	1	11
653.339	1	-5
653.678	1	7
654.017	1	6
654.356	1	5
654.695	1	9
655.034	1	6
655.373	1	0
655.712	1	7
656.051	1	1
656.390	1	-1
656.729	1	5
657.068	1	-5
657.406	1	-9
657.745	1	9
658.084	1	6
658.423	1	9
658.762	1	-10
659.101	1	-3
659.440	1	6
659.779	1	0
660.118	1	3
660.457	1	5
660.796	1	9
661.135	1	8
661.474	1	13
661.813	1	-1
662.152	1	8
662.491	1	-2
662.829	1	2
663.168	1	-7
663.507	1	4
663.846	1	-4
664.185	1	6
664.524	1	11
664.863	1	-11
665.202	1	8
665.541	1	4
665.879	1	4
666.218	1	9
666.557	1	-7
666.896	1	11
667.235	1	-2
667.574	1	7
667.913	1	7
668.251	1	-16
668.590	1	0
668.929	1	6
669.268	1	5
669.607	1	-9
669.946	1	1
670.285	1	-2
670.623	1	-1
670.962	1	-2
671.301	1	2
671.640	1	19
671.979	1	-2
672.317	1	7
672.656	1	2
672.995	1	3
673.334	1	3
673.673	1	11
674.011	1	-5
674.350	1	13
674.689	1	-5
675.028	1	9
675.367	1	3
675.705	1	7
676.044	1	5
676.383	1	9
676.722	1	1
677.060	1	5
677.399	1	15
677.738	1	-2
678.077	1	-1
678.416	1	5
678.754	1	-2
679.093	1	7
679.432	1	2
679.771	1	10
680.109	1	-1
680.448	1	-1
680.787	1	-3
681.125	1	4
681.464	1	6
681.803	1	2
682.142	1	-2
682.480	1	-6
682.819	1	0
683.158	1	-1
683.496	1	-8
683.835	1	-5
684.174	1	-1
684.512	1	-4
684.851	1	-4
685.190	1	1
685.529	1	-4
685.867	1	6
686.206	1	-9
686.545	1	-3
686.883	1	12
687.222	1	-4
687.561	1	3
687.899	1	5
688.238	1	4
688.577	1	0
688.746	1	2