File: Data/GaN_150K_450ms/GaN_sample D_spot15_UVVIS_150 K_200um_450 ms 2x2mm1_294.txt
340.368	1	-1
340.710	1	1
341.052	1	-5
341.394	1	-1
341.737	1	12
342.079	1	7
342.421	1	2
342.763	1	-2
343.105	1	7
343.447	1	1
343.789	1	8
344.131	1	-6
344.473	1	3
344.815	1	4
345.157	1	13
345.499	1	2
345.841	1	10
346.183	1	3
346.526	1	-1
346.868	1	-6
347.210	1	9
347.552	1	9
347.894	1	-3
348.236	1	3
348.578	1	5
348.920	1	-6
349.262	1	7
349.604	1	-4
349.946	1	-4
350.288	1	2
350.630	1	-6
350.972	1	1
351.314	1	-6
351.656	1	5
351.998	1	0
352.340	1	1
352.682	1	-9
353.024	1	11
353.366	1	7
353.708	1	-10
354.050	1	-8
354.392	1	0
354.734	1	8
355.076	1	16
355.418	1	0
355.760	1	8
356.102	1	1
356.444	1	4
356.785	1	7
357.127	1	11
357.469	1	11
357.811	1	1
358.153	1	-1
358.495	1	0
358.837	1	8
359.179	1	4
359.521	1	7
359.863	1	-4
360.205	1	10
360.547	1	7
360.889	1	5
361.231	1	14
361.572	1	13
361.914	1	-1
362.256	1	5
362.598	1	1
362.940	1	7
363.282	1	2
363.624	1	5
363.966	1	3
364.308	1	5
364.649	1	1
364.991	1	10
365.333	1	3
365.675	1	14
366.017	1	15
366.359	1	7
366.701	1	14
367.042	1	15
367.384	1	1
367.726	1	16
368.068	1	25
368.410	1	11
368.752	1	20
369.093	1	14
369.435	1	15
369.777	1	16
370.119	1	12
370.461	1	13
370.803	1	11
371.144	1	3
371.486	1	15
371.828	1	7
372.170	1	8
372.512	1	3
372.853	1	11
373.195	1	3
373.537	1	-2
373.879	1	-3
374.220	1	10
374.562	1	18
374.904	1	8
375.246	1	10
375.588	1	-6
375.929	1	5
376.271	1	-1
376.613	1	2
376.955	1	-3
377.296	1	5
377.638	1	7
377.980	1	0
378.321	1	4
378.663	1	9
379.005	1	2
379.347	1	0
379.688	1	7
380.030	1	6
380.372	1	6
380.714	1	8
381.055	1	-2
381.397	1	-5
381.739	1	-9
382.080	1	2
382.422	1	3
382.764	1	13
383.105	1	-3
383.447	1	-6
383.789	1	-10
384.130	1	-1
384.472	1	2
384.814	1	7
385.156	1	10
385.497	1	11
385.839	1	2
386.180	1	4
386.522	1	-1
386.864	1	7
387.205	1	4
387.547	1	10
387.889	1	-4
388.230	1	4
388.572	1	-4
388.914	1	5
389.255	1	-4
389.597	1	-4
389.939	1	11
390.280	1	1
390.622	1	2
390.963	1	1
391.305	1	2
391.647	1	0
391.988	1	4
392.330	1	3
392.671	1	8
393.013	1	2
393.355	1	16
393.696	1	7
394.038	1	7
394.379	1	15
394.721	1	5
395.062	1	-4
395.404	1	7
395.746	1	2
396.087	1	12
396.429	1	-4
396.770	1	12
397.112	1	2
397.453	1	-1
397.795	1	6
398.136	1	11
398.478	1	7
398.819	1	-5
399.161	1	5
399.503	1	10
399.844	1	5
400.186	1	6
400.527	1	5
400.869	1	-4
401.210	1	0
401.552	1	-5
401.893	1	1
402.235	1	7
402.576	1	2
402.918	1	-1
403.259	1	-5
403.601	1	7
403.942	1	4
404.284	1	2
404.625	1	2
404.967	1	3
405.308	1	-9
405.649	1	-2
405.991	1	1
406.332	1	3
406.674	1	0
407.015	1	7
407.357	1	5
407.698	1	15
408.040	1	17
408.381	1	-15
408.722	1	7
409.064	1	-3
409.405	1	3
409.747	1	-2
410.088	1	6
410.430	1	7
410.771	1	7
411.112	1	2
411.454	1	2
411.795	1	-4
412.137	1	-9
412.478	1	3
412.819	1	7
413.161	1	-3
413.502	1	4
413.844	1	13
414.185	1	10
414.526	1	1
414.868	1	-3
415.209	1	4
415.550	1	2
415.892	1	-1
416.233	1	1
416.575	1	-1
416.916	1	-3
417.257	1	-3
417.599	1	5
417.940	1	1
418.281	1	1
418.623	1	3
418.964	1	10
419.305	1	7
419.647	1	0
419.988	1	5
420.329	1	3
420.671	1	7
421.012	1	0
421.353	1	9
421.695	1	5
422.036	1	13
422.377	1	2
422.718	1	-1
423.060	1	0
423.401	1	-1
423.742	1	7
424.084	1	10
424.425	1	7
424.766	1	1
425.107	1	2
425.449	1	3
425.790	1	-3
426.131	1	-3
426.472	1	12
426.814	1	-1
427.155	1	10
427.496	1	-1
427.837	1	4
428.179	1	12
428.520	1	5
428.861	1	13
429.202	1	-6
429.544	1	11
429.885	1	5
430.226	1	-5
430.567	1	-9
430.909	1	0
431.250	1	2
431.591	1	8
431.932	1	-2
432.273	1	10
432.615	1	0
432.956	1	7
433.297	1	5
433.638	1	5
433.979	1	4
434.320	1	3
434.662	1	8
435.003	1	7
435.344	1	2
435.685	1	-6
436.026	1	-3
436.368	1	-1
436.709	1	5
437.050	1	8
437.391	1	0
437.732	1	1
438.073	1	-5
438.414	1	11
438.756	1	6
439.097	1	6
439.438	1	-3
439.779	1	-2
440.120	1	2
440.461	1	3
440.802	1	1
441.143	1	2
441.485	1	-13
441.826	1	-5
442.167	1	1
442.508	1	5
442.849	1	6
443.190	1	9
443.531	1	3
443.872	1	-5
444.213	1	-3
444.554	1	3
444.895	1	-6
445.237	1	1
445.578	1	-3
445.919	1	-3
446.260	1	12
446.601	1	-1
446.942	1	6
447.283	1	8
447.624	1	-7
447.965	1	4
448.306	1	12
448.647	1	0
448.988	1	5
449.329	1	-1
449.670	1	-1
450.011	1	9
450.352	1	-2
450.693	1	3
451.034	1	1
451.375	1	1
451.716	1	3
452.057	1	0
452.398	1	13
452.739	1	-2
453.080	1	10
453.421	1	2
453.762	1	14
454.103	1	5
454.444	1	7
454.785	1	2
455.126	1	-5
455.467	1	1
455.808	1	16
456.149	1	-6
456.490	1	-1
456.831	1	-5
457.172	1	2
457.513	1	-5
457.854	1	-2
458.195	1	4
458.536	1	9
458.877	1	3
459.218	1	4
459.559	1	1
459.899	1	5
460.240	1	-10
460.581	1	-5
460.922	1	4
461.263	1	7
461.604	1	3
461.945	1	4
462.286	1	-5
462.627	1	-3
462.968	1	5
463.309	1	12
463.649	1	-5
463.990	1	1
464.331	1	4
464.672	1	7
465.013	1	4
465.354	1	12
465.695	1	2
466.036	1	8
466.376	1	10
466.717	1	-12
467.058	1	2
467.399	1	2
467.740	1	22
468.081	1	2
468.422	1	-6
468.762	1	5
469.103	1	3
469.444	1	7
469.785	1	-5
470.126	1	4
470.467	1	1
470.807	1	0
471.148	1	-2
471.489	1	8
471.830	1	-3
472.171	1	7
472.511	1	2
472.852	1	-1
473.193	1	2
473.534	1	3
473.875	1	5
474.215	1	4
474.556	1	-10
474.897	1	-2
475.238	1	6
475.578	1	-7
475.919	1	1
476.260	1	-6
476.601	1	4
476.942	1	1
477.282	1	-5
477.623	1	3
477.964	1	-2
478.305	1	4
478.645	1	10
478.986	1	9
479.327	1	2
479.667	1	1
480.008	1	4
480.349	1	-7
480.690	1	8
481.030	1	-5
481.371	1	-11
481.712	1	10
482.053	1	11
482.393	1	6
482.734	1	10
483.075	1	14
483.415	1	-5
483.756	1	-1
484.097	1	6
484.437	1	0
484.778	1	-9
485.119	1	6
485.459	1	-7
485.800	1	-10
486.141	1	5
486.481	1	-10
486.822	1	9
487.163	1	-2
487.503	1	-2
487.844	1	-7
488.185	1	3
488.525	1	-3
488.866	1	-4
489.207	1	3
489.547	1	-4
489.888	1	5
490.228	1	4
490.569	1	-7
490.910	1	8
491.250	1	7
491.591	1	9
491.932	1	8
492.272	1	-5
492.613	1	-6
492.953	1	8
493.294	1	-9
493.635	1	6
493.975	1	12
494.316	1	2
494.656	1	6
494.997	1	-4
495.337	1	5
495.678	1	0
496.019	1	-2
496.359	1	-7
496.700	1	2
497.040	1	-7
497.381	1	3
497.721	1	-2
498.062	1	-4
498.403	1	12
498.743	1	8
499.084	1	15
499.424	1	-6
499.765	1	2
500.105	1	19
500.446	1	-9
500.786	1	2
501.127	1	4
501.467	1	12
501.808	1	0
502.148	1	4
502.489	1	0
502.829	1	2
503.170	1	0
503.510	1	0
503.851	1	5
504.191	1	-4
504.532	1	15
504.872	1	-8
505.213	1	-1
505.553	1	7
505.894	1	-2
506.234	1	7
506.575	1	11
506.915	1	-1
507.256	1	5
507.596	1	7
507.936	1	4
508.277	1	4
508.617	1	3
508.958	1	3
509.298	1	-7
509.639	1	2
509.979	1	1
510.319	1	2
510.660	1	-7
511.000	1	0
511.341	1	11
511.681	1	7
512.022	1	-9
512.362	1	6
512.702	1	-11
513.043	1	8
513.383	1	5
513.724	1	6
514.064	1	5
514.404	1	9
514.745	1	5
515.085	1	2
515.425	1	10
515.766	1	-3
516.106	1	1
516.447	1	-1
516.787	1	3
517.127	1	3
517.468	1	10
517.808	1	-4
518.148	1	9
518.489	1	0
518.829	1	8
519.169	1	-8
519.510	1	-5
519.850	1	9
520.190	1	-9
520.531	1	-2
520.871	1	5
521.211	1	4
521.552	1	2
521.892	1	1
522.232	1	3
522.573	1	8
522.913	1	4
523.253	1	7
523.593	1	0
523.934	1	5
524.274	1	-2
524.614	1	7
524.955	1	3
525.295	1	8
525.635	1	1
525.975	1	2
526.316	1	-7
526.656	1	1
526.996	1	3
527.337	1	10
527.677	1	12
528.017	1	-10
528.357	1	7
528.698	1	4
529.038	1	4
529.378	1	-1
529.718	1	2
530.058	1	5
530.399	1	4
530.739	1	-6
531.079	1	0
531.419	1	5
531.760	1	12
532.100	1	1
532.440	1	13
532.780	1	7
533.120	1	0
533.461	1	-5
533.801	1	3
534.141	1	-1
534.481	1	6
534.821	1	2
535.162	1	6
535.502	1	-5
535.842	1	5
536.182	1	1
536.522	1	-3
536.862	1	-4
537.203	1	12
537.543	1	3
537.883	1	0
538.223	1	24
538.563	1	7
538.903	1	-2
539.243	1	-2
539.584	1	9
539.924	1	0
540.264	1	15
540.604	1	3
540.944	1	5
541.284	1	-6
541.624	1	-1
541.964	1	1
542.305	1	9
542.645	1	7
542.985	1	-6
543.325	1	14
543.665	1	2
544.005	1	3
544.345	1	12
544.685	1	-2
545.025	1	9
545.365	1	9
545.705	1	8
546.045	1	8
546.386	1	1
546.726	1	-1
547.066	1	6
547.406	1	-10
547.746	1	-2
548.086	1	4
548.426	1	3
548.766	1	0
549.106	1	-4
549.446	1	9
549.786	1	9
550.126	1	5
550.466	1	4
550.806	1	17
551.146	1	4
551.486	1	3
551.826	1	-2
552.166	1	3
552.506	1	1
552.846	1	5
553.186	1	-6
553.526	1	2
553.866	1	6
554.206	1	6
554.546	1	5
554.886	1	-1
555.226	1	0
555.566	1	12
555.906	1	-2
556.246	1	7
556.586	1	-1
556.926	1	7
557.266	1	12
557.606	1	-1
557.946	1	12
558.286	1	-7
558.626	1	7
558.966	1	6
559.306	1	11
559.646	1	5
559.986	1	13
560.325	1	-3
560.665	1	-1
561.005	1	4
561.345	1	-3
561.685	1	6
562.025	1	3
562.365	1	2
562.705	1	13
563.045	1	-4
563.385	1	2
563.725	1	11
564.064	1	-2
564.404	1	-9
564.744	1	13
565.084	1	9
565.424	1	0
565.764	1	3
566.104	1	5
566.444	1	9
566.783	1	7
567.123	1	11
567.463	1	5
567.803	1	12
568.143	1	-2
568.483	1	4
568.823	1	1
569.162	1	-7
569.502	1	5
569.842	1	9
570.182	1	3
570.522	1	-12
570.862	1	-12
571.201	1	19
571.541	1	1
571.881	1	-3
572.221	1	0
572.561	1	8
572.900	1	7
573.240	1	-2
573.580	1	7
573.920	1	3
574.260	1	-4
574.599	1	7
574.939	1	-2
575.279	1	0
575.619	1	-7
575.959	1	10
576.298	1	-10
576.638	1	3
576.978	1	1
577.318	1	3
577.657	1	2
577.997	1	11
578.337	1	3
578.677	1	-2
579.016	1	3
579.356	1	8
579.696	1	0
580.036	1	-1
580.375	1	1
580.715	1	6
581.055	1	6
581.394	1	-1
581.734	1	2
582.074	1	-1
582.414	1	-10
582.753	1	-4
583.093	1	8
583.433	1	1
583.772	1	10
584.112	1	4
584.452	1	2
584.791	1	-5
585.131	1	7
585.471	1	-5
585.811	1	1
586.150	1	6
586.490	1	7
586.830	1	5
587.169	1	1
587.509	1	6
587.849	1	16
588.188	1	-1
588.528	1	1
588.867	1	5
589.207	1	7
589.547	1	6
589.886	1	1
590.226	1	1
590.566	1	3
590.905	1	2
591.245	1	-6
591.585	1	-5
591.924	1	-2
592.264	1	-1
592.603	1	-15
592.943	1	-5
593.283	1	0
593.622	1	-3
593.962	1	-2
594.301	1	8
594.641	1	4
594.981	1	6
595.320	1	9
595.660	1	7
595.999	1	1
596.339	1	-6
596.678	1	-6
597.018	1	-1
597.358	1	0
597.697	1	1
598.037	1	4
598.376	1	3
598.716	1	3
599.055	1	5
599.395	1	-4
599.734	1	0
600.074	1	2
600.413	1	4
600.753	1	8
601.092	1	-7
601.432	1	2
601.771	1	4
602.111	1	-8
602.451	1	2
602.790	1	-4
603.130	1	-4
603.469	1	1
603.809	1	2
604.148	1	-8
604.487	1	2
604.827	1	5
605.166	1	7
605.506	1	2
605.845	1	14
606.185	1	-4
606.524	1	-5
606.864	1	13
607.203	1	9
607.543	1	3
607.882	1	0
608.222	1	-2
608.561	1	-2
608.901	1	-3
609.240	1	4
609.579	1	-3
609.919	1	1
610.258	1	11
610.598	1	-8
610.937	1	-6
611.277	1	1
611.616	1	5
611.955	1	-10
612.295	1	6
612.634	1	1
612.974	1	0
613.313	1	10
613.652	1	13
613.992	1	2
614.331	1	6
614.671	1	6
615.010	1	-1
615.349	1	0
615.689	1	7
616.028	1	10
616.368	1	8
616.707	1	1
617.046	1	9
617.386	1	6
617.725	1	-3
618.064	1	-2
618.404	1	0
618.743	1	9
619.082	1	15
619.422	1	9
619.761	1	3
620.100	1	3
620.440	1	8
620.779	1	1
621.118	1	8
621.458	1	-15
621.797	1	5
622.136	1	2
622.476	1	-3
622.815	1	8
623.154	1	-9
623.494	1	-5
623.833	1	-1
624.172	1	-1
624.511	1	-1
624.851	1	-2
625.190	1	-6
625.529	1	0
625.869	1	9
626.208	1	-9
626.547	1	3
626.886	1	-9
627.226	1	0
627.565	1	14
627.904	1	-13
628.243	1	6
628.583	1	4
628.922	1	13
629.261	1	2
629.600	1	-5
629.940	1	6
630.279	1	5
630.618	1	4
630.957	1	3
631.297	1	5
631.636	1	-2
631.975	1	4
632.314	1	2
632.653	1	-2
632.993	1	-5
633.332	1	-3
633.671	1	6
634.010	1	-2
634.349	1	12
634.689	1	4
635.028	1	-5
635.367	1	6
635.706	1	4
636.045	1	-1
636.384	1	10
636.724	1	5
637.063	1	-4
637.402	1	7
637.741	1	-4
638.080	1	1
638.419	1	-7
638.759	1	7
639.098	1	-5
639.437	1	-3
639.776	1	-4
640.115	1	-8
640.454	1	-3
640.793	1	-3
641.132	1	6
641.472	1	14
641.811	1	0
642.150	1	-3
642.489	1	8
642.828	1	7
643.167	1	1
643.506	1	-4
643.845	1	14
644.184	1	5
644.524	1	-5
644.863	1	-4
645.202	1	3
645.541	1	7
645.880	1	7
646.219	1	1
646.558	1	-7
646.897	1	-6
647.236	1	-5
647.575	1	0
647.914	1	9
648.253	1	9
648.592	1	10
648.931	1	13
649.270	1	2
649.610	1	9
649.949	1	-9
650.288	1	4
650.627	1	2
650.966	1	3
651.305	1	2
651.644	1	14
651.983	1	-4
652.322	1	-7
652.661	1	5
653.000	1	4
653.339	1	-1
653.678	1	17
654.017	1	6
654.356	1	7
654.695	1	5
655.034	1	5
655.373	1	7
655.712	1	0
656.051	1	-6
656.390	1	5
656.729	1	4
657.068	1	-2
657.406	1	-1
657.745	1	11
658.084	1	0
658.423	1	-2
658.762	1	-10
659.101	1	2
659.440	1	-3
659.779	1	7
660.118	1	-4
660.457	1	13
660.796	1	11
661.135	1	4
661.474	1	1
661.813	1	4
662.152	1	-2
662.491	1	-4
662.829	1	7
663.168	1	1
663.507	1	-1
663.846	1	4
664.185	1	-1
664.524	1	9
664.863	1	-5
665.202	1	6
665.541	1	-1
665.879	1	-1
666.218	1	6
666.557	1	-4
666.896	1	7
667.235	1	-10
667.574	1	-1
667.913	1	8
668.251	1	-8
668.590	1	2
668.929	1	3
669.268	1	-7
669.607	1	-10
669.946	1	2
670.285	1	4
670.623	1	10
670.962	1	-15
671.301	1	-1
671.640	1	6
671.979	1	-7
672.317	1	-6
672.656	1	6
672.995	1	-7
673.334	1	-2
673.673	1	9
674.011	1	9
674.350	1	10
674.689	1	-4
675.028	1	4
675.367	1	-5
675.705	1	-16
676.044	1	5
676.383	1	3
676.722	1	3
677.060	1	2
677.399	1	11
677.738	1	-4
678.077	1	-10
678.416	1	-2
678.754	1	-2
679.093	1	12
679.432	1	-3
679.771	1	-3
680.109	1	0
680.448	1	-4
680.787	1	-12
681.125	1	0
681.464	1	-4
681.803	1	-1
682.142	1	-2
682.480	1	2
682.819	1	2
683.158	1	3
683.496	1	-8
683.835	1	14
684.174	1	-4
684.512	1	0
684.851	1	-4
685.190	1	6
685.529	1	1
685.867	1	-3
686.206	1	-8
686.545	1	-3
686.883	1	14
687.222	1	0
687.561	1	4
687.899	1	-5
688.238	1	-1
688.577	1	0
688.746	1	-4