File: Data/GaN_150K_450ms/GaN_sample D_spot15_UVVIS_150 K_200um_450 ms 2x2mm1_224.txt
340.368	1	1
340.710	1	5
341.052	1	4
341.394	1	-12
341.737	1	7
342.079	1	6
342.421	1	-4
342.763	1	7
343.105	1	12
343.447	1	4
343.789	1	-2
344.131	1	-6
344.473	1	7
344.815	1	-3
345.157	1	13
345.499	1	6
345.841	1	7
346.183	1	1
346.526	1	6
346.868	1	6
347.210	1	6
347.552	1	11
347.894	1	0
348.236	1	2
348.578	1	10
348.920	1	4
349.262	1	8
349.604	1	-2
349.946	1	1
350.288	1	-14
350.630	1	-12
350.972	1	9
351.314	1	1
351.656	1	11
351.998	1	11
352.340	1	1
352.682	1	-12
353.024	1	16
353.366	1	3
353.708	1	7
354.050	1	-8
354.392	1	-5
354.734	1	7
355.076	1	23
355.418	1	-2
355.760	1	7
356.102	1	5
356.444	1	14
356.785	1	6
357.127	1	12
357.469	1	1
357.811	1	0
358.153	1	-9
358.495	1	6
358.837	1	11
359.179	1	3
359.521	1	8
359.863	1	1
360.205	1	5
360.547	1	12
360.889	1	2
361.231	1	-1
361.572	1	7
361.914	1	7
362.256	1	13
362.598	1	14
362.940	1	8
363.282	1	5
363.624	1	3
363.966	1	3
364.308	1	7
364.649	1	8
364.991	1	10
365.333	1	14
365.675	1	19
366.017	1	17
366.359	1	13
366.701	1	20
367.042	1	16
367.384	1	19
367.726	1	9
368.068	1	16
368.410	1	26
368.752	1	14
369.093	1	17
369.435	1	20
369.777	1	19
370.119	1	18
370.461	1	20
370.803	1	19
371.144	1	16
371.486	1	23
371.828	1	11
372.170	1	14
372.512	1	2
372.853	1	24
373.195	1	14
373.537	1	8
373.879	1	10
374.220	1	12
374.562	1	15
374.904	1	14
375.246	1	13
375.588	1	9
375.929	1	9
376.271	1	0
376.613	1	7
376.955	1	10
377.296	1	6
377.638	1	2
377.980	1	4
378.321	1	11
378.663	1	6
379.005	1	13
379.347	1	16
379.688	1	16
380.030	1	-2
380.372	1	10
380.714	1	9
381.055	1	3
381.397	1	11
381.739	1	3
382.080	1	7
382.422	1	16
382.764	1	1
383.105	1	-2
383.447	1	2
383.789	1	-3
384.130	1	3
384.472	1	2
384.814	1	7
385.156	1	0
385.497	1	12
385.839	1	2
386.180	1	3
386.522	1	15
386.864	1	-8
387.205	1	13
387.547	1	7
387.889	1	-6
388.230	1	12
388.572	1	-2
388.914	1	10
389.255	1	8
389.597	1	4
389.939	1	8
390.280	1	-2
390.622	1	-1
390.963	1	-9
391.305	1	-1
391.647	1	-1
391.988	1	6
392.330	1	0
392.671	1	10
393.013	1	5
393.355	1	7
393.696	1	11
394.038	1	2
394.379	1	4
394.721	1	3
395.062	1	-8
395.404	1	1
395.746	1	1
396.087	1	9
396.429	1	14
396.770	1	2
397.112	1	-1
397.453	1	-7
397.795	1	-1
398.136	1	10
398.478	1	3
398.819	1	6
399.161	1	9
399.503	1	17
399.844	1	1
400.186	1	6
400.527	1	7
400.869	1	1
401.210	1	5
401.552	1	2
401.893	1	3
402.235	1	7
402.576	1	5
402.918	1	-8
403.259	1	0
403.601	1	8
403.942	1	0
404.284	1	15
404.625	1	2
404.967	1	9
405.308	1	-6
405.649	1	3
405.991	1	0
406.332	1	0
406.674	1	6
407.015	1	2
407.357	1	4
407.698	1	-1
408.040	1	10
408.381	1	-5
408.722	1	4
409.064	1	10
409.405	1	-4
409.747	1	6
410.088	1	10
410.430	1	10
410.771	1	10
411.112	1	0
411.454	1	1
411.795	1	7
412.137	1	-5
412.478	1	11
412.819	1	9
413.161	1	12
413.502	1	2
413.844	1	14
414.185	1	4
414.526	1	-3
414.868	1	4
415.209	1	-4
415.550	1	-2
415.892	1	6
416.233	1	8
416.575	1	6
416.916	1	4
417.257	1	-1
417.599	1	6
417.940	1	4
418.281	1	10
418.623	1	12
418.964	1	13
419.305	1	6
419.647	1	11
419.988	1	8
420.329	1	8
420.671	1	13
421.012	1	0
421.353	1	11
421.695	1	9
422.036	1	18
422.377	1	5
422.718	1	5
423.060	1	13
423.401	1	2
423.742	1	12
424.084	1	3
424.425	1	8
424.766	1	6
425.107	1	15
425.449	1	11
425.790	1	7
426.131	1	-6
426.472	1	6
426.814	1	5
427.155	1	6
427.496	1	7
427.837	1	-1
428.179	1	13
428.520	1	4
428.861	1	4
429.202	1	-2
429.544	1	8
429.885	1	3
430.226	1	-1
430.567	1	2
430.909	1	5
431.250	1	2
431.591	1	6
431.932	1	6
432.273	1	7
432.615	1	10
432.956	1	11
433.297	1	5
433.638	1	1
433.979	1	10
434.320	1	6
434.662	1	8
435.003	1	7
435.344	1	0
435.685	1	3
436.026	1	-1
436.368	1	0
436.709	1	-6
437.050	1	2
437.391	1	7
437.732	1	6
438.073	1	2
438.414	1	2
438.756	1	1
439.097	1	1
439.438	1	0
439.779	1	5
440.120	1	-5
440.461	1	0
440.802	1	5
441.143	1	6
441.485	1	-4
441.826	1	-4
442.167	1	-1
442.508	1	2
442.849	1	7
443.190	1	2
443.531	1	6
443.872	1	1
444.213	1	-5
444.554	1	5
444.895	1	1
445.237	1	7
445.578	1	-6
445.919	1	4
446.260	1	15
446.601	1	5
446.942	1	-3
447.283	1	13
447.624	1	5
447.965	1	7
448.306	1	-4
448.647	1	-2
448.988	1	2
449.329	1	8
449.670	1	5
450.011	1	-6
450.352	1	0
450.693	1	19
451.034	1	-3
451.375	1	8
451.716	1	-1
452.057	1	12
452.398	1	5
452.739	1	-3
453.080	1	1
453.421	1	5
453.762	1	14
454.103	1	10
454.444	1	7
454.785	1	-4
455.126	1	2
455.467	1	7
455.808	1	7
456.149	1	-2
456.490	1	-6
456.831	1	4
457.172	1	1
457.513	1	2
457.854	1	7
458.195	1	2
458.536	1	5
458.877	1	1
459.218	1	9
459.559	1	-1
459.899	1	-4
460.240	1	-4
460.581	1	-2
460.922	1	9
461.263	1	12
461.604	1	4
461.945	1	11
462.286	1	-5
462.627	1	-3
462.968	1	9
463.309	1	4
463.649	1	2
463.990	1	2
464.331	1	7
464.672	1	-2
465.013	1	4
465.354	1	10
465.695	1	3
466.036	1	8
466.376	1	17
466.717	1	-5
467.058	1	0
467.399	1	-10
467.740	1	20
468.081	1	11
468.422	1	-1
468.762	1	8
469.103	1	0
469.444	1	6
469.785	1	-3
470.126	1	3
470.467	1	-1
470.807	1	0
471.148	1	-10
471.489	1	11
471.830	1	2
472.171	1	16
472.511	1	2
472.852	1	8
473.193	1	0
473.534	1	3
473.875	1	6
474.215	1	7
474.556	1	-6
474.897	1	0
475.238	1	5
475.578	1	-1
475.919	1	2
476.260	1	1
476.601	1	-7
476.942	1	2
477.282	1	-4
477.623	1	3
477.964	1	7
478.305	1	4
478.645	1	10
478.986	1	12
479.327	1	9
479.667	1	0
480.008	1	2
480.349	1	2
480.690	1	0
481.030	1	-1
481.371	1	-5
481.712	1	18
482.053	1	9
482.393	1	1
482.734	1	9
483.075	1	11
483.415	1	6
483.756	1	-1
484.097	1	14
484.437	1	13
484.778	1	2
485.119	1	8
485.459	1	-5
485.800	1	-1
486.141	1	13
486.481	1	-13
486.822	1	13
487.163	1	-3
487.503	1	4
487.844	1	-5
488.185	1	7
488.525	1	-7
488.866	1	7
489.207	1	4
489.547	1	4
489.888	1	1
490.228	1	4
490.569	1	-2
490.910	1	3
491.250	1	5
491.591	1	-6
491.932	1	10
492.272	1	-10
492.613	1	2
492.953	1	4
493.294	1	-9
493.635	1	4
493.975	1	15
494.316	1	3
494.656	1	6
494.997	1	2
495.337	1	2
495.678	1	6
496.019	1	5
496.359	1	4
496.700	1	0
497.040	1	-1
497.381	1	2
497.721	1	-3
498.062	1	-5
498.403	1	11
498.743	1	3
499.084	1	12
499.424	1	-5
499.765	1	2
500.105	1	9
500.446	1	1
500.786	1	6
501.127	1	2
501.467	1	3
501.808	1	-2
502.148	1	-3
502.489	1	6
502.829	1	0
503.170	1	5
503.510	1	6
503.851	1	5
504.191	1	-1
504.532	1	12
504.872	1	3
505.213	1	-2
505.553	1	2
505.894	1	11
506.234	1	6
506.575	1	14
506.915	1	1
507.256	1	2
507.596	1	11
507.936	1	9
508.277	1	11
508.617	1	5
508.958	1	9
509.298	1	-2
509.639	1	-3
509.979	1	3
510.319	1	2
510.660	1	-3
511.000	1	1
511.341	1	18
511.681	1	18
512.022	1	-4
512.362	1	7
512.702	1	-2
513.043	1	6
513.383	1	1
513.724	1	9
514.064	1	7
514.404	1	6
514.745	1	1
515.085	1	9
515.425	1	8
515.766	1	3
516.106	1	-1
516.447	1	13
516.787	1	11
517.127	1	13
517.468	1	7
517.808	1	-7
518.148	1	11
518.489	1	7
518.829	1	13
519.169	1	-2
519.510	1	-2
519.850	1	12
520.190	1	-8
520.531	1	8
520.871	1	6
521.211	1	6
521.552	1	-7
521.892	1	3
522.232	1	6
522.573	1	3
522.913	1	5
523.253	1	3
523.593	1	8
523.934	1	6
524.274	1	4
524.614	1	3
524.955	1	11
525.295	1	4
525.635	1	4
525.975	1	-2
526.316	1	-9
526.656	1	1
526.996	1	-4
527.337	1	10
527.677	1	13
528.017	1	-2
528.357	1	14
528.698	1	8
529.038	1	3
529.378	1	8
529.718	1	3
530.058	1	6
530.399	1	2
530.739	1	5
531.079	1	3
531.419	1	5
531.760	1	11
532.100	1	13
532.440	1	11
532.780	1	3
533.120	1	1
533.461	1	6
533.801	1	0
534.141	1	7
534.481	1	19
534.821	1	3
535.162	1	13
535.502	1	1
535.842	1	-1
536.182	1	-3
536.522	1	3
536.862	1	0
537.203	1	3
537.543	1	15
537.883	1	9
538.223	1	17
538.563	1	3
538.903	1	4
539.243	1	5
539.584	1	7
539.924	1	11
540.264	1	13
540.604	1	12
540.944	1	5
541.284	1	-2
541.624	1	4
541.964	1	-4
542.305	1	9
542.645	1	-1
542.985	1	14
543.325	1	9
543.665	1	-2
544.005	1	-3
544.345	1	10
544.685	1	-5
545.025	1	1
545.365	1	10
545.705	1	10
546.045	1	6
546.386	1	-3
546.726	1	8
547.066	1	1
547.406	1	-3
547.746	1	-2
548.086	1	5
548.426	1	-1
548.766	1	2
549.106	1	-1
549.446	1	4
549.786	1	6
550.126	1	12
550.466	1	1
550.806	1	15
551.146	1	2
551.486	1	0
551.826	1	-4
552.166	1	6
552.506	1	-8
552.846	1	2
553.186	1	-8
553.526	1	-4
553.866	1	-2
554.206	1	11
554.546	1	6
554.886	1	4
555.226	1	4
555.566	1	8
555.906	1	-1
556.246	1	11
556.586	1	2
556.926	1	-1
557.266	1	11
557.606	1	-15
557.946	1	0
558.286	1	-10
558.626	1	7
558.966	1	-3
559.306	1	10
559.646	1	14
559.986	1	12
560.325	1	2
560.665	1	-5
561.005	1	4
561.345	1	-4
561.685	1	2
562.025	1	6
562.365	1	1
562.705	1	5
563.045	1	-1
563.385	1	4
563.725	1	5
564.064	1	-9
564.404	1	-1
564.744	1	13
565.084	1	8
565.424	1	3
565.764	1	2
566.104	1	12
566.444	1	8
566.783	1	4
567.123	1	5
567.463	1	10
567.803	1	-2
568.143	1	2
568.483	1	13
568.823	1	1
569.162	1	-3
569.502	1	4
569.842	1	4
570.182	1	4
570.522	1	-7
570.862	1	-8
571.201	1	10
571.541	1	2
571.881	1	-1
572.221	1	1
572.561	1	6
572.900	1	6
573.240	1	-6
573.580	1	5
573.920	1	9
574.260	1	9
574.599	1	8
574.939	1	9
575.279	1	6
575.619	1	-1
575.959	1	-7
576.298	1	-3
576.638	1	11
576.978	1	7
577.318	1	-3
577.657	1	0
577.997	1	8
578.337	1	-1
578.677	1	8
579.016	1	-5
579.356	1	-4
579.696	1	6
580.036	1	8
580.375	1	5
580.715	1	7
581.055	1	0
581.394	1	2
581.734	1	1
582.074	1	4
582.414	1	0
582.753	1	1
583.093	1	0
583.433	1	14
583.772	1	2
584.112	1	7
584.452	1	5
584.791	1	8
585.131	1	2
585.471	1	13
585.811	1	7
586.150	1	8
586.490	1	5
586.830	1	5
587.169	1	5
587.509	1	-5
587.849	1	8
588.188	1	10
588.528	1	-2
588.867	1	2
589.207	1	5
589.547	1	11
589.886	1	4
590.226	1	-10
590.566	1	-2
590.905	1	5
591.245	1	-4
591.585	1	-10
591.924	1	-7
592.264	1	3
592.603	1	-12
592.943	1	1
593.283	1	5
593.622	1	-5
593.962	1	2
594.301	1	3
594.641	1	2
594.981	1	5
595.320	1	14
595.660	1	5
595.999	1	4
596.339	1	-1
596.678	1	-8
597.018	1	1
597.358	1	-3
597.697	1	-3
598.037	1	4
598.376	1	2
598.716	1	5
599.055	1	0
599.395	1	-5
599.734	1	10
600.074	1	-3
600.413	1	2
600.753	1	15
601.092	1	1
601.432	1	2
601.771	1	5
602.111	1	7
602.451	1	0
602.790	1	2
603.130	1	-5
603.469	1	4
603.809	1	12
604.148	1	-6
604.487	1	-1
604.827	1	3
605.166	1	3
605.506	1	2
605.845	1	1
606.185	1	-7
606.524	1	-1
606.864	1	9
607.203	1	12
607.543	1	4
607.882	1	7
608.222	1	-1
608.561	1	1
608.901	1	11
609.240	1	11
609.579	1	-1
609.919	1	-12
610.258	1	17
610.598	1	-2
610.937	1	0
611.277	1	6
611.616	1	9
611.955	1	4
612.295	1	2
612.634	1	-2
612.974	1	-3
613.313	1	4
613.652	1	13
613.992	1	-2
614.331	1	9
614.671	1	4
615.010	1	6
615.349	1	0
615.689	1	3
616.028	1	15
616.368	1	4
616.707	1	-2
617.046	1	7
617.386	1	9
617.725	1	7
618.064	1	5
618.404	1	3
618.743	1	7
619.082	1	13
619.422	1	13
619.761	1	1
620.100	1	3
620.440	1	-4
620.779	1	3
621.118	1	7
621.458	1	-1
621.797	1	-3
622.136	1	5
622.476	1	0
622.815	1	7
623.154	1	-4
623.494	1	0
623.833	1	8
624.172	1	4
624.511	1	-9
624.851	1	-9
625.190	1	-2
625.529	1	3
625.869	1	10
626.208	1	1
626.547	1	-7
626.886	1	-4
627.226	1	3
627.565	1	3
627.904	1	7
628.243	1	6
628.583	1	7
628.922	1	13
629.261	1	12
629.600	1	-8
629.940	1	5
630.279	1	11
630.618	1	-1
630.957	1	-1
631.297	1	2
631.636	1	6
631.975	1	-7
632.314	1	10
632.653	1	1
632.993	1	5
633.332	1	2
633.671	1	9
634.010	1	9
634.349	1	9
634.689	1	-5
635.028	1	-6
635.367	1	13
635.706	1	2
636.045	1	-2
636.384	1	9
636.724	1	7
637.063	1	-6
637.402	1	6
637.741	1	8
638.080	1	2
638.419	1	-2
638.759	1	3
639.098	1	-2
639.437	1	3
639.776	1	8
640.115	1	-7
640.454	1	-10
640.793	1	-1
641.132	1	-5
641.472	1	15
641.811	1	-2
642.150	1	-5
642.489	1	1
642.828	1	18
643.167	1	-2
643.506	1	6
643.845	1	3
644.184	1	18
644.524	1	4
644.863	1	9
645.202	1	4
645.541	1	2
645.880	1	8
646.219	1	8
646.558	1	-9
646.897	1	-5
647.236	1	-7
647.575	1	10
647.914	1	9
648.253	1	6
648.592	1	5
648.931	1	4
649.270	1	7
649.610	1	1
649.949	1	-2
650.288	1	-5
650.627	1	1
650.966	1	1
651.305	1	-3
651.644	1	6
651.983	1	-6
652.322	1	6
652.661	1	15
653.000	1	9
653.339	1	-7
653.678	1	12
654.017	1	8
654.356	1	11
654.695	1	14
655.034	1	-6
655.373	1	0
655.712	1	4
656.051	1	-1
656.390	1	0
656.729	1	5
657.068	1	2
657.406	1	2
657.745	1	15
658.084	1	0
658.423	1	10
658.762	1	-1
659.101	1	1
659.440	1	-2
659.779	1	10
660.118	1	5
660.457	1	3
660.796	1	12
661.135	1	4
661.474	1	2
661.813	1	2
662.152	1	4
662.491	1	-3
662.829	1	2
663.168	1	3
663.507	1	7
663.846	1	-7
664.185	1	3
664.524	1	11
664.863	1	-5
665.202	1	1
665.541	1	-4
665.879	1	7
666.218	1	2
666.557	1	-6
666.896	1	3
667.235	1	-14
667.574	1	-6
667.913	1	2
668.251	1	-1
668.590	1	-8
668.929	1	-1
669.268	1	-4
669.607	1	-4
669.946	1	2
670.285	1	1
670.623	1	1
670.962	1	-3
671.301	1	4
671.640	1	7
671.979	1	-5
672.317	1	-5
672.656	1	7
672.995	1	3
673.334	1	-10
673.673	1	2
674.011	1	13
674.350	1	3
674.689	1	-5
675.028	1	0
675.367	1	1
675.705	1	-3
676.044	1	2
676.383	1	0
676.722	1	-3
677.060	1	14
677.399	1	12
677.738	1	3
678.077	1	0
678.416	1	0
678.754	1	1
679.093	1	14
679.432	1	-6
679.771	1	0
680.109	1	2
680.448	1	0
680.787	1	-6
681.125	1	5
681.464	1	6
681.803	1	-1
682.142	1	6
682.480	1	-5
682.819	1	-7
683.158	1	2
683.496	1	-6
683.835	1	7
684.174	1	-5
684.512	1	1
684.851	1	-5
685.190	1	2
685.529	1	3
685.867	1	-6
686.206	1	2
686.545	1	-6
686.883	1	11
687.222	1	-6
687.561	1	4
687.899	1	5
688.238	1	5
688.577	1	0
688.746	1	-2