File: Data/GaN_150K_450ms/GaN_sample D_spot15_UVVIS_150 K_200um_450 ms 2x2mm1_5.txt
340.368	1	-2
340.710	1	0
341.052	1	-1
341.394	1	-6
341.737	1	8
342.079	1	-1
342.421	1	-13
342.763	1	2
343.105	1	6
343.447	1	-5
343.789	1	-1
344.131	1	-14
344.473	1	-3
344.815	1	0
345.157	1	4
345.499	1	-1
345.841	1	1
346.183	1	4
346.526	1	9
346.868	1	0
347.210	1	-4
347.552	1	7
347.894	1	-4
348.236	1	1
348.578	1	2
348.920	1	-7
349.262	1	-1
349.604	1	-3
349.946	1	1
350.288	1	-10
350.630	1	-8
350.972	1	0
351.314	1	-17
351.656	1	8
351.998	1	-2
352.340	1	7
352.682	1	-5
353.024	1	14
353.366	1	6
353.708	1	3
354.050	1	-8
354.392	1	-4
354.734	1	0
355.076	1	9
355.418	1	7
355.760	1	-3
356.102	1	2
356.444	1	8
356.785	1	0
357.127	1	10
357.469	1	5
357.811	1	-3
358.153	1	-16
358.495	1	3
358.837	1	7
359.179	1	7
359.521	1	7
359.863	1	-9
360.205	1	8
360.547	1	2
360.889	1	3
361.231	1	2
361.572	1	9
361.914	1	-1
362.256	1	6
362.598	1	7
362.940	1	-2
363.282	1	-7
363.624	1	-2
363.966	1	-7
364.308	1	0
364.649	1	5
364.991	1	-4
365.333	1	-4
365.675	1	14
366.017	1	-2
366.359	1	-6
366.701	1	1
367.042	1	8
367.384	1	-5
367.726	1	-5
368.068	1	6
368.410	1	3
368.752	1	14
369.093	1	0
369.435	1	10
369.777	1	7
370.119	1	3
370.461	1	1
370.803	1	6
371.144	1	2
371.486	1	10
371.828	1	3
372.170	1	0
372.512	1	1
372.853	1	12
373.195	1	2
373.537	1	-7
373.879	1	1
374.220	1	2
374.562	1	7
374.904	1	-3
375.246	1	-4
375.588	1	-5
375.929	1	-4
376.271	1	-4
376.613	1	8
376.955	1	-7
377.296	1	-5
377.638	1	6
377.980	1	-8
378.321	1	2
378.663	1	2
379.005	1	5
379.347	1	-3
379.688	1	2
380.030	1	12
380.372	1	1
380.714	1	6
381.055	1	5
381.397	1	-1
381.739	1	-18
382.080	1	1
382.422	1	10
382.764	1	2
383.105	1	-11
383.447	1	3
383.789	1	-8
384.130	1	-5
384.472	1	-7
384.814	1	4
385.156	1	0
385.497	1	4
385.839	1	8
386.180	1	3
386.522	1	-7
386.864	1	-10
387.205	1	-1
387.547	1	3
387.889	1	-6
388.230	1	4
388.572	1	-4
388.914	1	10
389.255	1	4
389.597	1	-1
389.939	1	9
390.280	1	-2
390.622	1	-10
390.963	1	-6
391.305	1	-2
391.647	1	1
391.988	1	0
392.330	1	-4
392.671	1	10
393.013	1	5
393.355	1	8
393.696	1	-2
394.038	1	-4
394.379	1	9
394.721	1	-3
395.062	1	-8
395.404	1	-10
395.746	1	-13
396.087	1	7
396.429	1	7
396.770	1	8
397.112	1	-4
397.453	1	-9
397.795	1	-3
398.136	1	3
398.478	1	-8
398.819	1	2
399.161	1	8
399.503	1	2
399.844	1	-8
400.186	1	0
400.527	1	1
400.869	1	-10
401.210	1	-3
401.552	1	4
401.893	1	3
402.235	1	5
402.576	1	9
402.918	1	1
403.259	1	3
403.601	1	-5
403.942	1	3
404.284	1	2
404.625	1	1
404.967	1	-3
405.308	1	-13
405.649	1	6
405.991	1	4
406.332	1	2
406.674	1	-5
407.015	1	10
407.357	1	1
407.698	1	0
408.040	1	11
408.381	1	-4
408.722	1	4
409.064	1	1
409.405	1	-3
409.747	1	0
410.088	1	0
410.430	1	3
410.771	1	6
411.112	1	4
411.454	1	-8
411.795	1	-2
412.137	1	-2
412.478	1	2
412.819	1	-6
413.161	1	-1
413.502	1	1
413.844	1	-1
414.185	1	-4
414.526	1	1
414.868	1	-3
415.209	1	-9
415.550	1	-5
415.892	1	9
416.233	1	2
416.575	1	-5
416.916	1	-3
417.257	1	2
417.599	1	2
417.940	1	-18
418.281	1	-4
418.623	1	4
418.964	1	15
419.305	1	0
419.647	1	7
419.988	1	5
420.329	1	2
420.671	1	3
421.012	1	-5
421.353	1	8
421.695	1	3
422.036	1	23
422.377	1	-1
422.718	1	9
423.060	1	2
423.401	1	-5
423.742	1	-1
424.084	1	1
424.425	1	9
424.766	1	-3
425.107	1	-1
425.449	1	-3
425.790	1	-2
426.131	1	-3
426.472	1	4
426.814	1	0
427.155	1	3
427.496	1	5
427.837	1	-1
428.179	1	7
428.520	1	-2
428.861	1	0
429.202	1	-6
429.544	1	2
429.885	1	-2
430.226	1	-7
430.567	1	-9
430.909	1	-10
431.250	1	8
431.591	1	3
431.932	1	-4
432.273	1	0
432.615	1	-1
432.956	1	-5
433.297	1	-3
433.638	1	1
433.979	1	10
434.320	1	2
434.662	1	8
435.003	1	5
435.344	1	-4
435.685	1	-8
436.026	1	-4
436.368	1	-9
436.709	1	-8
437.050	1	-10
437.391	1	0
437.732	1	-5
438.073	1	-9
438.414	1	9
438.756	1	1
439.097	1	2
439.438	1	8
439.779	1	0
440.120	1	0
440.461	1	1
440.802	1	-8
441.143	1	-6
441.485	1	3
441.826	1	1
442.167	1	0
442.508	1	4
442.849	1	9
443.190	1	-1
443.531	1	-5
443.872	1	-17
444.213	1	-3
444.554	1	12
444.895	1	0
445.237	1	-1
445.578	1	-3
445.919	1	-1
446.260	1	11
446.601	1	3
446.942	1	-11
447.283	1	7
447.624	1	-10
447.965	1	-3
448.306	1	1
448.647	1	0
448.988	1	-4
449.329	1	2
449.670	1	1
450.011	1	-4
450.352	1	-1
450.693	1	2
451.034	1	-2
451.375	1	-9
451.716	1	3
452.057	1	0
452.398	1	-2
452.739	1	4
453.080	1	-5
453.421	1	4
453.762	1	-3
454.103	1	-4
454.444	1	4
454.785	1	1
455.126	1	0
455.467	1	-3
455.808	1	9
456.149	1	-5
456.490	1	-7
456.831	1	-1
457.172	1	7
457.513	1	3
457.854	1	-4
458.195	1	-5
458.536	1	-2
458.877	1	3
459.218	1	2
459.559	1	-2
459.899	1	-1
460.240	1	-2
460.581	1	-3
460.922	1	-5
461.263	1	11
461.604	1	-4
461.945	1	11
462.286	1	-2
462.627	1	-1
462.968	1	4
463.309	1	-2
463.649	1	-7
463.990	1	4
464.331	1	4
464.672	1	6
465.013	1	1
465.354	1	11
465.695	1	9
466.036	1	18
466.376	1	9
466.717	1	-7
467.058	1	3
467.399	1	-7
467.740	1	6
468.081	1	0
468.422	1	-5
468.762	1	4
469.103	1	3
469.444	1	-3
469.785	1	4
470.126	1	0
470.467	1	0
470.807	1	4
471.148	1	-3
471.489	1	5
471.830	1	5
472.171	1	9
472.511	1	6
472.852	1	5
473.193	1	-7
473.534	1	-4
473.875	1	8
474.215	1	-5
474.556	1	-8
474.897	1	-7
475.238	1	2
475.578	1	-5
475.919	1	1
476.260	1	-2
476.601	1	4
476.942	1	-4
477.282	1	-11
477.623	1	-3
477.964	1	7
478.305	1	-2
478.645	1	5
478.986	1	7
479.327	1	-3
479.667	1	3
480.008	1	2
480.349	1	-4
480.690	1	9
481.030	1	-9
481.371	1	-8
481.712	1	9
482.053	1	7
482.393	1	-1
482.734	1	1
483.075	1	2
483.415	1	-5
483.756	1	9
484.097	1	4
484.437	1	3
484.778	1	-5
485.119	1	2
485.459	1	-3
485.800	1	-9
486.141	1	7
486.481	1	-8
486.822	1	6
487.163	1	-5
487.503	1	-1
487.844	1	-10
488.185	1	3
488.525	1	-1
488.866	1	-10
489.207	1	4
489.547	1	1
489.888	1	-6
490.228	1	-1
490.569	1	-4
490.910	1	6
491.250	1	2
491.591	1	3
491.932	1	13
492.272	1	-7
492.613	1	-4
492.953	1	-1
493.294	1	-13
493.635	1	1
493.975	1	12
494.316	1	0
494.656	1	2
494.997	1	-7
495.337	1	-3
495.678	1	-4
496.019	1	1
496.359	1	-3
496.700	1	2
497.040	1	-6
497.381	1	4
497.721	1	-2
498.062	1	-1
498.403	1	6
498.743	1	2
499.084	1	13
499.424	1	-10
499.765	1	0
500.105	1	-3
500.446	1	-5
500.786	1	-2
501.127	1	5
501.467	1	5
501.808	1	-9
502.148	1	-3
502.489	1	-7
502.829	1	-9
503.170	1	0
503.510	1	-4
503.851	1	5
504.191	1	-3
504.532	1	9
504.872	1	-3
505.213	1	-11
505.553	1	1
505.894	1	2
506.234	1	13
506.575	1	7
506.915	1	3
507.256	1	0
507.596	1	6
507.936	1	11
508.277	1	1
508.617	1	2
508.958	1	9
509.298	1	-1
509.639	1	-15
509.979	1	-14
510.319	1	3
510.660	1	-1
511.000	1	-4
511.341	1	10
511.681	1	8
512.022	1	-11
512.362	1	15
512.702	1	-12
513.043	1	9
513.383	1	-5
513.724	1	-1
514.064	1	5
514.404	1	1
514.745	1	1
515.085	1	5
515.425	1	0
515.766	1	0
516.106	1	3
516.447	1	7
516.787	1	0
517.127	1	7
517.468	1	8
517.808	1	-7
518.148	1	18
518.489	1	-5
518.829	1	6
519.169	1	-10
519.510	1	-9
519.850	1	-1
520.190	1	-3
520.531	1	-1
520.871	1	-1
521.211	1	-3
521.552	1	0
521.892	1	-8
522.232	1	2
522.573	1	10
522.913	1	12
523.253	1	10
523.593	1	6
523.934	1	3
524.274	1	2
524.614	1	1
524.955	1	-2
525.295	1	2
525.635	1	-1
525.975	1	-5
526.316	1	-5
526.656	1	-9
526.996	1	1
527.337	1	4
527.677	1	13
528.017	1	-7
528.357	1	4
528.698	1	8
529.038	1	-2
529.378	1	-6
529.718	1	-5
530.058	1	3
530.399	1	-3
530.739	1	4
531.079	1	-5
531.419	1	-5
531.760	1	5
532.100	1	16
532.440	1	9
532.780	1	-5
533.120	1	1
533.461	1	2
533.801	1	-2
534.141	1	3
534.481	1	15
534.821	1	-2
535.162	1	-8
535.502	1	-4
535.842	1	1
536.182	1	-5
536.522	1	-1
536.862	1	-1
537.203	1	1
537.543	1	2
537.883	1	-5
538.223	1	11
538.563	1	4
538.903	1	-3
539.243	1	-3
539.584	1	-3
539.924	1	0
540.264	1	6
540.604	1	5
540.944	1	3
541.284	1	-2
541.624	1	1
541.964	1	1
542.305	1	9
542.645	1	-8
542.985	1	4
543.325	1	3
543.665	1	-3
544.005	1	1
544.345	1	10
544.685	1	-5
545.025	1	3
545.365	1	-2
545.705	1	1
546.045	1	12
546.386	1	2
546.726	1	1
547.066	1	-8
547.406	1	-3
547.746	1	-5
548.086	1	10
548.426	1	-1
548.766	1	-4
549.106	1	4
549.446	1	6
549.786	1	6
550.126	1	3
550.466	1	-6
550.806	1	0
551.146	1	-2
551.486	1	-4
551.826	1	-8
552.166	1	2
552.506	1	-4
552.846	1	2
553.186	1	2
553.526	1	-2
553.866	1	-5
554.206	1	-1
554.546	1	3
554.886	1	4
555.226	1	4
555.566	1	6
555.906	1	6
556.246	1	0
556.586	1	8
556.926	1	-6
557.266	1	7
557.606	1	-14
557.946	1	12
558.286	1	-11
558.626	1	-2
558.966	1	1
559.306	1	4
559.646	1	12
559.986	1	-5
560.325	1	7
560.665	1	-2
561.005	1	2
561.345	1	-4
561.685	1	0
562.025	1	2
562.365	1	2
562.705	1	8
563.045	1	-2
563.385	1	4
563.725	1	-6
564.064	1	-2
564.404	1	-7
564.744	1	7
565.084	1	2
565.424	1	0
565.764	1	-1
566.104	1	7
566.444	1	7
566.783	1	4
567.123	1	-4
567.463	1	0
567.803	1	6
568.143	1	-7
568.483	1	11
568.823	1	-4
569.162	1	1
569.502	1	0
569.842	1	-5
570.182	1	-3
570.522	1	-5
570.862	1	-6
571.201	1	15
571.541	1	8
571.881	1	3
572.221	1	4
572.561	1	9
572.900	1	8
573.240	1	-3
573.580	1	5
573.920	1	10
574.260	1	8
574.599	1	6
574.939	1	-4
575.279	1	-6
575.619	1	-3
575.959	1	-3
576.298	1	-6
576.638	1	8
576.978	1	5
577.318	1	7
577.657	1	-7
577.997	1	3
578.337	1	-3
578.677	1	2
579.016	1	-6
579.356	1	3
579.696	1	-6
580.036	1	-4
580.375	1	5
580.715	1	7
581.055	1	4
581.394	1	1
581.734	1	1
582.074	1	4
582.414	1	-5
582.753	1	3
583.093	1	2
583.433	1	5
583.772	1	1
584.112	1	5
584.452	1	1
584.791	1	1
585.131	1	0
585.471	1	5
585.811	1	1
586.150	1	6
586.490	1	-2
586.830	1	1
587.169	1	-7
587.509	1	-3
587.849	1	11
588.188	1	4
588.528	1	-5
588.867	1	-1
589.207	1	-2
589.547	1	-1
589.886	1	0
590.226	1	4
590.566	1	-1
590.905	1	-10
591.245	1	-3
591.585	1	-2
591.924	1	-3
592.264	1	-7
592.603	1	-15
592.943	1	-4
593.283	1	0
593.622	1	0
593.962	1	6
594.301	1	-3
594.641	1	-3
594.981	1	3
595.320	1	11
595.660	1	10
595.999	1	0
596.339	1	8
596.678	1	-5
597.018	1	-3
597.358	1	0
597.697	1	-5
598.037	1	-5
598.376	1	0
598.716	1	4
599.055	1	5
599.395	1	2
599.734	1	2
600.074	1	-6
600.413	1	4
600.753	1	4
601.092	1	-8
601.432	1	-6
601.771	1	0
602.111	1	-10
602.451	1	7
602.790	1	5
603.130	1	1
603.469	1	5
603.809	1	1
604.148	1	-3
604.487	1	-4
604.827	1	2
605.166	1	4
605.506	1	0
605.845	1	-5
606.185	1	-6
606.524	1	-6
606.864	1	15
607.203	1	-1
607.543	1	5
607.882	1	8
608.222	1	5
608.561	1	-9
608.901	1	2
609.240	1	4
609.579	1	-6
609.919	1	-3
610.258	1	9
610.598	1	0
610.937	1	-2
611.277	1	-2
611.616	1	4
611.955	1	7
612.295	1	7
612.634	1	6
612.974	1	-6
613.313	1	2
613.652	1	10
613.992	1	3
614.331	1	12
614.671	1	3
615.010	1	-6
615.349	1	-3
615.689	1	-8
616.028	1	11
616.368	1	10
616.707	1	2
617.046	1	-13
617.386	1	-1
617.725	1	2
618.064	1	0
618.404	1	-1
618.743	1	4
619.082	1	11
619.422	1	17
619.761	1	-9
620.100	1	3
620.440	1	3
620.779	1	10
621.118	1	5
621.458	1	1
621.797	1	-6
622.136	1	-10
622.476	1	0
622.815	1	7
623.154	1	-4
623.494	1	-7
623.833	1	4
624.172	1	1
624.511	1	-9
624.851	1	-9
625.190	1	2
625.529	1	2
625.869	1	12
626.208	1	-8
626.547	1	-4
626.886	1	-7
627.226	1	6
627.565	1	0
627.904	1	-6
628.243	1	3
628.583	1	6
628.922	1	0
629.261	1	-1
629.600	1	-4
629.940	1	5
630.279	1	6
630.618	1	0
630.957	1	3
631.297	1	-10
631.636	1	-2
631.975	1	-1
632.314	1	0
632.653	1	-9
632.993	1	-4
633.332	1	7
633.671	1	5
634.010	1	-6
634.349	1	7
634.689	1	-4
635.028	1	-7
635.367	1	4
635.706	1	1
636.045	1	-2
636.384	1	1
636.724	1	2
637.063	1	-14
637.402	1	1
637.741	1	-1
638.080	1	0
638.419	1	-1
638.759	1	-3
639.098	1	-1
639.437	1	5
639.776	1	-3
640.115	1	-12
640.454	1	-13
640.793	1	-4
641.132	1	4
641.472	1	12
641.811	1	-5
642.150	1	-3
642.489	1	4
642.828	1	9
643.167	1	2
643.506	1	-8
643.845	1	10
644.184	1	1
644.524	1	-8
644.863	1	-3
645.202	1	-3
645.541	1	9
645.880	1	2
646.219	1	-4
646.558	1	-6
646.897	1	-10
647.236	1	-14
647.575	1	11
647.914	1	-5
648.253	1	10
648.592	1	7
648.931	1	6
649.270	1	12
649.610	1	4
649.949	1	0
650.288	1	-10
650.627	1	4
650.966	1	9
651.305	1	-2
651.644	1	6
651.983	1	-10
652.322	1	4
652.661	1	11
653.000	1	-4
653.339	1	1
653.678	1	9
654.017	1	-3
654.356	1	5
654.695	1	2
655.034	1	-3
655.373	1	-2
655.712	1	8
656.051	1	-8
656.390	1	-5
656.729	1	6
657.068	1	4
657.406	1	-3
657.745	1	10
658.084	1	-4
658.423	1	-1
658.762	1	-7
659.101	1	-3
659.440	1	-7
659.779	1	-6
660.118	1	-4
660.457	1	4
660.796	1	5
661.135	1	6
661.474	1	1
661.813	1	-4
662.152	1	-4
662.491	1	-10
662.829	1	2
663.168	1	6
663.507	1	0
663.846	1	-5
664.185	1	1
664.524	1	9
664.863	1	-9
665.202	1	6
665.541	1	3
665.879	1	13
666.218	1	4
666.557	1	-3
666.896	1	7
667.235	1	-5
667.574	1	-6
667.913	1	4
668.251	1	-17
668.590	1	-9
668.929	1	-4
669.268	1	-5
669.607	1	-10
669.946	1	2
670.285	1	-5
670.623	1	2
670.962	1	-4
671.301	1	-3
671.640	1	1
671.979	1	-9
672.317	1	-1
672.656	1	6
672.995	1	7
673.334	1	-10
673.673	1	14
674.011	1	0
674.350	1	-4
674.689	1	-1
675.028	1	7
675.367	1	3
675.705	1	-6
676.044	1	-2
676.383	1	-6
676.722	1	-4
677.060	1	7
677.399	1	10
677.738	1	2
678.077	1	-4
678.416	1	-10
678.754	1	-2
679.093	1	5
679.432	1	-8
679.771	1	-1
680.109	1	1
680.448	1	-6
680.787	1	-6
681.125	1	-4
681.464	1	2
681.803	1	-3
682.142	1	9
682.480	1	-6
682.819	1	-4
683.158	1	-4
683.496	1	-7
683.835	1	2
684.174	1	6
684.512	1	-3
684.851	1	0
685.190	1	-2
685.529	1	-4
685.867	1	1
686.206	1	-10
686.545	1	0
686.883	1	5
687.222	1	-1
687.561	1	-6
687.899	1	-4
688.238	1	5
688.577	1	-2
688.746	1	-4