File: Data/GaN_150K_450ms/GaN_sample D_spot15_UVVIS_150 K_200um_450 ms 2x2mm1_39.txt
340.368	1	-2
340.710	1	-4
341.052	1	7
341.394	1	-13
341.737	1	7
342.079	1	6
342.421	1	-4
342.763	1	2
343.105	1	3
343.447	1	1
343.789	1	4
344.131	1	-15
344.473	1	4
344.815	1	-4
345.157	1	2
345.499	1	8
345.841	1	5
346.183	1	-5
346.526	1	8
346.868	1	-7
347.210	1	-4
347.552	1	18
347.894	1	-6
348.236	1	6
348.578	1	2
348.920	1	5
349.262	1	-2
349.604	1	-3
349.946	1	-2
350.288	1	-9
350.630	1	-9
350.972	1	7
351.314	1	-2
351.656	1	2
351.998	1	-1
352.340	1	13
352.682	1	-6
353.024	1	17
353.366	1	6
353.708	1	8
354.050	1	-14
354.392	1	-6
354.734	1	0
355.076	1	9
355.418	1	5
355.760	1	4
356.102	1	-5
356.444	1	8
356.785	1	6
357.127	1	8
357.469	1	5
357.811	1	1
358.153	1	-11
358.495	1	-1
358.837	1	16
359.179	1	5
359.521	1	8
359.863	1	-5
360.205	1	8
360.547	1	3
360.889	1	-5
361.231	1	4
361.572	1	7
361.914	1	5
362.256	1	4
362.598	1	5
362.940	1	3
363.282	1	0
363.624	1	-3
363.966	1	-3
364.308	1	-6
364.649	1	3
364.991	1	4
365.333	1	3
365.675	1	14
366.017	1	5
366.359	1	-4
366.701	1	-4
367.042	1	5
367.384	1	-14
367.726	1	0
368.068	1	9
368.410	1	-1
368.752	1	14
369.093	1	1
369.435	1	12
369.777	1	7
370.119	1	11
370.461	1	-9
370.803	1	-1
371.144	1	-7
371.486	1	9
371.828	1	0
372.170	1	1
372.512	1	-6
372.853	1	15
373.195	1	5
373.537	1	-3
373.879	1	-4
374.220	1	8
374.562	1	6
374.904	1	7
375.246	1	-4
375.588	1	0
375.929	1	8
376.271	1	-1
376.613	1	4
376.955	1	-2
377.296	1	-6
377.638	1	4
377.980	1	4
378.321	1	9
378.663	1	6
379.005	1	-2
379.347	1	10
379.688	1	12
380.030	1	2
380.372	1	6
380.714	1	-1
381.055	1	2
381.397	1	7
381.739	1	-11
382.080	1	2
382.422	1	6
382.764	1	-2
383.105	1	-2
383.447	1	-1
383.789	1	0
384.130	1	-3
384.472	1	-2
384.814	1	6
385.156	1	1
385.497	1	11
385.839	1	2
386.180	1	-1
386.522	1	14
386.864	1	0
387.205	1	8
387.547	1	7
387.889	1	-6
388.230	1	6
388.572	1	-5
388.914	1	13
389.255	1	-2
389.597	1	7
389.939	1	12
390.280	1	2
390.622	1	0
390.963	1	-9
391.305	1	-6
391.647	1	0
391.988	1	8
392.330	1	4
392.671	1	4
393.013	1	6
393.355	1	2
393.696	1	-2
394.038	1	-6
394.379	1	9
394.721	1	-3
395.062	1	-3
395.404	1	8
395.746	1	1
396.087	1	4
396.429	1	7
396.770	1	4
397.112	1	3
397.453	1	-11
397.795	1	2
398.136	1	4
398.478	1	-6
398.819	1	2
399.161	1	5
399.503	1	10
399.844	1	-6
400.186	1	3
400.527	1	2
400.869	1	-8
401.210	1	-6
401.552	1	2
401.893	1	1
402.235	1	5
402.576	1	-1
402.918	1	-9
403.259	1	0
403.601	1	-2
403.942	1	2
404.284	1	5
404.625	1	0
404.967	1	-5
405.308	1	-2
405.649	1	-4
405.991	1	1
406.332	1	3
406.674	1	0
407.015	1	1
407.357	1	4
407.698	1	1
408.040	1	17
408.381	1	-4
408.722	1	6
409.064	1	0
409.405	1	1
409.747	1	-2
410.088	1	7
410.430	1	4
410.771	1	9
411.112	1	8
411.454	1	-5
411.795	1	-7
412.137	1	1
412.478	1	5
412.819	1	-5
413.161	1	2
413.502	1	2
413.844	1	9
414.185	1	9
414.526	1	-5
414.868	1	-2
415.209	1	-12
415.550	1	-6
415.892	1	11
416.233	1	-3
416.575	1	-6
416.916	1	1
417.257	1	1
417.599	1	1
417.940	1	-6
418.281	1	6
418.623	1	2
418.964	1	7
419.305	1	4
419.647	1	1
419.988	1	14
420.329	1	-2
420.671	1	8
421.012	1	-5
421.353	1	9
421.695	1	8
422.036	1	11
422.377	1	-6
422.718	1	12
423.060	1	1
423.401	1	4
423.742	1	4
424.084	1	8
424.425	1	2
424.766	1	0
425.107	1	1
425.449	1	-6
425.790	1	8
426.131	1	-8
426.472	1	12
426.814	1	-7
427.155	1	4
427.496	1	-5
427.837	1	1
428.179	1	13
428.520	1	2
428.861	1	9
429.202	1	-2
429.544	1	6
429.885	1	7
430.226	1	-5
430.567	1	-3
430.909	1	-13
431.250	1	6
431.591	1	3
431.932	1	0
432.273	1	6
432.615	1	1
432.956	1	-1
433.297	1	0
433.638	1	2
433.979	1	2
434.320	1	-3
434.662	1	6
435.003	1	9
435.344	1	1
435.685	1	-3
436.026	1	-9
436.368	1	-10
436.709	1	-4
437.050	1	-4
437.391	1	5
437.732	1	1
438.073	1	-2
438.414	1	7
438.756	1	3
439.097	1	2
439.438	1	-5
439.779	1	-1
440.120	1	0
440.461	1	3
440.802	1	-4
441.143	1	-7
441.485	1	-1
441.826	1	4
442.167	1	7
442.508	1	-5
442.849	1	10
443.190	1	7
443.531	1	-4
443.872	1	-4
444.213	1	-2
444.554	1	18
444.895	1	-9
445.237	1	11
445.578	1	-9
445.919	1	2
446.260	1	10
446.601	1	4
446.942	1	-8
447.283	1	9
447.624	1	-2
447.965	1	-5
448.306	1	5
448.647	1	-3
448.988	1	2
449.329	1	-1
449.670	1	-2
450.011	1	0
450.352	1	-2
450.693	1	6
451.034	1	-1
451.375	1	-2
451.716	1	5
452.057	1	-2
452.398	1	8
452.739	1	3
453.080	1	12
453.421	1	11
453.762	1	4
454.103	1	4
454.444	1	6
454.785	1	6
455.126	1	8
455.467	1	11
455.808	1	7
456.149	1	1
456.490	1	-5
456.831	1	10
457.172	1	6
457.513	1	-3
457.854	1	-6
458.195	1	7
458.536	1	2
458.877	1	4
459.218	1	15
459.559	1	1
459.899	1	-5
460.240	1	-5
460.581	1	7
460.922	1	0
461.263	1	16
461.604	1	6
461.945	1	15
462.286	1	-8
462.627	1	-1
462.968	1	6
463.309	1	-2
463.649	1	-6
463.990	1	0
464.331	1	7
464.672	1	4
465.013	1	11
465.354	1	8
465.695	1	3
466.036	1	8
466.376	1	19
466.717	1	-14
467.058	1	0
467.399	1	-7
467.740	1	5
468.081	1	7
468.422	1	4
468.762	1	9
469.103	1	1
469.444	1	6
469.785	1	-1
470.126	1	6
470.467	1	2
470.807	1	3
471.148	1	-7
471.489	1	0
471.830	1	6
472.171	1	4
472.511	1	4
472.852	1	5
473.193	1	-1
473.534	1	6
473.875	1	4
474.215	1	0
474.556	1	7
474.897	1	-9
475.238	1	7
475.578	1	4
475.919	1	-1
476.260	1	-1
476.601	1	0
476.942	1	-4
477.282	1	-4
477.623	1	-4
477.964	1	-2
478.305	1	3
478.645	1	0
478.986	1	4
479.327	1	-2
479.667	1	2
480.008	1	7
480.349	1	-5
480.690	1	10
481.030	1	-4
481.371	1	-3
481.712	1	9
482.053	1	10
482.393	1	-2
482.734	1	8
483.075	1	-5
483.415	1	3
483.756	1	3
484.097	1	-6
484.437	1	4
484.778	1	0
485.119	1	7
485.459	1	-9
485.800	1	-4
486.141	1	6
486.481	1	-6
486.822	1	8
487.163	1	-5
487.503	1	3
487.844	1	-5
488.185	1	11
488.525	1	-5
488.866	1	-1
489.207	1	9
489.547	1	-4
489.888	1	8
490.228	1	5
490.569	1	-14
490.910	1	0
491.250	1	6
491.591	1	-1
491.932	1	9
492.272	1	2
492.613	1	-5
492.953	1	-6
493.294	1	-1
493.635	1	6
493.975	1	12
494.316	1	-1
494.656	1	-2
494.997	1	3
495.337	1	-4
495.678	1	5
496.019	1	-6
496.359	1	1
496.700	1	9
497.040	1	-11
497.381	1	-2
497.721	1	-2
498.062	1	-1
498.403	1	11
498.743	1	1
499.084	1	1
499.424	1	-2
499.765	1	5
500.105	1	8
500.446	1	-3
500.786	1	-10
501.127	1	9
501.467	1	1
501.808	1	1
502.148	1	-3
502.489	1	-2
502.829	1	-2
503.170	1	9
503.510	1	-7
503.851	1	5
504.191	1	4
504.532	1	10
504.872	1	-7
505.213	1	-4
505.553	1	3
505.894	1	1
506.234	1	6
506.575	1	10
506.915	1	6
507.256	1	2
507.596	1	8
507.936	1	19
508.277	1	3
508.617	1	1
508.958	1	4
509.298	1	-4
509.639	1	-2
509.979	1	-2
510.319	1	3
510.660	1	3
511.000	1	-7
511.341	1	8
511.681	1	10
512.022	1	-11
512.362	1	15
512.702	1	-4
513.043	1	7
513.383	1	5
513.724	1	3
514.064	1	6
514.404	1	15
514.745	1	-3
515.085	1	8
515.425	1	-1
515.766	1	7
516.106	1	-2
516.447	1	11
516.787	1	-3
517.127	1	2
517.468	1	11
517.808	1	-3
518.148	1	10
518.489	1	1
518.829	1	11
519.169	1	-5
519.510	1	1
519.850	1	7
520.190	1	-1
520.531	1	-6
520.871	1	2
521.211	1	5
521.552	1	-5
521.892	1	5
522.232	1	4
522.573	1	-2
522.913	1	5
523.253	1	7
523.593	1	7
523.934	1	5
524.274	1	3
524.614	1	1
524.955	1	-2
525.295	1	0
525.635	1	-2
525.975	1	-3
526.316	1	-12
526.656	1	-6
526.996	1	-3
527.337	1	2
527.677	1	15
528.017	1	-11
528.357	1	5
528.698	1	8
529.038	1	3
529.378	1	-4
529.718	1	-5
530.058	1	1
530.399	1	2
530.739	1	1
531.079	1	-1
531.419	1	6
531.760	1	11
532.100	1	7
532.440	1	12
532.780	1	3
533.120	1	2
533.461	1	-1
533.801	1	6
534.141	1	-3
534.481	1	15
534.821	1	2
535.162	1	-1
535.502	1	-1
535.842	1	-11
536.182	1	-5
536.522	1	-1
536.862	1	7
537.203	1	1
537.543	1	3
537.883	1	-3
538.223	1	8
538.563	1	2
538.903	1	1
539.243	1	9
539.584	1	4
539.924	1	-3
540.264	1	9
540.604	1	10
540.944	1	9
541.284	1	4
541.624	1	1
541.964	1	3
542.305	1	11
542.645	1	-2
542.985	1	-1
543.325	1	8
543.665	1	0
544.005	1	-6
544.345	1	7
544.685	1	-6
545.025	1	-8
545.365	1	6
545.705	1	14
546.045	1	-2
546.386	1	-6
546.726	1	3
547.066	1	5
547.406	1	-1
547.746	1	-8
548.086	1	6
548.426	1	1
548.766	1	6
549.106	1	0
549.446	1	5
549.786	1	-1
550.126	1	1
550.466	1	1
550.806	1	12
551.146	1	6
551.486	1	-3
551.826	1	-4
552.166	1	6
552.506	1	2
552.846	1	7
553.186	1	-10
553.526	1	-1
553.866	1	12
554.206	1	7
554.546	1	2
554.886	1	-9
555.226	1	4
555.566	1	-3
555.906	1	2
556.246	1	1
556.586	1	-3
556.926	1	-5
557.266	1	5
557.606	1	-2
557.946	1	3
558.286	1	-9
558.626	1	6
558.966	1	1
559.306	1	1
559.646	1	5
559.986	1	9
560.325	1	-2
560.665	1	3
561.005	1	0
561.345	1	0
561.685	1	8
562.025	1	1
562.365	1	-5
562.705	1	1
563.045	1	0
563.385	1	0
563.725	1	-3
564.064	1	-7
564.404	1	-3
564.744	1	1
565.084	1	0
565.424	1	-4
565.764	1	10
566.104	1	13
566.444	1	5
566.783	1	7
567.123	1	-2
567.463	1	5
567.803	1	8
568.143	1	8
568.483	1	0
568.823	1	-2
569.162	1	-1
569.502	1	9
569.842	1	1
570.182	1	0
570.522	1	-2
570.862	1	-12
571.201	1	10
571.541	1	-4
571.881	1	-5
572.221	1	0
572.561	1	6
572.900	1	9
573.240	1	-5
573.580	1	12
573.920	1	7
574.260	1	3
574.599	1	8
574.939	1	10
575.279	1	3
575.619	1	-3
575.959	1	-7
576.298	1	0
576.638	1	10
576.978	1	6
577.318	1	-4
577.657	1	-4
577.997	1	3
578.337	1	2
578.677	1	3
579.016	1	2
579.356	1	6
579.696	1	-5
580.036	1	5
580.375	1	8
580.715	1	4
581.055	1	4
581.394	1	3
581.734	1	8
582.074	1	-2
582.414	1	-8
582.753	1	-4
583.093	1	4
583.433	1	6
583.772	1	0
584.112	1	5
584.452	1	7
584.791	1	6
585.131	1	4
585.471	1	6
585.811	1	8
586.150	1	6
586.490	1	-2
586.830	1	7
587.169	1	-2
587.509	1	7
587.849	1	9
588.188	1	5
588.528	1	7
588.867	1	5
589.207	1	4
589.547	1	-2
589.886	1	0
590.226	1	-8
590.566	1	4
590.905	1	-1
591.245	1	-3
591.585	1	-1
591.924	1	5
592.264	1	6
592.603	1	-8
592.943	1	-3
593.283	1	0
593.622	1	-5
593.962	1	6
594.301	1	2
594.641	1	1
594.981	1	2
595.320	1	3
595.660	1	7
595.999	1	-1
596.339	1	2
596.678	1	-2
597.018	1	-3
597.358	1	0
597.697	1	-15
598.037	1	-1
598.376	1	-1
598.716	1	3
599.055	1	6
599.395	1	-2
599.734	1	12
600.074	1	-10
600.413	1	10
600.753	1	4
601.092	1	-3
601.432	1	-12
601.771	1	3
602.111	1	2
602.451	1	-5
602.790	1	9
603.130	1	5
603.469	1	-2
603.809	1	9
604.148	1	-4
604.487	1	2
604.827	1	-5
605.166	1	4
605.506	1	3
605.845	1	5
606.185	1	3
606.524	1	-2
606.864	1	2
607.203	1	2
607.543	1	4
607.882	1	7
608.222	1	0
608.561	1	-8
608.901	1	4
609.240	1	12
609.579	1	3
609.919	1	-9
610.258	1	16
610.598	1	-5
610.937	1	0
611.277	1	2
611.616	1	20
611.955	1	-3
612.295	1	2
612.634	1	8
612.974	1	1
613.313	1	1
613.652	1	7
613.992	1	5
614.331	1	12
614.671	1	5
615.010	1	7
615.349	1	3
615.689	1	-1
616.028	1	17
616.368	1	8
616.707	1	8
617.046	1	-4
617.386	1	7
617.725	1	-4
618.064	1	-2
618.404	1	7
618.743	1	12
619.082	1	10
619.422	1	14
619.761	1	-1
620.100	1	1
620.440	1	6
620.779	1	4
621.118	1	7
621.458	1	-2
621.797	1	0
622.136	1	0
622.476	1	3
622.815	1	2
623.154	1	-10
623.494	1	-8
623.833	1	9
624.172	1	-2
624.511	1	-2
624.851	1	-5
625.190	1	2
625.529	1	0
625.869	1	4
626.208	1	-4
626.547	1	-2
626.886	1	2
627.226	1	3
627.565	1	1
627.904	1	-5
628.243	1	8
628.583	1	4
628.922	1	-2
629.261	1	0
629.600	1	1
629.940	1	0
630.279	1	4
630.618	1	6
630.957	1	0
631.297	1	6
631.636	1	4
631.975	1	1
632.314	1	-10
632.653	1	-2
632.993	1	11
633.332	1	5
633.671	1	8
634.010	1	1
634.349	1	9
634.689	1	-3
635.028	1	0
635.367	1	7
635.706	1	0
636.045	1	-3
636.384	1	7
636.724	1	3
637.063	1	-9
637.402	1	1
637.741	1	3
638.080	1	0
638.419	1	-1
638.759	1	-5
639.098	1	2
639.437	1	-1
639.776	1	7
640.115	1	-2
640.454	1	-2
640.793	1	-1
641.132	1	2
641.472	1	9
641.811	1	-1
642.150	1	-1
642.489	1	7
642.828	1	7
643.167	1	3
643.506	1	5
643.845	1	11
644.184	1	10
644.524	1	-1
644.863	1	-2
645.202	1	-2
645.541	1	-3
645.880	1	6
646.219	1	8
646.558	1	-17
646.897	1	-14
647.236	1	-13
647.575	1	6
647.914	1	-2
648.253	1	14
648.592	1	8
648.931	1	10
649.270	1	12
649.610	1	7
649.949	1	2
650.288	1	6
650.627	1	2
650.966	1	12
651.305	1	-2
651.644	1	10
651.983	1	-8
652.322	1	7
652.661	1	7
653.000	1	1
653.339	1	-3
653.678	1	3
654.017	1	11
654.356	1	-6
654.695	1	15
655.034	1	-1
655.373	1	1
655.712	1	8
656.051	1	-5
656.390	1	-3
656.729	1	7
657.068	1	-5
657.406	1	0
657.745	1	11
658.084	1	5
658.423	1	6
658.762	1	-7
659.101	1	3
659.440	1	6
659.779	1	7
660.118	1	2
660.457	1	2
660.796	1	5
661.135	1	0
661.474	1	3
661.813	1	-4
662.152	1	-3
662.491	1	-5
662.829	1	-1
663.168	1	-3
663.507	1	1
663.846	1	-10
664.185	1	1
664.524	1	10
664.863	1	-5
665.202	1	1
665.541	1	6
665.879	1	-1
666.218	1	-4
666.557	1	3
666.896	1	14
667.235	1	-8
667.574	1	-5
667.913	1	11
668.251	1	-9
668.590	1	-2
668.929	1	-5
669.268	1	-7
669.607	1	-1
669.946	1	1
670.285	1	8
670.623	1	7
670.962	1	-4
671.301	1	4
671.640	1	7
671.979	1	-2
672.317	1	-2
672.656	1	-4
672.995	1	-1
673.334	1	0
673.673	1	14
674.011	1	4
674.350	1	7
674.689	1	0
675.028	1	11
675.367	1	7
675.705	1	-4
676.044	1	-1
676.383	1	-8
676.722	1	1
677.060	1	-1
677.399	1	8
677.738	1	-4
678.077	1	-4
678.416	1	3
678.754	1	4
679.093	1	10
679.432	1	-6
679.771	1	1
680.109	1	3
680.448	1	-7
680.787	1	-12
681.125	1	2
681.464	1	7
681.803	1	-8
682.142	1	-1
682.480	1	-2
682.819	1	-7
683.158	1	-5
683.496	1	3
683.835	1	-1
684.174	1	1
684.512	1	-6
684.851	1	-10
685.190	1	1
685.529	1	1
685.867	1	1
686.206	1	-7
686.545	1	3
686.883	1	10
687.222	1	-3
687.561	1	-2
687.899	1	2
688.238	1	11
688.577	1	3
688.746	1	-9