File: Data/GaN_150K_450ms/GaN_sample D_spot15_UVVIS_150 K_200um_450 ms 2x2mm1_120.txt
340.368	1	12
340.710	1	2
341.052	1	11
341.394	1	-4
341.737	1	9
342.079	1	8
342.421	1	6
342.763	1	8
343.105	1	11
343.447	1	8
343.789	1	8
344.131	1	-10
344.473	1	3
344.815	1	4
345.157	1	16
345.499	1	11
345.841	1	11
346.183	1	8
346.526	1	-1
346.868	1	2
347.210	1	1
347.552	1	25
347.894	1	3
348.236	1	11
348.578	1	9
348.920	1	10
349.262	1	15
349.604	1	8
349.946	1	-3
350.288	1	-2
350.630	1	1
350.972	1	15
351.314	1	7
351.656	1	12
351.998	1	0
352.340	1	17
352.682	1	-9
353.024	1	20
353.366	1	10
353.708	1	3
354.050	1	-2
354.392	1	4
354.734	1	16
355.076	1	22
355.418	1	14
355.760	1	6
356.102	1	8
356.444	1	14
356.785	1	15
357.127	1	9
357.469	1	10
357.811	1	10
358.153	1	0
358.495	1	8
358.837	1	24
359.179	1	15
359.521	1	22
359.863	1	12
360.205	1	26
360.547	1	18
360.889	1	12
361.231	1	21
361.572	1	23
361.914	1	26
362.256	1	25
362.598	1	21
362.940	1	32
363.282	1	21
363.624	1	38
363.966	1	30
364.308	1	34
364.649	1	36
364.991	1	47
365.333	1	43
365.675	1	57
366.017	1	53
366.359	1	56
366.701	1	58
367.042	1	65
367.384	1	49
367.726	1	60
368.068	1	66
368.410	1	66
368.752	1	72
369.093	1	62
369.435	1	63
369.777	1	72
370.119	1	56
370.461	1	55
370.803	1	53
371.144	1	48
371.486	1	49
371.828	1	48
372.170	1	46
372.512	1	44
372.853	1	47
373.195	1	30
373.537	1	35
373.879	1	47
374.220	1	36
374.562	1	41
374.904	1	28
375.246	1	25
375.588	1	25
375.929	1	29
376.271	1	24
376.613	1	28
376.955	1	25
377.296	1	29
377.638	1	26
377.980	1	15
378.321	1	25
378.663	1	16
379.005	1	30
379.347	1	20
379.688	1	24
380.030	1	20
380.372	1	21
380.714	1	15
381.055	1	13
381.397	1	5
381.739	1	2
382.080	1	21
382.422	1	18
382.764	1	16
383.105	1	-2
383.447	1	17
383.789	1	4
384.130	1	18
384.472	1	10
384.814	1	11
385.156	1	16
385.497	1	24
385.839	1	8
386.180	1	8
386.522	1	11
386.864	1	8
387.205	1	13
387.547	1	15
387.889	1	7
388.230	1	5
388.572	1	6
388.914	1	13
389.255	1	10
389.597	1	7
389.939	1	16
390.280	1	9
390.622	1	1
390.963	1	-7
391.305	1	9
391.647	1	8
391.988	1	9
392.330	1	8
392.671	1	8
393.013	1	4
393.355	1	11
393.696	1	6
394.038	1	16
394.379	1	14
394.721	1	2
395.062	1	-3
395.404	1	9
395.746	1	5
396.087	1	14
396.429	1	20
396.770	1	16
397.112	1	5
397.453	1	11
397.795	1	7
398.136	1	10
398.478	1	14
398.819	1	10
399.161	1	15
399.503	1	18
399.844	1	4
400.186	1	13
400.527	1	6
400.869	1	7
401.210	1	18
401.552	1	5
401.893	1	13
402.235	1	19
402.576	1	4
402.918	1	6
403.259	1	10
403.601	1	15
403.942	1	7
404.284	1	17
404.625	1	10
404.967	1	9
405.308	1	-2
405.649	1	6
405.991	1	15
406.332	1	0
406.674	1	22
407.015	1	14
407.357	1	9
407.698	1	19
408.040	1	21
408.381	1	3
408.722	1	17
409.064	1	18
409.405	1	9
409.747	1	14
410.088	1	10
410.430	1	13
410.771	1	11
411.112	1	7
411.454	1	10
411.795	1	3
412.137	1	7
412.478	1	7
412.819	1	19
413.161	1	16
413.502	1	16
413.844	1	15
414.185	1	9
414.526	1	7
414.868	1	11
415.209	1	11
415.550	1	9
415.892	1	18
416.233	1	13
416.575	1	9
416.916	1	14
417.257	1	10
417.599	1	20
417.940	1	5
418.281	1	17
418.623	1	13
418.964	1	19
419.305	1	5
419.647	1	9
419.988	1	14
420.329	1	16
420.671	1	14
421.012	1	6
421.353	1	14
421.695	1	19
422.036	1	23
422.377	1	18
422.718	1	13
423.060	1	21
423.401	1	2
423.742	1	12
424.084	1	19
424.425	1	17
424.766	1	12
425.107	1	9
425.449	1	16
425.790	1	9
426.131	1	3
426.472	1	16
426.814	1	15
427.155	1	14
427.496	1	14
427.837	1	14
428.179	1	16
428.520	1	17
428.861	1	19
429.202	1	7
429.544	1	13
429.885	1	22
430.226	1	-3
430.567	1	4
430.909	1	11
431.250	1	20
431.591	1	9
431.932	1	14
432.273	1	14
432.615	1	14
432.956	1	14
433.297	1	14
433.638	1	18
433.979	1	14
434.320	1	8
434.662	1	16
435.003	1	16
435.344	1	13
435.685	1	1
436.026	1	8
436.368	1	6
436.709	1	-2
437.050	1	5
437.391	1	3
437.732	1	13
438.073	1	3
438.414	1	18
438.756	1	12
439.097	1	7
439.438	1	16
439.779	1	16
440.120	1	5
440.461	1	12
440.802	1	10
441.143	1	17
441.485	1	6
441.826	1	11
442.167	1	13
442.508	1	13
442.849	1	11
443.190	1	7
443.531	1	6
443.872	1	7
444.213	1	3
444.554	1	18
444.895	1	6
445.237	1	12
445.578	1	4
445.919	1	12
446.260	1	18
446.601	1	7
446.942	1	4
447.283	1	20
447.624	1	-1
447.965	1	15
448.306	1	7
448.647	1	4
448.988	1	4
449.329	1	5
449.670	1	7
450.011	1	7
450.352	1	6
450.693	1	15
451.034	1	0
451.375	1	14
451.716	1	3
452.057	1	6
452.398	1	6
452.739	1	4
453.080	1	13
453.421	1	11
453.762	1	16
454.103	1	15
454.444	1	5
454.785	1	2
455.126	1	17
455.467	1	11
455.808	1	6
456.149	1	7
456.490	1	0
456.831	1	-1
457.172	1	20
457.513	1	5
457.854	1	17
458.195	1	6
458.536	1	7
458.877	1	12
459.218	1	15
459.559	1	7
459.899	1	6
460.240	1	6
460.581	1	-3
460.922	1	5
461.263	1	10
461.604	1	12
461.945	1	10
462.286	1	5
462.627	1	6
462.968	1	23
463.309	1	6
463.649	1	4
463.990	1	2
464.331	1	16
464.672	1	-2
465.013	1	15
465.354	1	22
465.695	1	6
466.036	1	19
466.376	1	17
466.717	1	-1
467.058	1	4
467.399	1	-1
467.740	1	11
468.081	1	11
468.422	1	5
468.762	1	6
469.103	1	13
469.444	1	6
469.785	1	1
470.126	1	9
470.467	1	7
470.807	1	8
471.148	1	-3
471.489	1	13
471.830	1	9
472.171	1	15
472.511	1	7
472.852	1	17
473.193	1	10
473.534	1	6
473.875	1	6
474.215	1	9
474.556	1	6
474.897	1	-2
475.238	1	15
475.578	1	3
475.919	1	3
476.260	1	2
476.601	1	11
476.942	1	7
477.282	1	-4
477.623	1	7
477.964	1	11
478.305	1	5
478.645	1	6
478.986	1	7
479.327	1	3
479.667	1	-2
480.008	1	4
480.349	1	7
480.690	1	15
481.030	1	3
481.371	1	0
481.712	1	21
482.053	1	8
482.393	1	8
482.734	1	12
483.075	1	15
483.415	1	10
483.756	1	12
484.097	1	8
484.437	1	13
484.778	1	-3
485.119	1	1
485.459	1	9
485.800	1	7
486.141	1	4
486.481	1	-1
486.822	1	13
487.163	1	-9
487.503	1	12
487.844	1	-1
488.185	1	4
488.525	1	8
488.866	1	4
489.207	1	8
489.547	1	12
489.888	1	3
490.228	1	4
490.569	1	0
490.910	1	12
491.250	1	9
491.591	1	4
491.932	1	13
492.272	1	4
492.613	1	6
492.953	1	13
493.294	1	-3
493.635	1	10
493.975	1	18
494.316	1	1
494.656	1	14
494.997	1	-6
495.337	1	2
495.678	1	-4
496.019	1	2
496.359	1	7
496.700	1	3
497.040	1	0
497.381	1	4
497.721	1	-3
498.062	1	12
498.403	1	9
498.743	1	9
499.084	1	13
499.424	1	2
499.765	1	9
500.105	1	15
500.446	1	6
500.786	1	-1
501.127	1	16
501.467	1	16
501.808	1	13
502.148	1	4
502.489	1	14
502.829	1	2
503.170	1	13
503.510	1	16
503.851	1	1
504.191	1	9
504.532	1	19
504.872	1	6
505.213	1	8
505.553	1	14
505.894	1	10
506.234	1	21
506.575	1	26
506.915	1	12
507.256	1	17
507.596	1	14
507.936	1	21
508.277	1	13
508.617	1	14
508.958	1	19
509.298	1	7
509.639	1	7
509.979	1	5
510.319	1	14
510.660	1	4
511.000	1	17
511.341	1	25
511.681	1	28
512.022	1	5
512.362	1	17
512.702	1	3
513.043	1	21
513.383	1	16
513.724	1	17
514.064	1	18
514.404	1	20
514.745	1	20
515.085	1	12
515.425	1	14
515.766	1	13
516.106	1	5
516.447	1	17
516.787	1	11
517.127	1	36
517.468	1	21
517.808	1	17
518.148	1	19
518.489	1	10
518.829	1	21
519.169	1	14
519.510	1	6
519.850	1	12
520.190	1	20
520.531	1	19
520.871	1	27
521.211	1	18
521.552	1	11
521.892	1	14
522.232	1	11
522.573	1	19
522.913	1	23
523.253	1	19
523.593	1	22
523.934	1	22
524.274	1	11
524.614	1	18
524.955	1	9
525.295	1	15
525.635	1	15
525.975	1	10
526.316	1	28
526.656	1	19
526.996	1	10
527.337	1	22
527.677	1	33
528.017	1	12
528.357	1	15
528.698	1	21
529.038	1	19
529.378	1	16
529.718	1	8
530.058	1	16
530.399	1	9
530.739	1	27
531.079	1	15
531.419	1	22
531.760	1	21
532.100	1	23
532.440	1	21
532.780	1	19
533.120	1	25
533.461	1	17
533.801	1	13
534.141	1	4
534.481	1	32
534.821	1	15
535.162	1	18
535.502	1	19
535.842	1	8
536.182	1	18
536.522	1	8
536.862	1	14
537.203	1	20
537.543	1	18
537.883	1	10
538.223	1	26
538.563	1	7
538.903	1	16
539.243	1	10
539.584	1	14
539.924	1	10
540.264	1	24
540.604	1	14
540.944	1	24
541.284	1	19
541.624	1	16
541.964	1	9
542.305	1	16
542.645	1	13
542.985	1	17
543.325	1	17
543.665	1	8
544.005	1	7
544.345	1	16
544.685	1	12
545.025	1	32
545.365	1	23
545.705	1	14
546.045	1	28
546.386	1	14
546.726	1	16
547.066	1	10
547.406	1	5
547.746	1	12
548.086	1	25
548.426	1	6
548.766	1	17
549.106	1	2
549.446	1	9
549.786	1	15
550.126	1	12
550.466	1	5
550.806	1	22
551.146	1	20
551.486	1	16
551.826	1	8
552.166	1	11
552.506	1	16
552.846	1	12
553.186	1	3
553.526	1	17
553.866	1	6
554.206	1	9
554.546	1	18
554.886	1	12
555.226	1	18
555.566	1	20
555.906	1	2
556.246	1	8
556.586	1	3
556.926	1	12
557.266	1	15
557.606	1	-3
557.946	1	18
558.286	1	4
558.626	1	10
558.966	1	17
559.306	1	11
559.646	1	23
559.986	1	13
560.325	1	8
560.665	1	4
561.005	1	16
561.345	1	6
561.685	1	10
562.025	1	12
562.365	1	6
562.705	1	20
563.045	1	21
563.385	1	18
563.725	1	13
564.064	1	-5
564.404	1	12
564.744	1	15
565.084	1	19
565.424	1	-4
565.764	1	11
566.104	1	12
566.444	1	11
566.783	1	17
567.123	1	5
567.463	1	16
567.803	1	12
568.143	1	8
568.483	1	20
568.823	1	21
569.162	1	7
569.502	1	10
569.842	1	10
570.182	1	14
570.522	1	-4
570.862	1	-5
571.201	1	18
571.541	1	6
571.881	1	5
572.221	1	5
572.561	1	6
572.900	1	15
573.240	1	9
573.580	1	11
573.920	1	14
574.260	1	9
574.599	1	7
574.939	1	14
575.279	1	2
575.619	1	3
575.959	1	3
576.298	1	6
576.638	1	16
576.978	1	11
577.318	1	14
577.657	1	0
577.997	1	27
578.337	1	7
578.677	1	11
579.016	1	5
579.356	1	11
579.696	1	15
580.036	1	11
580.375	1	8
580.715	1	2
581.055	1	3
581.394	1	17
581.734	1	8
582.074	1	-1
582.414	1	1
582.753	1	-3
583.093	1	7
583.433	1	9
583.772	1	16
584.112	1	9
584.452	1	3
584.791	1	10
585.131	1	9
585.471	1	16
585.811	1	8
586.150	1	11
586.490	1	2
586.830	1	5
587.169	1	-2
587.509	1	11
587.849	1	13
588.188	1	6
588.528	1	14
588.867	1	5
589.207	1	12
589.547	1	8
589.886	1	14
590.226	1	8
590.566	1	10
590.905	1	9
591.245	1	0
591.585	1	-5
591.924	1	1
592.264	1	6
592.603	1	-3
592.943	1	9
593.283	1	7
593.622	1	9
593.962	1	15
594.301	1	12
594.641	1	10
594.981	1	2
595.320	1	7
595.660	1	16
595.999	1	19
596.339	1	-1
596.678	1	-6
597.018	1	1
597.358	1	9
597.697	1	-3
598.037	1	2
598.376	1	2
598.716	1	11
599.055	1	11
599.395	1	4
599.734	1	6
600.074	1	6
600.413	1	7
600.753	1	11
601.092	1	-1
601.432	1	0
601.771	1	10
602.111	1	0
602.451	1	3
602.790	1	2
603.130	1	12
603.469	1	4
603.809	1	7
604.148	1	5
604.487	1	6
604.827	1	10
605.166	1	5
605.506	1	4
605.845	1	11
606.185	1	4
606.524	1	-4
606.864	1	17
607.203	1	12
607.543	1	11
607.882	1	16
608.222	1	8
608.561	1	6
608.901	1	12
609.240	1	11
609.579	1	-3
609.919	1	-11
610.258	1	11
610.598	1	-3
610.937	1	5
611.277	1	6
611.616	1	16
611.955	1	-5
612.295	1	9
612.634	1	11
612.974	1	4
613.313	1	9
613.652	1	9
613.992	1	5
614.331	1	23
614.671	1	11
615.010	1	6
615.349	1	4
615.689	1	0
616.028	1	20
616.368	1	7
616.707	1	12
617.046	1	4
617.386	1	12
617.725	1	1
618.064	1	-6
618.404	1	-7
618.743	1	8
619.082	1	16
619.422	1	22
619.761	1	10
620.100	1	7
620.440	1	6
620.779	1	10
621.118	1	19
621.458	1	-1
621.797	1	9
622.136	1	-2
622.476	1	12
622.815	1	9
623.154	1	-7
623.494	1	-9
623.833	1	3
624.172	1	9
624.511	1	-1
624.851	1	5
625.190	1	1
625.529	1	-2
625.869	1	11
626.208	1	-2
626.547	1	5
626.886	1	5
627.226	1	5
627.565	1	16
627.904	1	1
628.243	1	14
628.583	1	7
628.922	1	7
629.261	1	2
629.600	1	6
629.940	1	14
630.279	1	7
630.618	1	5
630.957	1	8
631.297	1	3
631.636	1	2
631.975	1	8
632.314	1	9
632.653	1	-3
632.993	1	0
633.332	1	11
633.671	1	16
634.010	1	-1
634.349	1	9
634.689	1	7
635.028	1	5
635.367	1	13
635.706	1	1
636.045	1	0
636.384	1	9
636.724	1	9
637.063	1	-6
637.402	1	6
637.741	1	8
638.080	1	5
638.419	1	9
638.759	1	5
639.098	1	4
639.437	1	3
639.776	1	8
640.115	1	-4
640.454	1	-10
640.793	1	6
641.132	1	12
641.472	1	17
641.811	1	7
642.150	1	-4
642.489	1	11
642.828	1	17
643.167	1	4
643.506	1	5
643.845	1	13
644.184	1	8
644.524	1	4
644.863	1	5
645.202	1	3
645.541	1	8
645.880	1	5
646.219	1	6
646.558	1	-3
646.897	1	-3
647.236	1	-7
647.575	1	9
647.914	1	5
648.253	1	11
648.592	1	8
648.931	1	9
649.270	1	14
649.610	1	16
649.949	1	3
650.288	1	10
650.627	1	2
650.966	1	0
651.305	1	8
651.644	1	17
651.983	1	-2
652.322	1	6
652.661	1	12
653.000	1	10
653.339	1	4
653.678	1	18
654.017	1	12
654.356	1	3
654.695	1	4
655.034	1	1
655.373	1	9
655.712	1	5
656.051	1	-1
656.390	1	9
656.729	1	8
657.068	1	0
657.406	1	2
657.745	1	6
658.084	1	6
658.423	1	12
658.762	1	-2
659.101	1	3
659.440	1	6
659.779	1	16
660.118	1	-2
660.457	1	17
660.796	1	8
661.135	1	9
661.474	1	3
661.813	1	4
662.152	1	8
662.491	1	-2
662.829	1	10
663.168	1	5
663.507	1	14
663.846	1	-2
664.185	1	-1
664.524	1	11
664.863	1	-10
665.202	1	2
665.541	1	0
665.879	1	4
666.218	1	9
666.557	1	1
666.896	1	14
667.235	1	0
667.574	1	4
667.913	1	6
668.251	1	-4
668.590	1	8
668.929	1	1
669.268	1	-1
669.607	1	-5
669.946	1	4
670.285	1	3
670.623	1	1
670.962	1	3
671.301	1	12
671.640	1	13
671.979	1	0
672.317	1	8
672.656	1	8
672.995	1	7
673.334	1	7
673.673	1	16
674.011	1	10
674.350	1	9
674.689	1	1
675.028	1	-2
675.367	1	15
675.705	1	-8
676.044	1	0
676.383	1	5
676.722	1	1
677.060	1	7
677.399	1	23
677.738	1	-2
678.077	1	-7
678.416	1	-5
678.754	1	-3
679.093	1	12
679.432	1	-2
679.771	1	3
680.109	1	4
680.448	1	9
680.787	1	-5
681.125	1	7
681.464	1	3
681.803	1	3
682.142	1	1
682.480	1	0
682.819	1	11
683.158	1	4
683.496	1	0
683.835	1	9
684.174	1	7
684.512	1	-3
684.851	1	4
685.190	1	5
685.529	1	9
685.867	1	3
686.206	1	1
686.545	1	-1
686.883	1	11
687.222	1	7
687.561	1	4
687.899	1	3
688.238	1	8
688.577	1	3
688.746	1	7