File: Data/GaN_150K_450ms/GaN_sample D_spot15_UVVIS_150 K_200um_450 ms 2x2mm1_74.txt
340.368	1	-2
340.710	1	4
341.052	1	5
341.394	1	4
341.737	1	19
342.079	1	5
342.421	1	-5
342.763	1	7
343.105	1	-2
343.447	1	7
343.789	1	-3
344.131	1	-5
344.473	1	11
344.815	1	-1
345.157	1	16
345.499	1	9
345.841	1	10
346.183	1	10
346.526	1	9
346.868	1	7
347.210	1	3
347.552	1	18
347.894	1	0
348.236	1	21
348.578	1	10
348.920	1	11
349.262	1	5
349.604	1	-2
349.946	1	4
350.288	1	0
350.630	1	-2
350.972	1	17
351.314	1	8
351.656	1	15
351.998	1	8
352.340	1	13
352.682	1	0
353.024	1	17
353.366	1	18
353.708	1	11
354.050	1	1
354.392	1	5
354.734	1	16
355.076	1	17
355.418	1	9
355.760	1	15
356.102	1	15
356.444	1	17
356.785	1	17
357.127	1	28
357.469	1	20
357.811	1	10
358.153	1	-1
358.495	1	14
358.837	1	28
359.179	1	24
359.521	1	36
359.863	1	19
360.205	1	34
360.547	1	41
360.889	1	40
361.231	1	44
361.572	1	47
361.914	1	45
362.256	1	67
362.598	1	73
362.940	1	83
363.282	1	79
363.624	1	79
363.966	1	95
364.308	1	114
364.649	1	109
364.991	1	132
365.333	1	130
365.675	1	161
366.017	1	164
366.359	1	171
366.701	1	169
367.042	1	209
367.384	1	186
367.726	1	209
368.068	1	216
368.410	1	216
368.752	1	229
369.093	1	207
369.435	1	199
369.777	1	206
370.119	1	204
370.461	1	159
370.803	1	155
371.144	1	154
371.486	1	145
371.828	1	138
372.170	1	114
372.512	1	123
372.853	1	132
373.195	1	120
373.537	1	94
373.879	1	92
374.220	1	94
374.562	1	103
374.904	1	82
375.246	1	90
375.588	1	77
375.929	1	75
376.271	1	71
376.613	1	78
376.955	1	66
377.296	1	74
377.638	1	53
377.980	1	55
378.321	1	62
378.663	1	58
379.005	1	53
379.347	1	50
379.688	1	51
380.030	1	59
380.372	1	51
380.714	1	43
381.055	1	34
381.397	1	38
381.739	1	24
382.080	1	35
382.422	1	42
382.764	1	30
383.105	1	29
383.447	1	42
383.789	1	27
384.130	1	35
384.472	1	32
384.814	1	33
385.156	1	35
385.497	1	35
385.839	1	33
386.180	1	29
386.522	1	30
386.864	1	28
387.205	1	33
387.547	1	31
387.889	1	14
388.230	1	32
388.572	1	15
388.914	1	35
389.255	1	29
389.597	1	16
389.939	1	31
390.280	1	25
390.622	1	27
390.963	1	15
391.305	1	18
391.647	1	22
391.988	1	16
392.330	1	9
392.671	1	23
393.013	1	28
393.355	1	24
393.696	1	21
394.038	1	21
394.379	1	16
394.721	1	13
395.062	1	17
395.404	1	35
395.746	1	7
396.087	1	23
396.429	1	13
396.770	1	23
397.112	1	16
397.453	1	17
397.795	1	15
398.136	1	21
398.478	1	24
398.819	1	14
399.161	1	19
399.503	1	29
399.844	1	12
400.186	1	20
400.527	1	19
400.869	1	14
401.210	1	29
401.552	1	22
401.893	1	21
402.235	1	20
402.576	1	22
402.918	1	17
403.259	1	20
403.601	1	16
403.942	1	16
404.284	1	23
404.625	1	7
404.967	1	15
405.308	1	-2
405.649	1	22
405.991	1	15
406.332	1	13
406.674	1	19
407.015	1	13
407.357	1	12
407.698	1	18
408.040	1	29
408.381	1	4
408.722	1	21
409.064	1	13
409.405	1	9
409.747	1	6
410.088	1	22
410.430	1	20
410.771	1	21
411.112	1	15
411.454	1	14
411.795	1	20
412.137	1	13
412.478	1	14
412.819	1	6
413.161	1	20
413.502	1	21
413.844	1	22
414.185	1	10
414.526	1	11
414.868	1	9
415.209	1	20
415.550	1	16
415.892	1	17
416.233	1	9
416.575	1	10
416.916	1	10
417.257	1	17
417.599	1	18
417.940	1	18
418.281	1	16
418.623	1	20
418.964	1	24
419.305	1	24
419.647	1	27
419.988	1	28
420.329	1	14
420.671	1	21
421.012	1	21
421.353	1	23
421.695	1	19
422.036	1	20
422.377	1	12
422.718	1	25
423.060	1	22
423.401	1	15
423.742	1	18
424.084	1	19
424.425	1	20
424.766	1	19
425.107	1	10
425.449	1	14
425.790	1	15
426.131	1	9
426.472	1	26
426.814	1	13
427.155	1	11
427.496	1	20
427.837	1	7
428.179	1	32
428.520	1	13
428.861	1	10
429.202	1	17
429.544	1	9
429.885	1	23
430.226	1	10
430.567	1	12
430.909	1	14
431.250	1	17
431.591	1	15
431.932	1	7
432.273	1	19
432.615	1	8
432.956	1	14
433.297	1	12
433.638	1	22
433.979	1	16
434.320	1	20
434.662	1	7
435.003	1	23
435.344	1	12
435.685	1	7
436.026	1	10
436.368	1	10
436.709	1	5
437.050	1	14
437.391	1	9
437.732	1	18
438.073	1	10
438.414	1	15
438.756	1	11
439.097	1	14
439.438	1	12
439.779	1	14
440.120	1	13
440.461	1	16
440.802	1	20
441.143	1	10
441.485	1	6
441.826	1	19
442.167	1	11
442.508	1	13
442.849	1	18
443.190	1	20
443.531	1	20
443.872	1	-1
444.213	1	-5
444.554	1	12
444.895	1	9
445.237	1	12
445.578	1	8
445.919	1	9
446.260	1	26
446.601	1	20
446.942	1	5
447.283	1	19
447.624	1	2
447.965	1	13
448.306	1	17
448.647	1	6
448.988	1	14
449.329	1	10
449.670	1	11
450.011	1	8
450.352	1	14
450.693	1	11
451.034	1	11
451.375	1	6
451.716	1	15
452.057	1	8
452.398	1	22
452.739	1	14
453.080	1	18
453.421	1	17
453.762	1	13
454.103	1	11
454.444	1	16
454.785	1	17
455.126	1	3
455.467	1	12
455.808	1	15
456.149	1	8
456.490	1	4
456.831	1	11
457.172	1	12
457.513	1	3
457.854	1	4
458.195	1	9
458.536	1	18
458.877	1	15
459.218	1	16
459.559	1	6
459.899	1	7
460.240	1	3
460.581	1	8
460.922	1	6
461.263	1	20
461.604	1	5
461.945	1	18
462.286	1	5
462.627	1	8
462.968	1	15
463.309	1	7
463.649	1	6
463.990	1	10
464.331	1	13
464.672	1	11
465.013	1	10
465.354	1	22
465.695	1	12
466.036	1	7
466.376	1	18
466.717	1	-1
467.058	1	16
467.399	1	4
467.740	1	14
468.081	1	6
468.422	1	10
468.762	1	11
469.103	1	8
469.444	1	18
469.785	1	0
470.126	1	8
470.467	1	8
470.807	1	17
471.148	1	2
471.489	1	15
471.830	1	7
472.171	1	24
472.511	1	6
472.852	1	20
473.193	1	5
473.534	1	12
473.875	1	3
474.215	1	14
474.556	1	-2
474.897	1	5
475.238	1	14
475.578	1	10
475.919	1	-1
476.260	1	4
476.601	1	2
476.942	1	11
477.282	1	4
477.623	1	9
477.964	1	10
478.305	1	11
478.645	1	10
478.986	1	20
479.327	1	15
479.667	1	13
480.008	1	12
480.349	1	7
480.690	1	29
481.030	1	8
481.371	1	9
481.712	1	25
482.053	1	13
482.393	1	8
482.734	1	15
483.075	1	4
483.415	1	14
483.756	1	13
484.097	1	15
484.437	1	23
484.778	1	10
485.119	1	23
485.459	1	10
485.800	1	9
486.141	1	19
486.481	1	3
486.822	1	19
487.163	1	5
487.503	1	20
487.844	1	5
488.185	1	17
488.525	1	15
488.866	1	9
489.207	1	16
489.547	1	20
489.888	1	25
490.228	1	23
490.569	1	9
490.910	1	24
491.250	1	18
491.591	1	18
491.932	1	36
492.272	1	8
492.613	1	17
492.953	1	30
493.294	1	2
493.635	1	18
493.975	1	24
494.316	1	16
494.656	1	24
494.997	1	9
495.337	1	20
495.678	1	24
496.019	1	16
496.359	1	19
496.700	1	21
497.040	1	17
497.381	1	29
497.721	1	14
498.062	1	28
498.403	1	36
498.743	1	26
499.084	1	24
499.424	1	29
499.765	1	26
500.105	1	29
500.446	1	24
500.786	1	22
501.127	1	27
501.467	1	39
501.808	1	30
502.148	1	20
502.489	1	28
502.829	1	29
503.170	1	36
503.510	1	32
503.851	1	36
504.191	1	29
504.532	1	47
504.872	1	36
505.213	1	28
505.553	1	33
505.894	1	38
506.234	1	45
506.575	1	48
506.915	1	34
507.256	1	34
507.596	1	51
507.936	1	46
508.277	1	43
508.617	1	37
508.958	1	48
509.298	1	31
509.639	1	35
509.979	1	43
510.319	1	43
510.660	1	29
511.000	1	42
511.341	1	56
511.681	1	53
512.022	1	30
512.362	1	49
512.702	1	27
513.043	1	53
513.383	1	35
513.724	1	44
514.064	1	39
514.404	1	57
514.745	1	41
515.085	1	41
515.425	1	50
515.766	1	41
516.106	1	46
516.447	1	48
516.787	1	43
517.127	1	53
517.468	1	51
517.808	1	40
518.148	1	49
518.489	1	45
518.829	1	46
519.169	1	51
519.510	1	35
519.850	1	45
520.190	1	42
520.531	1	51
520.871	1	54
521.211	1	48
521.552	1	46
521.892	1	55
522.232	1	47
522.573	1	46
522.913	1	50
523.253	1	61
523.593	1	57
523.934	1	50
524.274	1	59
524.614	1	68
524.955	1	45
525.295	1	68
525.635	1	60
525.975	1	49
526.316	1	45
526.656	1	52
526.996	1	57
527.337	1	56
527.677	1	62
528.017	1	60
528.357	1	60
528.698	1	52
529.038	1	50
529.378	1	64
529.718	1	60
530.058	1	53
530.399	1	60
530.739	1	65
531.079	1	49
531.419	1	63
531.760	1	61
532.100	1	65
532.440	1	56
532.780	1	59
533.120	1	54
533.461	1	45
533.801	1	57
534.141	1	48
534.481	1	64
534.821	1	56
535.162	1	56
535.502	1	52
535.842	1	46
536.182	1	40
536.522	1	44
536.862	1	42
537.203	1	57
537.543	1	65
537.883	1	48
538.223	1	61
538.563	1	41
538.903	1	46
539.243	1	45
539.584	1	45
539.924	1	37
540.264	1	60
540.604	1	57
540.944	1	42
541.284	1	45
541.624	1	48
541.964	1	47
542.305	1	45
542.645	1	45
542.985	1	36
543.325	1	58
543.665	1	41
544.005	1	43
544.345	1	55
544.685	1	44
545.025	1	45
545.365	1	51
545.705	1	45
546.045	1	55
546.386	1	42
546.726	1	59
547.066	1	47
547.406	1	40
547.746	1	43
548.086	1	52
548.426	1	40
548.766	1	50
549.106	1	39
549.446	1	56
549.786	1	49
550.126	1	42
550.466	1	46
550.806	1	52
551.146	1	54
551.486	1	45
551.826	1	38
552.166	1	40
552.506	1	44
552.846	1	45
553.186	1	32
553.526	1	38
553.866	1	38
554.206	1	48
554.546	1	52
554.886	1	37
555.226	1	34
555.566	1	40
555.906	1	36
556.246	1	38
556.586	1	40
556.926	1	39
557.266	1	50
557.606	1	25
557.946	1	42
558.286	1	24
558.626	1	40
558.966	1	33
559.306	1	39
559.646	1	44
559.986	1	41
560.325	1	42
560.665	1	38
561.005	1	29
561.345	1	33
561.685	1	31
562.025	1	35
562.365	1	35
562.705	1	34
563.045	1	29
563.385	1	38
563.725	1	31
564.064	1	30
564.404	1	21
564.744	1	37
565.084	1	35
565.424	1	35
565.764	1	35
566.104	1	43
566.444	1	42
566.783	1	34
567.123	1	33
567.463	1	37
567.803	1	36
568.143	1	31
568.483	1	40
568.823	1	27
569.162	1	28
569.502	1	24
569.842	1	28
570.182	1	18
570.522	1	13
570.862	1	6
571.201	1	32
571.541	1	30
571.881	1	23
572.221	1	28
572.561	1	35
572.900	1	39
573.240	1	21
573.580	1	26
573.920	1	37
574.260	1	26
574.599	1	21
574.939	1	31
575.279	1	26
575.619	1	28
575.959	1	20
576.298	1	20
576.638	1	32
576.978	1	24
577.318	1	19
577.657	1	17
577.997	1	24
578.337	1	28
578.677	1	22
579.016	1	12
579.356	1	22
579.696	1	20
580.036	1	19
580.375	1	21
580.715	1	17
581.055	1	21
581.394	1	15
581.734	1	29
582.074	1	19
582.414	1	19
582.753	1	31
583.093	1	21
583.433	1	35
583.772	1	25
584.112	1	14
584.452	1	23
584.791	1	23
585.131	1	21
585.471	1	19
585.811	1	20
586.150	1	21
586.490	1	16
586.830	1	17
587.169	1	16
587.509	1	18
587.849	1	27
588.188	1	16
588.528	1	7
588.867	1	21
589.207	1	22
589.547	1	11
589.886	1	17
590.226	1	9
590.566	1	20
590.905	1	12
591.245	1	0
591.585	1	16
591.924	1	6
592.264	1	17
592.603	1	-7
592.943	1	8
593.283	1	17
593.622	1	22
593.962	1	20
594.301	1	16
594.641	1	19
594.981	1	22
595.320	1	11
595.660	1	17
595.999	1	21
596.339	1	21
596.678	1	5
597.018	1	9
597.358	1	17
597.697	1	4
598.037	1	8
598.376	1	4
598.716	1	13
599.055	1	20
599.395	1	13
599.734	1	17
600.074	1	15
600.413	1	12
600.753	1	16
601.092	1	3
601.432	1	0
601.771	1	13
602.111	1	8
602.451	1	12
602.790	1	20
603.130	1	13
603.469	1	13
603.809	1	8
604.148	1	11
604.487	1	21
604.827	1	14
605.166	1	19
605.506	1	13
605.845	1	14
606.185	1	6
606.524	1	7
606.864	1	23
607.203	1	15
607.543	1	10
607.882	1	25
608.222	1	19
608.561	1	17
608.901	1	12
609.240	1	4
609.579	1	3
609.919	1	6
610.258	1	23
610.598	1	11
610.937	1	13
611.277	1	15
611.616	1	16
611.955	1	9
612.295	1	7
612.634	1	11
612.974	1	6
613.313	1	11
613.652	1	16
613.992	1	4
614.331	1	22
614.671	1	9
615.010	1	12
615.349	1	14
615.689	1	3
616.028	1	27
616.368	1	21
616.707	1	2
617.046	1	14
617.386	1	12
617.725	1	6
618.064	1	7
618.404	1	3
618.743	1	7
619.082	1	27
619.422	1	22
619.761	1	-4
620.100	1	13
620.440	1	22
620.779	1	11
621.118	1	21
621.458	1	10
621.797	1	14
622.136	1	3
622.476	1	5
622.815	1	14
623.154	1	-3
623.494	1	-3
623.833	1	4
624.172	1	13
624.511	1	1
624.851	1	7
625.190	1	2
625.529	1	2
625.869	1	11
626.208	1	3
626.547	1	6
626.886	1	16
627.226	1	13
627.565	1	14
627.904	1	1
628.243	1	24
628.583	1	20
628.922	1	9
629.261	1	13
629.600	1	14
629.940	1	10
630.279	1	19
630.618	1	10
630.957	1	13
631.297	1	9
631.636	1	6
631.975	1	8
632.314	1	10
632.653	1	6
632.993	1	14
633.332	1	4
633.671	1	12
634.010	1	12
634.349	1	24
634.689	1	6
635.028	1	3
635.367	1	22
635.706	1	8
636.045	1	8
636.384	1	13
636.724	1	6
637.063	1	5
637.402	1	14
637.741	1	4
638.080	1	10
638.419	1	0
638.759	1	16
639.098	1	8
639.437	1	10
639.776	1	6
640.115	1	-1
640.454	1	0
640.793	1	7
641.132	1	18
641.472	1	17
641.811	1	7
642.150	1	17
642.489	1	12
642.828	1	30
643.167	1	10
643.506	1	8
643.845	1	15
644.184	1	8
644.524	1	6
644.863	1	7
645.202	1	12
645.541	1	5
645.880	1	14
646.219	1	20
646.558	1	-12
646.897	1	1
647.236	1	-1
647.575	1	9
647.914	1	7
648.253	1	16
648.592	1	20
648.931	1	18
649.270	1	17
649.610	1	11
649.949	1	10
650.288	1	9
650.627	1	13
650.966	1	6
651.305	1	14
651.644	1	17
651.983	1	5
652.322	1	9
652.661	1	13
653.000	1	-1
653.339	1	9
653.678	1	9
654.017	1	15
654.356	1	15
654.695	1	18
655.034	1	10
655.373	1	8
655.712	1	12
656.051	1	3
656.390	1	6
656.729	1	11
657.068	1	4
657.406	1	6
657.745	1	21
658.084	1	6
658.423	1	10
658.762	1	4
659.101	1	11
659.440	1	17
659.779	1	10
660.118	1	6
660.457	1	4
660.796	1	21
661.135	1	6
661.474	1	17
661.813	1	10
662.152	1	4
662.491	1	3
662.829	1	13
663.168	1	7
663.507	1	4
663.846	1	6
664.185	1	9
664.524	1	20
664.863	1	-9
665.202	1	6
665.541	1	7
665.879	1	11
666.218	1	8
666.557	1	11
666.896	1	0
667.235	1	3
667.574	1	11
667.913	1	14
668.251	1	0
668.590	1	-1
668.929	1	-1
669.268	1	10
669.607	1	-9
669.946	1	12
670.285	1	9
670.623	1	12
670.962	1	2
671.301	1	8
671.640	1	13
671.979	1	5
672.317	1	10
672.656	1	15
672.995	1	6
673.334	1	7
673.673	1	9
674.011	1	23
674.350	1	9
674.689	1	-5
675.028	1	20
675.367	1	2
675.705	1	6
676.044	1	7
676.383	1	7
676.722	1	4
677.060	1	13
677.399	1	15
677.738	1	4
678.077	1	5
678.416	1	6
678.754	1	5
679.093	1	10
679.432	1	4
679.771	1	15
680.109	1	11
680.448	1	6
680.787	1	2
681.125	1	8
681.464	1	14
681.803	1	3
682.142	1	4
682.480	1	4
682.819	1	4
683.158	1	10
683.496	1	15
683.835	1	10
684.174	1	10
684.512	1	4
684.851	1	13
685.190	1	-3
685.529	1	2
685.867	1	16
686.206	1	2
686.545	1	9
686.883	1	16
687.222	1	7
687.561	1	11
687.899	1	21
688.238	1	15
688.577	1	10
688.746	1	8