File: Data/GaN_150K_450ms/GaN_sample D_spot15_UVVIS_150 K_200um_450 ms 2x2mm1_84.txt
340.368	1	5
340.710	1	-2
341.052	1	5
341.394	1	-2
341.737	1	14
342.079	1	3
342.421	1	6
342.763	1	3
343.105	1	5
343.447	1	5
343.789	1	10
344.131	1	-5
344.473	1	10
344.815	1	5
345.157	1	17
345.499	1	6
345.841	1	10
346.183	1	3
346.526	1	12
346.868	1	5
347.210	1	2
347.552	1	13
347.894	1	2
348.236	1	8
348.578	1	9
348.920	1	2
349.262	1	7
349.604	1	2
349.946	1	7
350.288	1	-2
350.630	1	0
350.972	1	10
351.314	1	10
351.656	1	15
351.998	1	14
352.340	1	21
352.682	1	-9
353.024	1	19
353.366	1	11
353.708	1	16
354.050	1	-6
354.392	1	5
354.734	1	12
355.076	1	22
355.418	1	8
355.760	1	18
356.102	1	13
356.444	1	21
356.785	1	15
357.127	1	20
357.469	1	20
357.811	1	18
358.153	1	8
358.495	1	18
358.837	1	33
359.179	1	27
359.521	1	24
359.863	1	23
360.205	1	38
360.547	1	20
360.889	1	32
361.231	1	39
361.572	1	43
361.914	1	45
362.256	1	58
362.598	1	53
362.940	1	51
363.282	1	57
363.624	1	62
363.966	1	65
364.308	1	80
364.649	1	79
364.991	1	93
365.333	1	90
365.675	1	130
366.017	1	122
366.359	1	131
366.701	1	130
367.042	1	150
367.384	1	133
367.726	1	134
368.068	1	156
368.410	1	147
368.752	1	162
369.093	1	140
369.435	1	142
369.777	1	155
370.119	1	127
370.461	1	138
370.803	1	120
371.144	1	110
371.486	1	108
371.828	1	99
372.170	1	92
372.512	1	98
372.853	1	98
373.195	1	95
373.537	1	69
373.879	1	68
374.220	1	72
374.562	1	78
374.904	1	74
375.246	1	61
375.588	1	46
375.929	1	52
376.271	1	61
376.613	1	58
376.955	1	53
377.296	1	50
377.638	1	45
377.980	1	45
378.321	1	53
378.663	1	40
379.005	1	38
379.347	1	36
379.688	1	46
380.030	1	44
380.372	1	39
380.714	1	33
381.055	1	36
381.397	1	33
381.739	1	14
382.080	1	27
382.422	1	37
382.764	1	30
383.105	1	22
383.447	1	29
383.789	1	22
384.130	1	22
384.472	1	21
384.814	1	32
385.156	1	27
385.497	1	30
385.839	1	33
386.180	1	33
386.522	1	20
386.864	1	24
387.205	1	31
387.547	1	23
387.889	1	11
388.230	1	17
388.572	1	9
388.914	1	23
389.255	1	21
389.597	1	16
389.939	1	22
390.280	1	18
390.622	1	15
390.963	1	5
391.305	1	14
391.647	1	11
391.988	1	15
392.330	1	21
392.671	1	26
393.013	1	32
393.355	1	27
393.696	1	16
394.038	1	11
394.379	1	17
394.721	1	13
395.062	1	16
395.404	1	19
395.746	1	14
396.087	1	20
396.429	1	13
396.770	1	23
397.112	1	14
397.453	1	14
397.795	1	10
398.136	1	23
398.478	1	15
398.819	1	15
399.161	1	15
399.503	1	22
399.844	1	7
400.186	1	21
400.527	1	19
400.869	1	7
401.210	1	15
401.552	1	10
401.893	1	21
402.235	1	12
402.576	1	14
402.918	1	0
403.259	1	15
403.601	1	23
403.942	1	10
404.284	1	20
404.625	1	7
404.967	1	17
405.308	1	-1
405.649	1	18
405.991	1	21
406.332	1	9
406.674	1	12
407.015	1	19
407.357	1	22
407.698	1	24
408.040	1	23
408.381	1	2
408.722	1	23
409.064	1	12
409.405	1	21
409.747	1	24
410.088	1	13
410.430	1	18
410.771	1	12
411.112	1	16
411.454	1	15
411.795	1	22
412.137	1	15
412.478	1	12
412.819	1	22
413.161	1	16
413.502	1	20
413.844	1	32
414.185	1	12
414.526	1	8
414.868	1	15
415.209	1	15
415.550	1	8
415.892	1	21
416.233	1	21
416.575	1	11
416.916	1	5
417.257	1	15
417.599	1	21
417.940	1	11
418.281	1	23
418.623	1	12
418.964	1	28
419.305	1	19
419.647	1	15
419.988	1	30
420.329	1	22
420.671	1	23
421.012	1	7
421.353	1	27
421.695	1	23
422.036	1	16
422.377	1	16
422.718	1	20
423.060	1	20
423.401	1	14
423.742	1	20
424.084	1	14
424.425	1	27
424.766	1	18
425.107	1	18
425.449	1	14
425.790	1	15
426.131	1	11
426.472	1	23
426.814	1	16
427.155	1	8
427.496	1	18
427.837	1	8
428.179	1	31
428.520	1	14
428.861	1	26
429.202	1	3
429.544	1	14
429.885	1	21
430.226	1	5
430.567	1	9
430.909	1	5
431.250	1	20
431.591	1	10
431.932	1	17
432.273	1	29
432.615	1	7
432.956	1	9
433.297	1	5
433.638	1	17
433.979	1	11
434.320	1	10
434.662	1	23
435.003	1	26
435.344	1	11
435.685	1	8
436.026	1	17
436.368	1	16
436.709	1	12
437.050	1	6
437.391	1	20
437.732	1	18
438.073	1	11
438.414	1	24
438.756	1	10
439.097	1	10
439.438	1	15
439.779	1	19
440.120	1	10
440.461	1	19
440.802	1	12
441.143	1	15
441.485	1	10
441.826	1	14
442.167	1	12
442.508	1	14
442.849	1	20
443.190	1	11
443.531	1	12
443.872	1	0
444.213	1	8
444.554	1	17
444.895	1	6
445.237	1	14
445.578	1	4
445.919	1	10
446.260	1	24
446.601	1	18
446.942	1	16
447.283	1	14
447.624	1	6
447.965	1	11
448.306	1	16
448.647	1	8
448.988	1	21
449.329	1	17
449.670	1	15
450.011	1	9
450.352	1	14
450.693	1	19
451.034	1	6
451.375	1	13
451.716	1	17
452.057	1	7
452.398	1	14
452.739	1	12
453.080	1	14
453.421	1	13
453.762	1	11
454.103	1	15
454.444	1	17
454.785	1	14
455.126	1	10
455.467	1	8
455.808	1	16
456.149	1	8
456.490	1	6
456.831	1	8
457.172	1	14
457.513	1	9
457.854	1	7
458.195	1	3
458.536	1	8
458.877	1	14
459.218	1	13
459.559	1	12
459.899	1	14
460.240	1	12
460.581	1	1
460.922	1	5
461.263	1	10
461.604	1	10
461.945	1	12
462.286	1	2
462.627	1	9
462.968	1	22
463.309	1	17
463.649	1	7
463.990	1	6
464.331	1	11
464.672	1	10
465.013	1	10
465.354	1	11
465.695	1	9
466.036	1	17
466.376	1	36
466.717	1	-7
467.058	1	14
467.399	1	8
467.740	1	23
468.081	1	11
468.422	1	17
468.762	1	11
469.103	1	15
469.444	1	17
469.785	1	3
470.126	1	12
470.467	1	11
470.807	1	13
471.148	1	6
471.489	1	19
471.830	1	5
472.171	1	19
472.511	1	7
472.852	1	19
473.193	1	17
473.534	1	11
473.875	1	8
474.215	1	4
474.556	1	5
474.897	1	6
475.238	1	8
475.578	1	4
475.919	1	3
476.260	1	4
476.601	1	7
476.942	1	8
477.282	1	1
477.623	1	15
477.964	1	15
478.305	1	13
478.645	1	8
478.986	1	8
479.327	1	16
479.667	1	17
480.008	1	21
480.349	1	5
480.690	1	17
481.030	1	4
481.371	1	7
481.712	1	11
482.053	1	22
482.393	1	0
482.734	1	10
483.075	1	9
483.415	1	10
483.756	1	9
484.097	1	14
484.437	1	10
484.778	1	7
485.119	1	13
485.459	1	4
485.800	1	1
486.141	1	16
486.481	1	-3
486.822	1	20
487.163	1	6
487.503	1	11
487.844	1	7
488.185	1	17
488.525	1	5
488.866	1	7
489.207	1	18
489.547	1	17
489.888	1	17
490.228	1	15
490.569	1	14
490.910	1	15
491.250	1	31
491.591	1	10
491.932	1	20
492.272	1	10
492.613	1	16
492.953	1	15
493.294	1	9
493.635	1	20
493.975	1	24
494.316	1	10
494.656	1	23
494.997	1	9
495.337	1	11
495.678	1	12
496.019	1	8
496.359	1	19
496.700	1	23
497.040	1	11
497.381	1	18
497.721	1	13
498.062	1	15
498.403	1	20
498.743	1	19
499.084	1	26
499.424	1	19
499.765	1	19
500.105	1	38
500.446	1	16
500.786	1	14
501.127	1	19
501.467	1	24
501.808	1	24
502.148	1	14
502.489	1	29
502.829	1	13
503.170	1	21
503.510	1	21
503.851	1	24
504.191	1	22
504.532	1	24
504.872	1	32
505.213	1	28
505.553	1	31
505.894	1	26
506.234	1	37
506.575	1	45
506.915	1	22
507.256	1	39
507.596	1	37
507.936	1	31
508.277	1	35
508.617	1	32
508.958	1	22
509.298	1	22
509.639	1	30
509.979	1	25
510.319	1	29
510.660	1	36
511.000	1	31
511.341	1	49
511.681	1	35
512.022	1	21
512.362	1	44
512.702	1	31
513.043	1	32
513.383	1	39
513.724	1	31
514.064	1	29
514.404	1	38
514.745	1	27
515.085	1	38
515.425	1	38
515.766	1	32
516.106	1	31
516.447	1	38
516.787	1	25
517.127	1	45
517.468	1	42
517.808	1	30
518.148	1	45
518.489	1	45
518.829	1	38
519.169	1	29
519.510	1	32
519.850	1	42
520.190	1	40
520.531	1	42
520.871	1	41
521.211	1	43
521.552	1	36
521.892	1	40
522.232	1	46
522.573	1	36
522.913	1	33
523.253	1	48
523.593	1	49
523.934	1	41
524.274	1	43
524.614	1	39
524.955	1	46
525.295	1	43
525.635	1	39
525.975	1	44
526.316	1	32
526.656	1	44
526.996	1	47
527.337	1	44
527.677	1	40
528.017	1	38
528.357	1	43
528.698	1	48
529.038	1	38
529.378	1	38
529.718	1	40
530.058	1	34
530.399	1	50
530.739	1	50
531.079	1	35
531.419	1	45
531.760	1	49
532.100	1	52
532.440	1	32
532.780	1	42
533.120	1	38
533.461	1	26
533.801	1	34
534.141	1	41
534.481	1	51
534.821	1	33
535.162	1	51
535.502	1	34
535.842	1	26
536.182	1	41
536.522	1	38
536.862	1	35
537.203	1	37
537.543	1	49
537.883	1	40
538.223	1	43
538.563	1	22
538.903	1	30
539.243	1	51
539.584	1	35
539.924	1	27
540.264	1	42
540.604	1	35
540.944	1	40
541.284	1	32
541.624	1	35
541.964	1	34
542.305	1	43
542.645	1	29
542.985	1	32
543.325	1	42
543.665	1	32
544.005	1	31
544.345	1	43
544.685	1	41
545.025	1	45
545.365	1	38
545.705	1	41
546.045	1	40
546.386	1	32
546.726	1	41
547.066	1	27
547.406	1	29
547.746	1	32
548.086	1	36
548.426	1	29
548.766	1	44
549.106	1	28
549.446	1	38
549.786	1	38
550.126	1	37
550.466	1	34
550.806	1	44
551.146	1	32
551.486	1	34
551.826	1	26
552.166	1	36
552.506	1	32
552.846	1	35
553.186	1	30
553.526	1	30
553.866	1	27
554.206	1	33
554.546	1	39
554.886	1	26
555.226	1	35
555.566	1	31
555.906	1	28
556.246	1	25
556.586	1	30
556.926	1	29
557.266	1	28
557.606	1	21
557.946	1	27
558.286	1	7
558.626	1	36
558.966	1	33
559.306	1	36
559.646	1	30
559.986	1	29
560.325	1	27
560.665	1	25
561.005	1	28
561.345	1	24
561.685	1	28
562.025	1	35
562.365	1	28
562.705	1	31
563.045	1	28
563.385	1	28
563.725	1	22
564.064	1	16
564.404	1	13
564.744	1	24
565.084	1	23
565.424	1	26
565.764	1	28
566.104	1	24
566.444	1	25
566.783	1	24
567.123	1	17
567.463	1	33
567.803	1	22
568.143	1	7
568.483	1	30
568.823	1	15
569.162	1	19
569.502	1	32
569.842	1	20
570.182	1	17
570.522	1	19
570.862	1	7
571.201	1	31
571.541	1	16
571.881	1	14
572.221	1	13
572.561	1	22
572.900	1	26
573.240	1	15
573.580	1	15
573.920	1	22
574.260	1	16
574.599	1	19
574.939	1	10
575.279	1	15
575.619	1	15
575.959	1	16
576.298	1	12
576.638	1	23
576.978	1	19
577.318	1	17
577.657	1	9
577.997	1	17
578.337	1	13
578.677	1	21
579.016	1	12
579.356	1	19
579.696	1	16
580.036	1	18
580.375	1	19
580.715	1	13
581.055	1	17
581.394	1	17
581.734	1	17
582.074	1	16
582.414	1	20
582.753	1	19
583.093	1	18
583.433	1	24
583.772	1	16
584.112	1	17
584.452	1	19
584.791	1	20
585.131	1	16
585.471	1	19
585.811	1	19
586.150	1	28
586.490	1	12
586.830	1	14
587.169	1	14
587.509	1	19
587.849	1	22
588.188	1	18
588.528	1	1
588.867	1	13
589.207	1	16
589.547	1	17
589.886	1	15
590.226	1	11
590.566	1	5
590.905	1	-1
591.245	1	5
591.585	1	7
591.924	1	5
592.264	1	5
592.603	1	-2
592.943	1	15
593.283	1	17
593.622	1	7
593.962	1	13
594.301	1	5
594.641	1	11
594.981	1	14
595.320	1	17
595.660	1	14
595.999	1	15
596.339	1	10
596.678	1	7
597.018	1	-1
597.358	1	3
597.697	1	2
598.037	1	19
598.376	1	8
598.716	1	21
599.055	1	15
599.395	1	12
599.734	1	7
600.074	1	4
600.413	1	6
600.753	1	10
601.092	1	5
601.432	1	2
601.771	1	17
602.111	1	10
602.451	1	7
602.790	1	16
603.130	1	7
603.469	1	11
603.809	1	15
604.148	1	3
604.487	1	10
604.827	1	13
605.166	1	17
605.506	1	11
605.845	1	19
606.185	1	1
606.524	1	8
606.864	1	21
607.203	1	15
607.543	1	18
607.882	1	14
608.222	1	7
608.561	1	6
608.901	1	18
609.240	1	12
609.579	1	6
609.919	1	8
610.258	1	16
610.598	1	2
610.937	1	6
611.277	1	12
611.616	1	13
611.955	1	-2
612.295	1	11
612.634	1	14
612.974	1	9
613.313	1	14
613.652	1	23
613.992	1	4
614.331	1	20
614.671	1	14
615.010	1	9
615.349	1	3
615.689	1	4
616.028	1	26
616.368	1	18
616.707	1	9
617.046	1	6
617.386	1	15
617.725	1	2
618.064	1	6
618.404	1	-10
618.743	1	10
619.082	1	18
619.422	1	26
619.761	1	9
620.100	1	4
620.440	1	12
620.779	1	19
621.118	1	18
621.458	1	5
621.797	1	1
622.136	1	10
622.476	1	5
622.815	1	12
623.154	1	1
623.494	1	6
623.833	1	8
624.172	1	13
624.511	1	-2
624.851	1	11
625.190	1	2
625.529	1	4
625.869	1	20
626.208	1	0
626.547	1	3
626.886	1	3
627.226	1	11
627.565	1	12
627.904	1	12
628.243	1	12
628.583	1	11
628.922	1	15
629.261	1	15
629.600	1	11
629.940	1	15
630.279	1	7
630.618	1	19
630.957	1	10
631.297	1	10
631.636	1	5
631.975	1	8
632.314	1	5
632.653	1	-3
632.993	1	9
633.332	1	6
633.671	1	7
634.010	1	7
634.349	1	12
634.689	1	7
635.028	1	6
635.367	1	14
635.706	1	6
636.045	1	1
636.384	1	15
636.724	1	8
637.063	1	-4
637.402	1	15
637.741	1	10
638.080	1	7
638.419	1	4
638.759	1	1
639.098	1	4
639.437	1	16
639.776	1	6
640.115	1	1
640.454	1	-10
640.793	1	5
641.132	1	2
641.472	1	21
641.811	1	8
642.150	1	7
642.489	1	10
642.828	1	17
643.167	1	15
643.506	1	5
643.845	1	19
644.184	1	14
644.524	1	6
644.863	1	3
645.202	1	-3
645.541	1	14
645.880	1	5
646.219	1	16
646.558	1	1
646.897	1	8
647.236	1	2
647.575	1	16
647.914	1	8
648.253	1	19
648.592	1	3
648.931	1	15
649.270	1	16
649.610	1	14
649.949	1	1
650.288	1	8
650.627	1	5
650.966	1	7
651.305	1	10
651.644	1	20
651.983	1	5
652.322	1	7
652.661	1	12
653.000	1	18
653.339	1	8
653.678	1	12
654.017	1	9
654.356	1	7
654.695	1	7
655.034	1	1
655.373	1	9
655.712	1	18
656.051	1	-5
656.390	1	9
656.729	1	15
657.068	1	13
657.406	1	6
657.745	1	13
658.084	1	11
658.423	1	11
658.762	1	7
659.101	1	3
659.440	1	10
659.779	1	18
660.118	1	12
660.457	1	9
660.796	1	7
661.135	1	17
661.474	1	8
661.813	1	3
662.152	1	6
662.491	1	3
662.829	1	13
663.168	1	6
663.507	1	11
663.846	1	6
664.185	1	11
664.524	1	18
664.863	1	6
665.202	1	4
665.541	1	11
665.879	1	10
666.218	1	15
666.557	1	5
666.896	1	11
667.235	1	9
667.574	1	8
667.913	1	17
668.251	1	-2
668.590	1	3
668.929	1	7
669.268	1	8
669.607	1	-1
669.946	1	6
670.285	1	8
670.623	1	-7
670.962	1	-3
671.301	1	5
671.640	1	11
671.979	1	0
672.317	1	13
672.656	1	4
672.995	1	7
673.334	1	-4
673.673	1	12
674.011	1	10
674.350	1	7
674.689	1	0
675.028	1	10
675.367	1	9
675.705	1	1
676.044	1	1
676.383	1	6
676.722	1	7
677.060	1	9
677.399	1	19
677.738	1	2
678.077	1	0
678.416	1	0
678.754	1	6
679.093	1	14
679.432	1	-3
679.771	1	5
680.109	1	5
680.448	1	8
680.787	1	-3
681.125	1	7
681.464	1	12
681.803	1	-5
682.142	1	11
682.480	1	1
682.819	1	5
683.158	1	5
683.496	1	7
683.835	1	21
684.174	1	8
684.512	1	7
684.851	1	9
685.190	1	8
685.529	1	-6
685.867	1	4
686.206	1	3
686.545	1	6
686.883	1	7
687.222	1	-3
687.561	1	5
687.899	1	4
688.238	1	19
688.577	1	5
688.746	1	12