File: Data/GaN_150K_450ms/GaN_sample D_spot15_UVVIS_150 K_200um_450 ms 2x2mm1_128.txt
340.368	1	6
340.710	1	7
341.052	1	8
341.394	1	5
341.737	1	17
342.079	1	2
342.421	1	4
342.763	1	3
343.105	1	6
343.447	1	2
343.789	1	10
344.131	1	-4
344.473	1	3
344.815	1	14
345.157	1	18
345.499	1	9
345.841	1	3
346.183	1	4
346.526	1	10
346.868	1	-1
347.210	1	1
347.552	1	13
347.894	1	6
348.236	1	6
348.578	1	7
348.920	1	10
349.262	1	8
349.604	1	8
349.946	1	-3
350.288	1	-1
350.630	1	3
350.972	1	10
351.314	1	-1
351.656	1	6
351.998	1	2
352.340	1	7
352.682	1	-5
353.024	1	18
353.366	1	10
353.708	1	-3
354.050	1	6
354.392	1	2
354.734	1	16
355.076	1	13
355.418	1	6
355.760	1	11
356.102	1	11
356.444	1	11
356.785	1	6
357.127	1	23
357.469	1	-1
357.811	1	5
358.153	1	8
358.495	1	7
358.837	1	13
359.179	1	17
359.521	1	16
359.863	1	7
360.205	1	33
360.547	1	22
360.889	1	10
361.231	1	24
361.572	1	19
361.914	1	22
362.256	1	26
362.598	1	21
362.940	1	24
363.282	1	26
363.624	1	15
363.966	1	29
364.308	1	41
364.649	1	37
364.991	1	47
365.333	1	34
365.675	1	51
366.017	1	58
366.359	1	39
366.701	1	51
367.042	1	52
367.384	1	45
367.726	1	52
368.068	1	53
368.410	1	54
368.752	1	57
369.093	1	44
369.435	1	59
369.777	1	65
370.119	1	49
370.461	1	40
370.803	1	37
371.144	1	53
371.486	1	49
371.828	1	40
372.170	1	39
372.512	1	39
372.853	1	43
373.195	1	35
373.537	1	30
373.879	1	20
374.220	1	32
374.562	1	32
374.904	1	24
375.246	1	31
375.588	1	23
375.929	1	17
376.271	1	17
376.613	1	25
376.955	1	16
377.296	1	15
377.638	1	15
377.980	1	15
378.321	1	19
378.663	1	16
379.005	1	10
379.347	1	15
379.688	1	26
380.030	1	21
380.372	1	18
380.714	1	12
381.055	1	8
381.397	1	12
381.739	1	3
382.080	1	17
382.422	1	14
382.764	1	19
383.105	1	8
383.447	1	15
383.789	1	5
384.130	1	13
384.472	1	8
384.814	1	19
385.156	1	12
385.497	1	15
385.839	1	15
386.180	1	2
386.522	1	14
386.864	1	10
387.205	1	5
387.547	1	14
387.889	1	-3
388.230	1	11
388.572	1	9
388.914	1	9
389.255	1	12
389.597	1	8
389.939	1	7
390.280	1	2
390.622	1	-4
390.963	1	5
391.305	1	6
391.647	1	10
391.988	1	16
392.330	1	3
392.671	1	6
393.013	1	21
393.355	1	15
393.696	1	10
394.038	1	12
394.379	1	6
394.721	1	4
395.062	1	13
395.404	1	15
395.746	1	2
396.087	1	9
396.429	1	16
396.770	1	15
397.112	1	10
397.453	1	2
397.795	1	6
398.136	1	3
398.478	1	9
398.819	1	13
399.161	1	9
399.503	1	16
399.844	1	11
400.186	1	10
400.527	1	13
400.869	1	1
401.210	1	11
401.552	1	11
401.893	1	13
402.235	1	15
402.576	1	16
402.918	1	-4
403.259	1	8
403.601	1	9
403.942	1	10
404.284	1	20
404.625	1	8
404.967	1	12
405.308	1	-2
405.649	1	11
405.991	1	13
406.332	1	14
406.674	1	7
407.015	1	11
407.357	1	9
407.698	1	6
408.040	1	14
408.381	1	-3
408.722	1	12
409.064	1	16
409.405	1	9
409.747	1	7
410.088	1	14
410.430	1	15
410.771	1	16
411.112	1	4
411.454	1	4
411.795	1	18
412.137	1	7
412.478	1	24
412.819	1	9
413.161	1	7
413.502	1	7
413.844	1	18
414.185	1	11
414.526	1	3
414.868	1	5
415.209	1	7
415.550	1	8
415.892	1	15
416.233	1	12
416.575	1	8
416.916	1	5
417.257	1	7
417.599	1	14
417.940	1	2
418.281	1	18
418.623	1	10
418.964	1	18
419.305	1	1
419.647	1	11
419.988	1	25
420.329	1	16
420.671	1	15
421.012	1	9
421.353	1	24
421.695	1	18
422.036	1	20
422.377	1	15
422.718	1	12
423.060	1	24
423.401	1	6
423.742	1	18
424.084	1	23
424.425	1	12
424.766	1	10
425.107	1	15
425.449	1	11
425.790	1	10
426.131	1	5
426.472	1	22
426.814	1	16
427.155	1	14
427.496	1	11
427.837	1	2
428.179	1	18
428.520	1	19
428.861	1	20
429.202	1	4
429.544	1	7
429.885	1	17
430.226	1	-6
430.567	1	4
430.909	1	12
431.250	1	5
431.591	1	1
431.932	1	11
432.273	1	15
432.615	1	3
432.956	1	9
433.297	1	6
433.638	1	16
433.979	1	9
434.320	1	10
434.662	1	6
435.003	1	22
435.344	1	6
435.685	1	1
436.026	1	14
436.368	1	-2
436.709	1	8
437.050	1	2
437.391	1	10
437.732	1	10
438.073	1	6
438.414	1	11
438.756	1	6
439.097	1	8
439.438	1	15
439.779	1	17
440.120	1	12
440.461	1	11
440.802	1	18
441.143	1	8
441.485	1	10
441.826	1	11
442.167	1	18
442.508	1	8
442.849	1	11
443.190	1	14
443.531	1	6
443.872	1	5
444.213	1	-5
444.554	1	13
444.895	1	9
445.237	1	16
445.578	1	0
445.919	1	8
446.260	1	20
446.601	1	6
446.942	1	-9
447.283	1	16
447.624	1	9
447.965	1	9
448.306	1	6
448.647	1	7
448.988	1	15
449.329	1	17
449.670	1	7
450.011	1	10
450.352	1	3
450.693	1	12
451.034	1	5
451.375	1	14
451.716	1	0
452.057	1	12
452.398	1	20
452.739	1	14
453.080	1	5
453.421	1	13
453.762	1	2
454.103	1	15
454.444	1	11
454.785	1	9
455.126	1	5
455.467	1	3
455.808	1	21
456.149	1	3
456.490	1	-4
456.831	1	8
457.172	1	10
457.513	1	2
457.854	1	2
458.195	1	12
458.536	1	14
458.877	1	10
459.218	1	10
459.559	1	8
459.899	1	6
460.240	1	2
460.581	1	0
460.922	1	10
461.263	1	19
461.604	1	2
461.945	1	14
462.286	1	4
462.627	1	8
462.968	1	7
463.309	1	13
463.649	1	2
463.990	1	6
464.331	1	19
464.672	1	9
465.013	1	2
465.354	1	10
465.695	1	5
466.036	1	16
466.376	1	19
466.717	1	1
467.058	1	16
467.399	1	-4
467.740	1	19
468.081	1	10
468.422	1	6
468.762	1	6
469.103	1	5
469.444	1	12
469.785	1	-4
470.126	1	5
470.467	1	1
470.807	1	17
471.148	1	9
471.489	1	17
471.830	1	10
472.171	1	16
472.511	1	11
472.852	1	10
473.193	1	10
473.534	1	8
473.875	1	2
474.215	1	7
474.556	1	7
474.897	1	2
475.238	1	9
475.578	1	-3
475.919	1	-1
476.260	1	6
476.601	1	10
476.942	1	7
477.282	1	-2
477.623	1	6
477.964	1	4
478.305	1	20
478.645	1	5
478.986	1	9
479.327	1	11
479.667	1	6
480.008	1	4
480.349	1	11
480.690	1	10
481.030	1	8
481.371	1	-5
481.712	1	9
482.053	1	11
482.393	1	3
482.734	1	9
483.075	1	9
483.415	1	-4
483.756	1	7
484.097	1	10
484.437	1	5
484.778	1	-1
485.119	1	10
485.459	1	2
485.800	1	5
486.141	1	14
486.481	1	6
486.822	1	18
487.163	1	1
487.503	1	5
487.844	1	-1
488.185	1	6
488.525	1	3
488.866	1	-3
489.207	1	10
489.547	1	6
489.888	1	11
490.228	1	10
490.569	1	7
490.910	1	13
491.250	1	19
491.591	1	6
491.932	1	17
492.272	1	1
492.613	1	1
492.953	1	6
493.294	1	-1
493.635	1	6
493.975	1	19
494.316	1	-2
494.656	1	13
494.997	1	3
495.337	1	9
495.678	1	13
496.019	1	6
496.359	1	12
496.700	1	7
497.040	1	11
497.381	1	7
497.721	1	0
498.062	1	0
498.403	1	12
498.743	1	13
499.084	1	7
499.424	1	2
499.765	1	1
500.105	1	13
500.446	1	1
500.786	1	8
501.127	1	8
501.467	1	16
501.808	1	13
502.148	1	5
502.489	1	7
502.829	1	-1
503.170	1	15
503.510	1	2
503.851	1	13
504.191	1	6
504.532	1	17
504.872	1	5
505.213	1	11
505.553	1	14
505.894	1	10
506.234	1	10
506.575	1	15
506.915	1	0
507.256	1	18
507.596	1	16
507.936	1	25
508.277	1	28
508.617	1	9
508.958	1	11
509.298	1	5
509.639	1	-2
509.979	1	4
510.319	1	11
510.660	1	5
511.000	1	12
511.341	1	19
511.681	1	13
512.022	1	-4
512.362	1	10
512.702	1	12
513.043	1	6
513.383	1	12
513.724	1	13
514.064	1	10
514.404	1	18
514.745	1	12
515.085	1	22
515.425	1	26
515.766	1	7
516.106	1	9
516.447	1	17
516.787	1	18
517.127	1	23
517.468	1	21
517.808	1	6
518.148	1	19
518.489	1	2
518.829	1	21
519.169	1	7
519.510	1	8
519.850	1	11
520.190	1	19
520.531	1	11
520.871	1	14
521.211	1	17
521.552	1	10
521.892	1	14
522.232	1	10
522.573	1	13
522.913	1	20
523.253	1	20
523.593	1	17
523.934	1	19
524.274	1	10
524.614	1	23
524.955	1	9
525.295	1	18
525.635	1	19
525.975	1	4
526.316	1	1
526.656	1	5
526.996	1	18
527.337	1	23
527.677	1	33
528.017	1	3
528.357	1	14
528.698	1	19
529.038	1	11
529.378	1	14
529.718	1	17
530.058	1	22
530.399	1	19
530.739	1	12
531.079	1	19
531.419	1	11
531.760	1	17
532.100	1	17
532.440	1	15
532.780	1	15
533.120	1	11
533.461	1	15
533.801	1	17
534.141	1	14
534.481	1	20
534.821	1	11
535.162	1	17
535.502	1	12
535.842	1	11
536.182	1	4
536.522	1	7
536.862	1	11
537.203	1	17
537.543	1	23
537.883	1	9
538.223	1	32
538.563	1	11
538.903	1	12
539.243	1	22
539.584	1	9
539.924	1	7
540.264	1	16
540.604	1	18
540.944	1	16
541.284	1	6
541.624	1	5
541.964	1	10
542.305	1	22
542.645	1	12
542.985	1	8
543.325	1	16
543.665	1	7
544.005	1	16
544.345	1	18
544.685	1	12
545.025	1	14
545.365	1	12
545.705	1	16
546.045	1	15
546.386	1	10
546.726	1	7
547.066	1	6
547.406	1	10
547.746	1	21
548.086	1	10
548.426	1	14
548.766	1	12
549.106	1	13
549.446	1	10
549.786	1	15
550.126	1	16
550.466	1	23
550.806	1	23
551.146	1	5
551.486	1	5
551.826	1	4
552.166	1	18
552.506	1	11
552.846	1	13
553.186	1	5
553.526	1	12
553.866	1	2
554.206	1	17
554.546	1	7
554.886	1	11
555.226	1	14
555.566	1	17
555.906	1	12
556.246	1	9
556.586	1	14
556.926	1	8
557.266	1	22
557.606	1	2
557.946	1	4
558.286	1	-1
558.626	1	10
558.966	1	15
559.306	1	21
559.646	1	16
559.986	1	17
560.325	1	13
560.665	1	5
561.005	1	8
561.345	1	14
561.685	1	18
562.025	1	8
562.365	1	4
562.705	1	13
563.045	1	10
563.385	1	18
563.725	1	0
564.064	1	5
564.404	1	5
564.744	1	17
565.084	1	13
565.424	1	8
565.764	1	5
566.104	1	14
566.444	1	24
566.783	1	12
567.123	1	5
567.463	1	4
567.803	1	7
568.143	1	12
568.483	1	16
568.823	1	2
569.162	1	9
569.502	1	20
569.842	1	5
570.182	1	-1
570.522	1	3
570.862	1	8
571.201	1	29
571.541	1	19
571.881	1	1
572.221	1	8
572.561	1	18
572.900	1	10
573.240	1	3
573.580	1	12
573.920	1	14
574.260	1	3
574.599	1	17
574.939	1	12
575.279	1	5
575.619	1	4
575.959	1	2
576.298	1	-5
576.638	1	13
576.978	1	8
577.318	1	11
577.657	1	2
577.997	1	20
578.337	1	8
578.677	1	10
579.016	1	9
579.356	1	5
579.696	1	8
580.036	1	10
580.375	1	7
580.715	1	8
581.055	1	9
581.394	1	7
581.734	1	10
582.074	1	16
582.414	1	11
582.753	1	4
583.093	1	12
583.433	1	13
583.772	1	13
584.112	1	4
584.452	1	4
584.791	1	15
585.131	1	11
585.471	1	-3
585.811	1	11
586.150	1	11
586.490	1	7
586.830	1	6
587.169	1	0
587.509	1	7
587.849	1	13
588.188	1	4
588.528	1	1
588.867	1	12
589.207	1	6
589.547	1	7
589.886	1	6
590.226	1	3
590.566	1	7
590.905	1	3
591.245	1	3
591.585	1	-4
591.924	1	2
592.264	1	6
592.603	1	-5
592.943	1	4
593.283	1	1
593.622	1	0
593.962	1	12
594.301	1	1
594.641	1	0
594.981	1	5
595.320	1	18
595.660	1	13
595.999	1	10
596.339	1	5
596.678	1	-1
597.018	1	-3
597.358	1	5
597.697	1	-6
598.037	1	3
598.376	1	-6
598.716	1	8
599.055	1	3
599.395	1	7
599.734	1	8
600.074	1	2
600.413	1	-1
600.753	1	5
601.092	1	-6
601.432	1	-2
601.771	1	14
602.111	1	3
602.451	1	14
602.790	1	16
603.130	1	8
603.469	1	6
603.809	1	11
604.148	1	3
604.487	1	1
604.827	1	8
605.166	1	7
605.506	1	-3
605.845	1	10
606.185	1	4
606.524	1	-2
606.864	1	12
607.203	1	2
607.543	1	5
607.882	1	14
608.222	1	0
608.561	1	4
608.901	1	4
609.240	1	10
609.579	1	7
609.919	1	-1
610.258	1	12
610.598	1	-6
610.937	1	-1
611.277	1	2
611.616	1	23
611.955	1	-1
612.295	1	1
612.634	1	6
612.974	1	7
613.313	1	0
613.652	1	13
613.992	1	-3
614.331	1	18
614.671	1	13
615.010	1	7
615.349	1	4
615.689	1	0
616.028	1	17
616.368	1	20
616.707	1	5
617.046	1	-2
617.386	1	6
617.725	1	5
618.064	1	-5
618.404	1	1
618.743	1	11
619.082	1	9
619.422	1	18
619.761	1	1
620.100	1	18
620.440	1	7
620.779	1	10
621.118	1	15
621.458	1	7
621.797	1	3
622.136	1	-1
622.476	1	5
622.815	1	11
623.154	1	-3
623.494	1	-7
623.833	1	9
624.172	1	12
624.511	1	-3
624.851	1	10
625.190	1	2
625.529	1	-1
625.869	1	17
626.208	1	1
626.547	1	-4
626.886	1	6
627.226	1	9
627.565	1	10
627.904	1	5
628.243	1	11
628.583	1	12
628.922	1	18
629.261	1	6
629.600	1	-1
629.940	1	7
630.279	1	10
630.618	1	13
630.957	1	4
631.297	1	11
631.636	1	6
631.975	1	10
632.314	1	5
632.653	1	4
632.993	1	7
633.332	1	-1
633.671	1	8
634.010	1	8
634.349	1	7
634.689	1	4
635.028	1	-1
635.367	1	10
635.706	1	7
636.045	1	-4
636.384	1	10
636.724	1	10
637.063	1	-3
637.402	1	6
637.741	1	0
638.080	1	7
638.419	1	6
638.759	1	1
639.098	1	9
639.437	1	12
639.776	1	7
640.115	1	-4
640.454	1	-5
640.793	1	2
641.132	1	8
641.472	1	16
641.811	1	-14
642.150	1	-4
642.489	1	8
642.828	1	12
643.167	1	7
643.506	1	-1
643.845	1	5
644.184	1	11
644.524	1	1
644.863	1	10
645.202	1	7
645.541	1	4
645.880	1	13
646.219	1	14
646.558	1	-9
646.897	1	0
647.236	1	-3
647.575	1	9
647.914	1	6
648.253	1	12
648.592	1	10
648.931	1	1
649.270	1	22
649.610	1	-3
649.949	1	6
650.288	1	-1
650.627	1	3
650.966	1	8
651.305	1	12
651.644	1	11
651.983	1	-1
652.322	1	2
652.661	1	-2
653.000	1	3
653.339	1	0
653.678	1	3
654.017	1	11
654.356	1	5
654.695	1	12
655.034	1	5
655.373	1	5
655.712	1	12
656.051	1	-1
656.390	1	9
656.729	1	6
657.068	1	8
657.406	1	0
657.745	1	12
658.084	1	11
658.423	1	17
658.762	1	7
659.101	1	2
659.440	1	5
659.779	1	16
660.118	1	6
660.457	1	8
660.796	1	6
661.135	1	15
661.474	1	8
661.813	1	5
662.152	1	2
662.491	1	0
662.829	1	6
663.168	1	3
663.507	1	5
663.846	1	-3
664.185	1	2
664.524	1	17
664.863	1	-6
665.202	1	6
665.541	1	1
665.879	1	7
666.218	1	13
666.557	1	-5
666.896	1	6
667.235	1	-5
667.574	1	-4
667.913	1	8
668.251	1	-14
668.590	1	3
668.929	1	10
669.268	1	1
669.607	1	1
669.946	1	6
670.285	1	6
670.623	1	0
670.962	1	-6
671.301	1	3
671.640	1	5
671.979	1	-2
672.317	1	5
672.656	1	10
672.995	1	1
673.334	1	-2
673.673	1	14
674.011	1	8
674.350	1	8
674.689	1	0
675.028	1	3
675.367	1	0
675.705	1	-5
676.044	1	3
676.383	1	2
676.722	1	5
677.060	1	14
677.399	1	10
677.738	1	-4
678.077	1	1
678.416	1	-6
678.754	1	0
679.093	1	7
679.432	1	4
679.771	1	4
680.109	1	2
680.448	1	9
680.787	1	-8
681.125	1	5
681.464	1	9
681.803	1	6
682.142	1	0
682.480	1	1
682.819	1	6
683.158	1	4
683.496	1	4
683.835	1	9
684.174	1	5
684.512	1	9
684.851	1	6
685.190	1	4
685.529	1	4
685.867	1	1
686.206	1	-9
686.545	1	-3
686.883	1	2
687.222	1	-5
687.561	1	7
687.899	1	14
688.238	1	13
688.577	1	-3
688.746	1	-4