File: Data/GaN_150K_450ms/GaN_sample D_spot15_UVVIS_150 K_200um_450 ms 2x2mm1_91.txt
340.368	1	-1
340.710	1	5
341.052	1	6
341.394	1	-7
341.737	1	16
342.079	1	5
342.421	1	3
342.763	1	-2
343.105	1	9
343.447	1	2
343.789	1	4
344.131	1	-18
344.473	1	2
344.815	1	0
345.157	1	17
345.499	1	6
345.841	1	7
346.183	1	8
346.526	1	7
346.868	1	-2
347.210	1	1
347.552	1	24
347.894	1	-3
348.236	1	11
348.578	1	12
348.920	1	9
349.262	1	3
349.604	1	8
349.946	1	11
350.288	1	-2
350.630	1	-2
350.972	1	7
351.314	1	1
351.656	1	10
351.998	1	11
352.340	1	12
352.682	1	-3
353.024	1	14
353.366	1	2
353.708	1	1
354.050	1	4
354.392	1	1
354.734	1	15
355.076	1	22
355.418	1	2
355.760	1	19
356.102	1	15
356.444	1	25
356.785	1	17
357.127	1	16
357.469	1	18
357.811	1	17
358.153	1	8
358.495	1	23
358.837	1	18
359.179	1	21
359.521	1	28
359.863	1	21
360.205	1	33
360.547	1	31
360.889	1	29
361.231	1	30
361.572	1	38
361.914	1	41
362.256	1	46
362.598	1	50
362.940	1	58
363.282	1	46
363.624	1	54
363.966	1	53
364.308	1	65
364.649	1	75
364.991	1	77
365.333	1	79
365.675	1	92
366.017	1	96
366.359	1	93
366.701	1	108
367.042	1	114
367.384	1	98
367.726	1	118
368.068	1	137
368.410	1	131
368.752	1	135
369.093	1	122
369.435	1	127
369.777	1	117
370.119	1	113
370.461	1	99
370.803	1	92
371.144	1	89
371.486	1	89
371.828	1	86
372.170	1	76
372.512	1	68
372.853	1	83
373.195	1	70
373.537	1	63
373.879	1	52
374.220	1	68
374.562	1	68
374.904	1	60
375.246	1	51
375.588	1	47
375.929	1	47
376.271	1	48
376.613	1	45
376.955	1	39
377.296	1	48
377.638	1	36
377.980	1	34
378.321	1	37
378.663	1	39
379.005	1	37
379.347	1	34
379.688	1	31
380.030	1	37
380.372	1	41
380.714	1	34
381.055	1	20
381.397	1	24
381.739	1	10
382.080	1	20
382.422	1	26
382.764	1	32
383.105	1	13
383.447	1	24
383.789	1	20
384.130	1	25
384.472	1	20
384.814	1	28
385.156	1	21
385.497	1	27
385.839	1	24
386.180	1	18
386.522	1	27
386.864	1	20
387.205	1	16
387.547	1	18
387.889	1	10
388.230	1	10
388.572	1	12
388.914	1	20
389.255	1	11
389.597	1	1
389.939	1	15
390.280	1	19
390.622	1	13
390.963	1	8
391.305	1	2
391.647	1	13
391.988	1	17
392.330	1	16
392.671	1	14
393.013	1	12
393.355	1	13
393.696	1	21
394.038	1	14
394.379	1	10
394.721	1	16
395.062	1	4
395.404	1	22
395.746	1	4
396.087	1	16
396.429	1	23
396.770	1	15
397.112	1	15
397.453	1	3
397.795	1	16
398.136	1	18
398.478	1	10
398.819	1	18
399.161	1	9
399.503	1	10
399.844	1	12
400.186	1	20
400.527	1	20
400.869	1	5
401.210	1	14
401.552	1	15
401.893	1	16
402.235	1	12
402.576	1	17
402.918	1	8
403.259	1	15
403.601	1	20
403.942	1	9
404.284	1	21
404.625	1	3
404.967	1	18
405.308	1	0
405.649	1	14
405.991	1	19
406.332	1	11
406.674	1	17
407.015	1	9
407.357	1	8
407.698	1	12
408.040	1	27
408.381	1	4
408.722	1	12
409.064	1	15
409.405	1	6
409.747	1	15
410.088	1	18
410.430	1	27
410.771	1	19
411.112	1	23
411.454	1	22
411.795	1	10
412.137	1	14
412.478	1	12
412.819	1	16
413.161	1	10
413.502	1	10
413.844	1	23
414.185	1	6
414.526	1	10
414.868	1	13
415.209	1	12
415.550	1	14
415.892	1	23
416.233	1	23
416.575	1	8
416.916	1	15
417.257	1	10
417.599	1	14
417.940	1	1
418.281	1	21
418.623	1	10
418.964	1	25
419.305	1	18
419.647	1	6
419.988	1	22
420.329	1	16
420.671	1	26
421.012	1	5
421.353	1	15
421.695	1	22
422.036	1	25
422.377	1	19
422.718	1	11
423.060	1	18
423.401	1	17
423.742	1	19
424.084	1	14
424.425	1	24
424.766	1	14
425.107	1	12
425.449	1	18
425.790	1	11
426.131	1	10
426.472	1	21
426.814	1	12
427.155	1	2
427.496	1	21
427.837	1	10
428.179	1	24
428.520	1	17
428.861	1	11
429.202	1	3
429.544	1	22
429.885	1	15
430.226	1	8
430.567	1	4
430.909	1	6
431.250	1	20
431.591	1	16
431.932	1	11
432.273	1	17
432.615	1	7
432.956	1	17
433.297	1	11
433.638	1	16
433.979	1	15
434.320	1	12
434.662	1	23
435.003	1	18
435.344	1	16
435.685	1	3
436.026	1	9
436.368	1	10
436.709	1	7
437.050	1	1
437.391	1	16
437.732	1	10
438.073	1	3
438.414	1	15
438.756	1	11
439.097	1	23
439.438	1	13
439.779	1	6
440.120	1	12
440.461	1	12
440.802	1	13
441.143	1	7
441.485	1	10
441.826	1	12
442.167	1	15
442.508	1	11
442.849	1	15
443.190	1	13
443.531	1	12
443.872	1	3
444.213	1	0
444.554	1	14
444.895	1	11
445.237	1	13
445.578	1	4
445.919	1	13
446.260	1	15
446.601	1	12
446.942	1	15
447.283	1	23
447.624	1	3
447.965	1	13
448.306	1	12
448.647	1	12
448.988	1	12
449.329	1	21
449.670	1	10
450.011	1	16
450.352	1	5
450.693	1	18
451.034	1	3
451.375	1	11
451.716	1	12
452.057	1	11
452.398	1	18
452.739	1	7
453.080	1	6
453.421	1	18
453.762	1	18
454.103	1	3
454.444	1	13
454.785	1	4
455.126	1	7
455.467	1	19
455.808	1	10
456.149	1	9
456.490	1	6
456.831	1	5
457.172	1	4
457.513	1	3
457.854	1	4
458.195	1	19
458.536	1	12
458.877	1	15
459.218	1	24
459.559	1	17
459.899	1	1
460.240	1	2
460.581	1	4
460.922	1	11
461.263	1	16
461.604	1	3
461.945	1	11
462.286	1	-2
462.627	1	8
462.968	1	20
463.309	1	15
463.649	1	11
463.990	1	7
464.331	1	12
464.672	1	5
465.013	1	4
465.354	1	16
465.695	1	18
466.036	1	15
466.376	1	15
466.717	1	-3
467.058	1	6
467.399	1	12
467.740	1	28
468.081	1	12
468.422	1	10
468.762	1	9
469.103	1	13
469.444	1	15
469.785	1	5
470.126	1	16
470.467	1	15
470.807	1	10
471.148	1	3
471.489	1	12
471.830	1	7
472.171	1	18
472.511	1	15
472.852	1	13
473.193	1	11
473.534	1	13
473.875	1	16
474.215	1	6
474.556	1	8
474.897	1	6
475.238	1	9
475.578	1	3
475.919	1	7
476.260	1	3
476.601	1	8
476.942	1	3
477.282	1	-3
477.623	1	5
477.964	1	5
478.305	1	11
478.645	1	10
478.986	1	21
479.327	1	13
479.667	1	10
480.008	1	6
480.349	1	3
480.690	1	14
481.030	1	12
481.371	1	5
481.712	1	13
482.053	1	16
482.393	1	12
482.734	1	12
483.075	1	15
483.415	1	11
483.756	1	6
484.097	1	15
484.437	1	14
484.778	1	3
485.119	1	9
485.459	1	8
485.800	1	5
486.141	1	18
486.481	1	-3
486.822	1	16
487.163	1	0
487.503	1	11
487.844	1	7
488.185	1	19
488.525	1	10
488.866	1	6
489.207	1	3
489.547	1	10
489.888	1	12
490.228	1	10
490.569	1	15
490.910	1	15
491.250	1	19
491.591	1	10
491.932	1	24
492.272	1	7
492.613	1	14
492.953	1	12
493.294	1	11
493.635	1	14
493.975	1	22
494.316	1	9
494.656	1	11
494.997	1	7
495.337	1	2
495.678	1	10
496.019	1	7
496.359	1	5
496.700	1	4
497.040	1	7
497.381	1	13
497.721	1	7
498.062	1	13
498.403	1	26
498.743	1	13
499.084	1	17
499.424	1	18
499.765	1	14
500.105	1	23
500.446	1	0
500.786	1	10
501.127	1	25
501.467	1	22
501.808	1	22
502.148	1	13
502.489	1	15
502.829	1	15
503.170	1	21
503.510	1	12
503.851	1	22
504.191	1	19
504.532	1	30
504.872	1	16
505.213	1	14
505.553	1	12
505.894	1	23
506.234	1	23
506.575	1	32
506.915	1	30
507.256	1	34
507.596	1	24
507.936	1	30
508.277	1	35
508.617	1	22
508.958	1	22
509.298	1	14
509.639	1	24
509.979	1	22
510.319	1	30
510.660	1	28
511.000	1	24
511.341	1	31
511.681	1	33
512.022	1	22
512.362	1	27
512.702	1	24
513.043	1	41
513.383	1	31
513.724	1	28
514.064	1	33
514.404	1	35
514.745	1	37
515.085	1	31
515.425	1	36
515.766	1	25
516.106	1	26
516.447	1	29
516.787	1	32
517.127	1	29
517.468	1	37
517.808	1	28
518.148	1	43
518.489	1	36
518.829	1	30
519.169	1	33
519.510	1	24
519.850	1	33
520.190	1	26
520.531	1	38
520.871	1	38
521.211	1	34
521.552	1	27
521.892	1	39
522.232	1	29
522.573	1	25
522.913	1	40
523.253	1	44
523.593	1	43
523.934	1	25
524.274	1	23
524.614	1	35
524.955	1	37
525.295	1	42
525.635	1	33
525.975	1	24
526.316	1	26
526.656	1	31
526.996	1	23
527.337	1	39
527.677	1	44
528.017	1	30
528.357	1	40
528.698	1	39
529.038	1	34
529.378	1	41
529.718	1	29
530.058	1	28
530.399	1	34
530.739	1	33
531.079	1	24
531.419	1	24
531.760	1	44
532.100	1	43
532.440	1	42
532.780	1	27
533.120	1	29
533.461	1	26
533.801	1	28
534.141	1	34
534.481	1	51
534.821	1	40
535.162	1	38
535.502	1	32
535.842	1	23
536.182	1	31
536.522	1	28
536.862	1	21
537.203	1	34
537.543	1	29
537.883	1	18
538.223	1	42
538.563	1	33
538.903	1	25
539.243	1	30
539.584	1	32
539.924	1	33
540.264	1	41
540.604	1	36
540.944	1	33
541.284	1	28
541.624	1	23
541.964	1	34
542.305	1	35
542.645	1	19
542.985	1	25
543.325	1	39
543.665	1	24
544.005	1	25
544.345	1	34
544.685	1	30
545.025	1	31
545.365	1	35
545.705	1	24
546.045	1	36
546.386	1	28
546.726	1	20
547.066	1	26
547.406	1	25
547.746	1	29
548.086	1	28
548.426	1	32
548.766	1	23
549.106	1	29
549.446	1	29
549.786	1	30
550.126	1	28
550.466	1	24
550.806	1	47
551.146	1	28
551.486	1	29
551.826	1	13
552.166	1	26
552.506	1	27
552.846	1	30
553.186	1	15
553.526	1	25
553.866	1	20
554.206	1	28
554.546	1	20
554.886	1	17
555.226	1	24
555.566	1	18
555.906	1	18
556.246	1	26
556.586	1	32
556.926	1	28
557.266	1	22
557.606	1	13
557.946	1	33
558.286	1	6
558.626	1	28
558.966	1	26
559.306	1	26
559.646	1	24
559.986	1	26
560.325	1	18
560.665	1	17
561.005	1	12
561.345	1	12
561.685	1	27
562.025	1	17
562.365	1	13
562.705	1	21
563.045	1	24
563.385	1	23
563.725	1	19
564.064	1	19
564.404	1	13
564.744	1	23
565.084	1	30
565.424	1	10
565.764	1	21
566.104	1	27
566.444	1	18
566.783	1	24
567.123	1	25
567.463	1	17
567.803	1	25
568.143	1	16
568.483	1	20
568.823	1	8
569.162	1	9
569.502	1	17
569.842	1	17
570.182	1	16
570.522	1	13
570.862	1	3
571.201	1	30
571.541	1	16
571.881	1	5
572.221	1	21
572.561	1	24
572.900	1	22
573.240	1	24
573.580	1	16
573.920	1	22
574.260	1	14
574.599	1	19
574.939	1	8
575.279	1	16
575.619	1	6
575.959	1	10
576.298	1	7
576.638	1	20
576.978	1	15
577.318	1	10
577.657	1	6
577.997	1	19
578.337	1	6
578.677	1	15
579.016	1	11
579.356	1	16
579.696	1	8
580.036	1	15
580.375	1	1
580.715	1	18
581.055	1	17
581.394	1	17
581.734	1	16
582.074	1	10
582.414	1	4
582.753	1	13
583.093	1	15
583.433	1	8
583.772	1	19
584.112	1	8
584.452	1	15
584.791	1	8
585.131	1	12
585.471	1	12
585.811	1	19
586.150	1	19
586.490	1	16
586.830	1	6
587.169	1	11
587.509	1	13
587.849	1	24
588.188	1	16
588.528	1	17
588.867	1	17
589.207	1	7
589.547	1	8
589.886	1	17
590.226	1	5
590.566	1	15
590.905	1	-2
591.245	1	1
591.585	1	2
591.924	1	5
592.264	1	11
592.603	1	-4
592.943	1	14
593.283	1	16
593.622	1	17
593.962	1	2
594.301	1	5
594.641	1	10
594.981	1	10
595.320	1	18
595.660	1	17
595.999	1	3
596.339	1	9
596.678	1	-3
597.018	1	6
597.358	1	6
597.697	1	5
598.037	1	3
598.376	1	-4
598.716	1	11
599.055	1	13
599.395	1	6
599.734	1	10
600.074	1	7
600.413	1	7
600.753	1	8
601.092	1	3
601.432	1	-2
601.771	1	12
602.111	1	5
602.451	1	2
602.790	1	7
603.130	1	2
603.469	1	6
603.809	1	5
604.148	1	-1
604.487	1	8
604.827	1	6
605.166	1	10
605.506	1	7
605.845	1	17
606.185	1	5
606.524	1	6
606.864	1	14
607.203	1	14
607.543	1	15
607.882	1	12
608.222	1	14
608.561	1	5
608.901	1	11
609.240	1	10
609.579	1	4
609.919	1	-6
610.258	1	17
610.598	1	10
610.937	1	10
611.277	1	19
611.616	1	15
611.955	1	7
612.295	1	3
612.634	1	6
612.974	1	8
613.313	1	14
613.652	1	11
613.992	1	5
614.331	1	10
614.671	1	8
615.010	1	9
615.349	1	15
615.689	1	2
616.028	1	15
616.368	1	5
616.707	1	15
617.046	1	14
617.386	1	22
617.725	1	10
618.064	1	1
618.404	1	2
618.743	1	3
619.082	1	18
619.422	1	22
619.761	1	-4
620.100	1	4
620.440	1	16
620.779	1	14
621.118	1	13
621.458	1	1
621.797	1	6
622.136	1	-4
622.476	1	6
622.815	1	2
623.154	1	-7
623.494	1	-2
623.833	1	7
624.172	1	11
624.511	1	-1
624.851	1	6
625.190	1	7
625.529	1	0
625.869	1	22
626.208	1	-4
626.547	1	0
626.886	1	4
627.226	1	13
627.565	1	14
627.904	1	4
628.243	1	12
628.583	1	13
628.922	1	12
629.261	1	12
629.600	1	2
629.940	1	8
630.279	1	11
630.618	1	11
630.957	1	10
631.297	1	11
631.636	1	-1
631.975	1	8
632.314	1	10
632.653	1	5
632.993	1	12
633.332	1	4
633.671	1	18
634.010	1	6
634.349	1	15
634.689	1	4
635.028	1	1
635.367	1	6
635.706	1	5
636.045	1	1
636.384	1	10
636.724	1	2
637.063	1	0
637.402	1	10
637.741	1	-1
638.080	1	12
638.419	1	2
638.759	1	1
639.098	1	9
639.437	1	10
639.776	1	12
640.115	1	-4
640.454	1	4
640.793	1	13
641.132	1	13
641.472	1	16
641.811	1	-4
642.150	1	0
642.489	1	12
642.828	1	12
643.167	1	0
643.506	1	0
643.845	1	18
644.184	1	9
644.524	1	12
644.863	1	4
645.202	1	5
645.541	1	3
645.880	1	13
646.219	1	7
646.558	1	5
646.897	1	-8
647.236	1	-2
647.575	1	14
647.914	1	7
648.253	1	18
648.592	1	12
648.931	1	16
649.270	1	16
649.610	1	9
649.949	1	-2
650.288	1	6
650.627	1	10
650.966	1	6
651.305	1	11
651.644	1	18
651.983	1	0
652.322	1	9
652.661	1	5
653.000	1	12
653.339	1	-1
653.678	1	6
654.017	1	8
654.356	1	14
654.695	1	9
655.034	1	4
655.373	1	7
655.712	1	8
656.051	1	-2
656.390	1	2
656.729	1	7
657.068	1	1
657.406	1	6
657.745	1	21
658.084	1	6
658.423	1	13
658.762	1	9
659.101	1	6
659.440	1	11
659.779	1	8
660.118	1	3
660.457	1	6
660.796	1	18
661.135	1	12
661.474	1	10
661.813	1	2
662.152	1	6
662.491	1	-3
662.829	1	4
663.168	1	11
663.507	1	10
663.846	1	7
664.185	1	0
664.524	1	19
664.863	1	-2
665.202	1	3
665.541	1	15
665.879	1	10
666.218	1	4
666.557	1	8
666.896	1	7
667.235	1	-3
667.574	1	9
667.913	1	7
668.251	1	-8
668.590	1	1
668.929	1	-4
669.268	1	0
669.607	1	-3
669.946	1	8
670.285	1	5
670.623	1	8
670.962	1	-1
671.301	1	1
671.640	1	6
671.979	1	4
672.317	1	6
672.656	1	5
672.995	1	4
673.334	1	6
673.673	1	12
674.011	1	13
674.350	1	4
674.689	1	-3
675.028	1	1
675.367	1	6
675.705	1	-4
676.044	1	-1
676.383	1	3
676.722	1	7
677.060	1	21
677.399	1	15
677.738	1	4
678.077	1	0
678.416	1	4
678.754	1	4
679.093	1	13
679.432	1	-1
679.771	1	11
680.109	1	5
680.448	1	5
680.787	1	2
681.125	1	-7
681.464	1	11
681.803	1	3
682.142	1	7
682.480	1	5
682.819	1	6
683.158	1	6
683.496	1	1
683.835	1	17
684.174	1	8
684.512	1	17
684.851	1	5
685.190	1	6
685.529	1	-3
685.867	1	10
686.206	1	-1
686.545	1	8
686.883	1	16
687.222	1	-2
687.561	1	12
687.899	1	1
688.238	1	7
688.577	1	2
688.746	1	-1