File: Data/GaN_150K_450ms/GaN_sample D_spot15_UVVIS_150 K_200um_450 ms 2x2mm1_85.txt
340.368	1	9
340.710	1	9
341.052	1	9
341.394	1	-1
341.737	1	3
342.079	1	2
342.421	1	12
342.763	1	3
343.105	1	11
343.447	1	7
343.789	1	8
344.131	1	-6
344.473	1	5
344.815	1	5
345.157	1	16
345.499	1	1
345.841	1	6
346.183	1	12
346.526	1	14
346.868	1	5
347.210	1	-3
347.552	1	22
347.894	1	-1
348.236	1	15
348.578	1	6
348.920	1	12
349.262	1	12
349.604	1	7
349.946	1	9
350.288	1	7
350.630	1	3
350.972	1	12
351.314	1	4
351.656	1	4
351.998	1	11
352.340	1	8
352.682	1	-13
353.024	1	19
353.366	1	10
353.708	1	1
354.050	1	0
354.392	1	7
354.734	1	9
355.076	1	21
355.418	1	12
355.760	1	19
356.102	1	15
356.444	1	13
356.785	1	20
357.127	1	23
357.469	1	19
357.811	1	15
358.153	1	-1
358.495	1	21
358.837	1	20
359.179	1	33
359.521	1	25
359.863	1	20
360.205	1	38
360.547	1	49
360.889	1	25
361.231	1	43
361.572	1	37
361.914	1	47
362.256	1	54
362.598	1	49
362.940	1	55
363.282	1	52
363.624	1	65
363.966	1	64
364.308	1	80
364.649	1	85
364.991	1	96
365.333	1	87
365.675	1	110
366.017	1	123
366.359	1	111
366.701	1	126
367.042	1	126
367.384	1	120
367.726	1	128
368.068	1	134
368.410	1	155
368.752	1	150
369.093	1	148
369.435	1	135
369.777	1	139
370.119	1	126
370.461	1	119
370.803	1	116
371.144	1	113
371.486	1	113
371.828	1	94
372.170	1	92
372.512	1	79
372.853	1	92
373.195	1	68
373.537	1	63
373.879	1	71
374.220	1	83
374.562	1	70
374.904	1	65
375.246	1	60
375.588	1	44
375.929	1	63
376.271	1	55
376.613	1	53
376.955	1	38
377.296	1	55
377.638	1	46
377.980	1	46
378.321	1	38
378.663	1	38
379.005	1	39
379.347	1	36
379.688	1	49
380.030	1	44
380.372	1	37
380.714	1	34
381.055	1	30
381.397	1	31
381.739	1	28
382.080	1	25
382.422	1	29
382.764	1	30
383.105	1	23
383.447	1	34
383.789	1	22
384.130	1	23
384.472	1	25
384.814	1	29
385.156	1	18
385.497	1	38
385.839	1	26
386.180	1	16
386.522	1	26
386.864	1	11
387.205	1	22
387.547	1	25
387.889	1	24
388.230	1	26
388.572	1	15
388.914	1	21
389.255	1	18
389.597	1	27
389.939	1	29
390.280	1	20
390.622	1	7
390.963	1	8
391.305	1	13
391.647	1	14
391.988	1	16
392.330	1	13
392.671	1	15
393.013	1	26
393.355	1	22
393.696	1	22
394.038	1	11
394.379	1	19
394.721	1	19
395.062	1	8
395.404	1	10
395.746	1	5
396.087	1	19
396.429	1	18
396.770	1	20
397.112	1	10
397.453	1	3
397.795	1	13
398.136	1	22
398.478	1	14
398.819	1	10
399.161	1	16
399.503	1	13
399.844	1	8
400.186	1	10
400.527	1	18
400.869	1	13
401.210	1	8
401.552	1	22
401.893	1	12
402.235	1	12
402.576	1	23
402.918	1	4
403.259	1	14
403.601	1	23
403.942	1	6
404.284	1	20
404.625	1	6
404.967	1	13
405.308	1	8
405.649	1	15
405.991	1	21
406.332	1	4
406.674	1	15
407.015	1	16
407.357	1	27
407.698	1	20
408.040	1	16
408.381	1	8
408.722	1	16
409.064	1	16
409.405	1	14
409.747	1	14
410.088	1	20
410.430	1	14
410.771	1	14
411.112	1	13
411.454	1	18
411.795	1	10
412.137	1	5
412.478	1	14
412.819	1	11
413.161	1	13
413.502	1	14
413.844	1	18
414.185	1	18
414.526	1	3
414.868	1	7
415.209	1	16
415.550	1	10
415.892	1	25
416.233	1	13
416.575	1	13
416.916	1	21
417.257	1	12
417.599	1	24
417.940	1	9
418.281	1	29
418.623	1	12
418.964	1	24
419.305	1	15
419.647	1	19
419.988	1	26
420.329	1	12
420.671	1	19
421.012	1	15
421.353	1	23
421.695	1	19
422.036	1	27
422.377	1	16
422.718	1	23
423.060	1	20
423.401	1	12
423.742	1	18
424.084	1	11
424.425	1	26
424.766	1	15
425.107	1	9
425.449	1	15
425.790	1	28
426.131	1	6
426.472	1	25
426.814	1	23
427.155	1	13
427.496	1	13
427.837	1	11
428.179	1	24
428.520	1	18
428.861	1	14
429.202	1	-3
429.544	1	10
429.885	1	14
430.226	1	7
430.567	1	11
430.909	1	9
431.250	1	20
431.591	1	17
431.932	1	7
432.273	1	19
432.615	1	12
432.956	1	15
433.297	1	22
433.638	1	9
433.979	1	12
434.320	1	9
434.662	1	21
435.003	1	19
435.344	1	11
435.685	1	10
436.026	1	17
436.368	1	15
436.709	1	7
437.050	1	14
437.391	1	13
437.732	1	18
438.073	1	0
438.414	1	13
438.756	1	10
439.097	1	16
439.438	1	10
439.779	1	3
440.120	1	15
440.461	1	14
440.802	1	13
441.143	1	11
441.485	1	11
441.826	1	20
442.167	1	21
442.508	1	19
442.849	1	15
443.190	1	16
443.531	1	17
443.872	1	12
444.213	1	4
444.554	1	10
444.895	1	2
445.237	1	16
445.578	1	9
445.919	1	4
446.260	1	24
446.601	1	8
446.942	1	11
447.283	1	16
447.624	1	12
447.965	1	9
448.306	1	6
448.647	1	-1
448.988	1	12
449.329	1	16
449.670	1	8
450.011	1	13
450.352	1	8
450.693	1	20
451.034	1	13
451.375	1	13
451.716	1	5
452.057	1	9
452.398	1	22
452.739	1	11
453.080	1	19
453.421	1	25
453.762	1	23
454.103	1	14
454.444	1	9
454.785	1	4
455.126	1	-2
455.467	1	10
455.808	1	8
456.149	1	6
456.490	1	6
456.831	1	11
457.172	1	7
457.513	1	17
457.854	1	14
458.195	1	9
458.536	1	17
458.877	1	12
459.218	1	20
459.559	1	10
459.899	1	2
460.240	1	3
460.581	1	2
460.922	1	8
461.263	1	22
461.604	1	15
461.945	1	15
462.286	1	12
462.627	1	3
462.968	1	16
463.309	1	16
463.649	1	6
463.990	1	-1
464.331	1	10
464.672	1	13
465.013	1	9
465.354	1	18
465.695	1	3
466.036	1	15
466.376	1	16
466.717	1	1
467.058	1	9
467.399	1	3
467.740	1	20
468.081	1	4
468.422	1	15
468.762	1	9
469.103	1	11
469.444	1	11
469.785	1	5
470.126	1	11
470.467	1	8
470.807	1	17
471.148	1	2
471.489	1	19
471.830	1	5
472.171	1	16
472.511	1	15
472.852	1	13
473.193	1	14
473.534	1	10
473.875	1	17
474.215	1	9
474.556	1	2
474.897	1	0
475.238	1	16
475.578	1	4
475.919	1	6
476.260	1	9
476.601	1	7
476.942	1	8
477.282	1	1
477.623	1	7
477.964	1	12
478.305	1	14
478.645	1	10
478.986	1	15
479.327	1	10
479.667	1	8
480.008	1	11
480.349	1	10
480.690	1	17
481.030	1	5
481.371	1	-4
481.712	1	19
482.053	1	19
482.393	1	8
482.734	1	12
483.075	1	12
483.415	1	8
483.756	1	14
484.097	1	11
484.437	1	7
484.778	1	9
485.119	1	14
485.459	1	11
485.800	1	5
486.141	1	10
486.481	1	-4
486.822	1	21
487.163	1	11
487.503	1	18
487.844	1	6
488.185	1	13
488.525	1	7
488.866	1	9
489.207	1	11
489.547	1	7
489.888	1	20
490.228	1	14
490.569	1	5
490.910	1	20
491.250	1	19
491.591	1	19
491.932	1	15
492.272	1	7
492.613	1	15
492.953	1	15
493.294	1	2
493.635	1	19
493.975	1	16
494.316	1	9
494.656	1	19
494.997	1	12
495.337	1	12
495.678	1	8
496.019	1	17
496.359	1	15
496.700	1	16
497.040	1	12
497.381	1	13
497.721	1	10
498.062	1	15
498.403	1	27
498.743	1	18
499.084	1	21
499.424	1	9
499.765	1	27
500.105	1	26
500.446	1	13
500.786	1	14
501.127	1	20
501.467	1	15
501.808	1	21
502.148	1	14
502.489	1	23
502.829	1	18
503.170	1	15
503.510	1	18
503.851	1	22
504.191	1	26
504.532	1	26
504.872	1	14
505.213	1	15
505.553	1	20
505.894	1	33
506.234	1	29
506.575	1	32
506.915	1	28
507.256	1	23
507.596	1	28
507.936	1	43
508.277	1	25
508.617	1	25
508.958	1	38
509.298	1	22
509.639	1	27
509.979	1	23
510.319	1	35
510.660	1	31
511.000	1	21
511.341	1	50
511.681	1	30
512.022	1	15
512.362	1	37
512.702	1	25
513.043	1	34
513.383	1	20
513.724	1	31
514.064	1	29
514.404	1	38
514.745	1	26
515.085	1	29
515.425	1	39
515.766	1	38
516.106	1	32
516.447	1	41
516.787	1	35
517.127	1	40
517.468	1	47
517.808	1	27
518.148	1	44
518.489	1	33
518.829	1	35
519.169	1	37
519.510	1	28
519.850	1	38
520.190	1	37
520.531	1	36
520.871	1	37
521.211	1	35
521.552	1	34
521.892	1	28
522.232	1	37
522.573	1	38
522.913	1	40
523.253	1	43
523.593	1	44
523.934	1	38
524.274	1	39
524.614	1	42
524.955	1	29
525.295	1	40
525.635	1	43
525.975	1	24
526.316	1	32
526.656	1	44
526.996	1	31
527.337	1	46
527.677	1	38
528.017	1	38
528.357	1	44
528.698	1	52
529.038	1	38
529.378	1	38
529.718	1	41
530.058	1	32
530.399	1	45
530.739	1	36
531.079	1	39
531.419	1	45
531.760	1	46
532.100	1	41
532.440	1	44
532.780	1	39
533.120	1	39
533.461	1	32
533.801	1	41
534.141	1	39
534.481	1	53
534.821	1	42
535.162	1	40
535.502	1	34
535.842	1	21
536.182	1	37
536.522	1	23
536.862	1	34
537.203	1	38
537.543	1	43
537.883	1	37
538.223	1	46
538.563	1	30
538.903	1	36
539.243	1	41
539.584	1	43
539.924	1	39
540.264	1	52
540.604	1	43
540.944	1	31
541.284	1	32
541.624	1	34
541.964	1	29
542.305	1	33
542.645	1	26
542.985	1	27
543.325	1	43
543.665	1	36
544.005	1	29
544.345	1	36
544.685	1	26
545.025	1	40
545.365	1	33
545.705	1	29
546.045	1	34
546.386	1	29
546.726	1	36
547.066	1	39
547.406	1	31
547.746	1	27
548.086	1	33
548.426	1	37
548.766	1	46
549.106	1	36
549.446	1	34
549.786	1	37
550.126	1	39
550.466	1	25
550.806	1	37
551.146	1	34
551.486	1	32
551.826	1	37
552.166	1	36
552.506	1	29
552.846	1	30
553.186	1	29
553.526	1	41
553.866	1	30
554.206	1	32
554.546	1	34
554.886	1	22
555.226	1	38
555.566	1	17
555.906	1	21
556.246	1	37
556.586	1	24
556.926	1	32
557.266	1	42
557.606	1	13
557.946	1	27
558.286	1	18
558.626	1	24
558.966	1	29
559.306	1	37
559.646	1	30
559.986	1	25
560.325	1	31
560.665	1	35
561.005	1	17
561.345	1	18
561.685	1	25
562.025	1	22
562.365	1	14
562.705	1	33
563.045	1	17
563.385	1	18
563.725	1	23
564.064	1	15
564.404	1	22
564.744	1	32
565.084	1	28
565.424	1	19
565.764	1	19
566.104	1	22
566.444	1	26
566.783	1	23
567.123	1	20
567.463	1	20
567.803	1	21
568.143	1	27
568.483	1	25
568.823	1	18
569.162	1	6
569.502	1	22
569.842	1	14
570.182	1	17
570.522	1	20
570.862	1	4
571.201	1	26
571.541	1	13
571.881	1	18
572.221	1	17
572.561	1	22
572.900	1	19
573.240	1	13
573.580	1	18
573.920	1	27
574.260	1	24
574.599	1	16
574.939	1	17
575.279	1	13
575.619	1	14
575.959	1	6
576.298	1	1
576.638	1	19
576.978	1	14
577.318	1	14
577.657	1	19
577.997	1	19
578.337	1	14
578.677	1	25
579.016	1	15
579.356	1	21
579.696	1	9
580.036	1	17
580.375	1	26
580.715	1	22
581.055	1	16
581.394	1	18
581.734	1	16
582.074	1	7
582.414	1	15
582.753	1	6
583.093	1	17
583.433	1	17
583.772	1	26
584.112	1	6
584.452	1	14
584.791	1	16
585.131	1	16
585.471	1	22
585.811	1	16
586.150	1	19
586.490	1	10
586.830	1	9
587.169	1	18
587.509	1	7
587.849	1	19
588.188	1	13
588.528	1	7
588.867	1	14
589.207	1	16
589.547	1	15
589.886	1	17
590.226	1	8
590.566	1	7
590.905	1	8
591.245	1	4
591.585	1	11
591.924	1	1
592.264	1	6
592.603	1	0
592.943	1	14
593.283	1	12
593.622	1	12
593.962	1	18
594.301	1	-2
594.641	1	16
594.981	1	14
595.320	1	11
595.660	1	11
595.999	1	3
596.339	1	14
596.678	1	14
597.018	1	6
597.358	1	8
597.697	1	6
598.037	1	6
598.376	1	3
598.716	1	10
599.055	1	3
599.395	1	5
599.734	1	17
600.074	1	8
600.413	1	14
600.753	1	17
601.092	1	-2
601.432	1	-2
601.771	1	18
602.111	1	17
602.451	1	9
602.790	1	5
603.130	1	5
603.469	1	7
603.809	1	7
604.148	1	2
604.487	1	4
604.827	1	11
605.166	1	13
605.506	1	3
605.845	1	16
606.185	1	5
606.524	1	2
606.864	1	26
607.203	1	18
607.543	1	6
607.882	1	15
608.222	1	10
608.561	1	13
608.901	1	11
609.240	1	11
609.579	1	0
609.919	1	6
610.258	1	10
610.598	1	-2
610.937	1	17
611.277	1	1
611.616	1	14
611.955	1	0
612.295	1	16
612.634	1	12
612.974	1	3
613.313	1	13
613.652	1	24
613.992	1	8
614.331	1	19
614.671	1	10
615.010	1	12
615.349	1	6
615.689	1	0
616.028	1	22
616.368	1	18
616.707	1	3
617.046	1	7
617.386	1	10
617.725	1	14
618.064	1	3
618.404	1	2
618.743	1	10
619.082	1	23
619.422	1	17
619.761	1	2
620.100	1	16
620.440	1	13
620.779	1	23
621.118	1	13
621.458	1	10
621.797	1	13
622.136	1	5
622.476	1	15
622.815	1	25
623.154	1	-3
623.494	1	2
623.833	1	6
624.172	1	18
624.511	1	6
624.851	1	4
625.190	1	1
625.529	1	2
625.869	1	11
626.208	1	-3
626.547	1	-1
626.886	1	6
627.226	1	10
627.565	1	17
627.904	1	5
628.243	1	11
628.583	1	17
628.922	1	13
629.261	1	10
629.600	1	10
629.940	1	16
630.279	1	13
630.618	1	12
630.957	1	10
631.297	1	18
631.636	1	10
631.975	1	3
632.314	1	2
632.653	1	7
632.993	1	5
633.332	1	5
633.671	1	22
634.010	1	4
634.349	1	15
634.689	1	1
635.028	1	3
635.367	1	18
635.706	1	13
636.045	1	-3
636.384	1	21
636.724	1	12
637.063	1	7
637.402	1	9
637.741	1	3
638.080	1	8
638.419	1	6
638.759	1	8
639.098	1	3
639.437	1	9
639.776	1	14
640.115	1	7
640.454	1	8
640.793	1	14
641.132	1	7
641.472	1	17
641.811	1	-2
642.150	1	1
642.489	1	9
642.828	1	21
643.167	1	5
643.506	1	11
643.845	1	22
644.184	1	12
644.524	1	2
644.863	1	0
645.202	1	7
645.541	1	2
645.880	1	14
646.219	1	11
646.558	1	-10
646.897	1	-1
647.236	1	-2
647.575	1	15
647.914	1	3
648.253	1	12
648.592	1	7
648.931	1	10
649.270	1	15
649.610	1	7
649.949	1	9
650.288	1	7
650.627	1	0
650.966	1	5
651.305	1	6
651.644	1	11
651.983	1	2
652.322	1	7
652.661	1	-1
653.000	1	7
653.339	1	8
653.678	1	20
654.017	1	18
654.356	1	11
654.695	1	24
655.034	1	3
655.373	1	14
655.712	1	8
656.051	1	6
656.390	1	12
656.729	1	12
657.068	1	-2
657.406	1	2
657.745	1	16
658.084	1	5
658.423	1	8
658.762	1	8
659.101	1	11
659.440	1	5
659.779	1	11
660.118	1	10
660.457	1	8
660.796	1	16
661.135	1	7
661.474	1	11
661.813	1	9
662.152	1	0
662.491	1	-3
662.829	1	14
663.168	1	7
663.507	1	5
663.846	1	-2
664.185	1	11
664.524	1	5
664.863	1	5
665.202	1	14
665.541	1	11
665.879	1	8
666.218	1	8
666.557	1	6
666.896	1	8
667.235	1	-5
667.574	1	2
667.913	1	21
668.251	1	-8
668.590	1	6
668.929	1	8
669.268	1	-2
669.607	1	-6
669.946	1	3
670.285	1	9
670.623	1	2
670.962	1	-2
671.301	1	11
671.640	1	0
671.979	1	1
672.317	1	15
672.656	1	13
672.995	1	-1
673.334	1	7
673.673	1	16
674.011	1	8
674.350	1	8
674.689	1	-6
675.028	1	9
675.367	1	12
675.705	1	-3
676.044	1	3
676.383	1	4
676.722	1	7
677.060	1	14
677.399	1	14
677.738	1	3
678.077	1	10
678.416	1	10
678.754	1	12
679.093	1	8
679.432	1	3
679.771	1	3
680.109	1	10
680.448	1	0
680.787	1	-6
681.125	1	9
681.464	1	12
681.803	1	-7
682.142	1	5
682.480	1	-5
682.819	1	1
683.158	1	-1
683.496	1	-3
683.835	1	6
684.174	1	8
684.512	1	1
684.851	1	-3
685.190	1	17
685.529	1	2
685.867	1	2
686.206	1	-3
686.545	1	5
686.883	1	11
687.222	1	8
687.561	1	3
687.899	1	1
688.238	1	16
688.577	1	8
688.746	1	9