File: Data/GaN_150K_450ms/GaN_sample D_spot15_UVVIS_150 K_200um_450 ms 2x2mm1_230.txt
340.368	1	-2
340.710	1	6
341.052	1	2
341.394	1	-11
341.737	1	3
342.079	1	13
342.421	1	-1
342.763	1	5
343.105	1	4
343.447	1	5
343.789	1	3
344.131	1	-6
344.473	1	1
344.815	1	4
345.157	1	-1
345.499	1	2
345.841	1	11
346.183	1	2
346.526	1	14
346.868	1	-2
347.210	1	-8
347.552	1	13
347.894	1	-7
348.236	1	0
348.578	1	10
348.920	1	0
349.262	1	-1
349.604	1	-5
349.946	1	6
350.288	1	-14
350.630	1	-3
350.972	1	5
351.314	1	3
351.656	1	10
351.998	1	-2
352.340	1	9
352.682	1	-15
353.024	1	16
353.366	1	3
353.708	1	8
354.050	1	-9
354.392	1	-12
354.734	1	2
355.076	1	16
355.418	1	-2
355.760	1	12
356.102	1	-5
356.444	1	14
356.785	1	9
357.127	1	8
357.469	1	2
357.811	1	6
358.153	1	-3
358.495	1	4
358.837	1	9
359.179	1	15
359.521	1	10
359.863	1	0
360.205	1	2
360.547	1	14
360.889	1	7
361.231	1	6
361.572	1	10
361.914	1	4
362.256	1	9
362.598	1	15
362.940	1	20
363.282	1	7
363.624	1	11
363.966	1	4
364.308	1	15
364.649	1	14
364.991	1	10
365.333	1	12
365.675	1	16
366.017	1	16
366.359	1	6
366.701	1	8
367.042	1	15
367.384	1	7
367.726	1	16
368.068	1	22
368.410	1	23
368.752	1	17
369.093	1	20
369.435	1	25
369.777	1	31
370.119	1	21
370.461	1	9
370.803	1	5
371.144	1	10
371.486	1	28
371.828	1	11
372.170	1	13
372.512	1	9
372.853	1	12
373.195	1	10
373.537	1	-4
373.879	1	4
374.220	1	8
374.562	1	11
374.904	1	13
375.246	1	3
375.588	1	6
375.929	1	11
376.271	1	13
376.613	1	8
376.955	1	4
377.296	1	14
377.638	1	0
377.980	1	1
378.321	1	15
378.663	1	12
379.005	1	12
379.347	1	6
379.688	1	13
380.030	1	12
380.372	1	17
380.714	1	12
381.055	1	9
381.397	1	-4
381.739	1	-1
382.080	1	13
382.422	1	18
382.764	1	8
383.105	1	-3
383.447	1	6
383.789	1	0
384.130	1	6
384.472	1	3
384.814	1	6
385.156	1	-2
385.497	1	13
385.839	1	3
386.180	1	2
386.522	1	5
386.864	1	3
387.205	1	3
387.547	1	5
387.889	1	5
388.230	1	11
388.572	1	2
388.914	1	6
389.255	1	7
389.597	1	2
389.939	1	1
390.280	1	-2
390.622	1	-1
390.963	1	1
391.305	1	5
391.647	1	-1
391.988	1	1
392.330	1	2
392.671	1	11
393.013	1	16
393.355	1	3
393.696	1	5
394.038	1	2
394.379	1	5
394.721	1	9
395.062	1	-1
395.404	1	8
395.746	1	-5
396.087	1	7
396.429	1	14
396.770	1	5
397.112	1	-3
397.453	1	-4
397.795	1	2
398.136	1	0
398.478	1	7
398.819	1	5
399.161	1	-1
399.503	1	13
399.844	1	-1
400.186	1	-1
400.527	1	12
400.869	1	-1
401.210	1	3
401.552	1	1
401.893	1	6
402.235	1	6
402.576	1	7
402.918	1	1
403.259	1	-5
403.601	1	13
403.942	1	1
404.284	1	10
404.625	1	-2
404.967	1	-4
405.308	1	-5
405.649	1	4
405.991	1	6
406.332	1	-2
406.674	1	8
407.015	1	8
407.357	1	4
407.698	1	-3
408.040	1	17
408.381	1	-1
408.722	1	4
409.064	1	2
409.405	1	-1
409.747	1	8
410.088	1	6
410.430	1	12
410.771	1	10
411.112	1	4
411.454	1	1
411.795	1	0
412.137	1	-3
412.478	1	8
412.819	1	8
413.161	1	8
413.502	1	17
413.844	1	8
414.185	1	1
414.526	1	-6
414.868	1	-7
415.209	1	-3
415.550	1	8
415.892	1	11
416.233	1	7
416.575	1	7
416.916	1	0
417.257	1	-6
417.599	1	9
417.940	1	-5
418.281	1	10
418.623	1	-1
418.964	1	21
419.305	1	5
419.647	1	-7
419.988	1	11
420.329	1	4
420.671	1	4
421.012	1	-1
421.353	1	11
421.695	1	1
422.036	1	21
422.377	1	3
422.718	1	13
423.060	1	9
423.401	1	13
423.742	1	10
424.084	1	-5
424.425	1	11
424.766	1	0
425.107	1	1
425.449	1	-6
425.790	1	12
426.131	1	-3
426.472	1	12
426.814	1	5
427.155	1	10
427.496	1	0
427.837	1	-1
428.179	1	24
428.520	1	13
428.861	1	-1
429.202	1	-5
429.544	1	3
429.885	1	1
430.226	1	-11
430.567	1	-3
430.909	1	-4
431.250	1	10
431.591	1	4
431.932	1	9
432.273	1	14
432.615	1	10
432.956	1	9
433.297	1	13
433.638	1	10
433.979	1	3
434.320	1	5
434.662	1	3
435.003	1	13
435.344	1	-10
435.685	1	4
436.026	1	2
436.368	1	-3
436.709	1	-4
437.050	1	3
437.391	1	4
437.732	1	2
438.073	1	5
438.414	1	7
438.756	1	0
439.097	1	3
439.438	1	6
439.779	1	5
440.120	1	2
440.461	1	11
440.802	1	4
441.143	1	2
441.485	1	3
441.826	1	-1
442.167	1	14
442.508	1	13
442.849	1	6
443.190	1	12
443.531	1	-2
443.872	1	-12
444.213	1	-11
444.554	1	8
444.895	1	4
445.237	1	12
445.578	1	2
445.919	1	2
446.260	1	9
446.601	1	8
446.942	1	-2
447.283	1	4
447.624	1	-7
447.965	1	-2
448.306	1	-1
448.647	1	2
448.988	1	10
449.329	1	14
449.670	1	-5
450.011	1	6
450.352	1	2
450.693	1	10
451.034	1	-1
451.375	1	-1
451.716	1	0
452.057	1	11
452.398	1	11
452.739	1	7
453.080	1	10
453.421	1	7
453.762	1	11
454.103	1	-2
454.444	1	0
454.785	1	3
455.126	1	2
455.467	1	-3
455.808	1	7
456.149	1	5
456.490	1	0
456.831	1	-1
457.172	1	-1
457.513	1	1
457.854	1	5
458.195	1	-5
458.536	1	9
458.877	1	-1
459.218	1	6
459.559	1	5
459.899	1	-1
460.240	1	0
460.581	1	-5
460.922	1	-1
461.263	1	4
461.604	1	3
461.945	1	6
462.286	1	4
462.627	1	6
462.968	1	8
463.309	1	-2
463.649	1	-5
463.990	1	6
464.331	1	10
464.672	1	4
465.013	1	-3
465.354	1	10
465.695	1	-2
466.036	1	6
466.376	1	7
466.717	1	-5
467.058	1	-3
467.399	1	-1
467.740	1	16
468.081	1	-2
468.422	1	3
468.762	1	5
469.103	1	5
469.444	1	-3
469.785	1	-1
470.126	1	0
470.467	1	-1
470.807	1	7
471.148	1	0
471.489	1	10
471.830	1	6
472.171	1	1
472.511	1	8
472.852	1	6
473.193	1	5
473.534	1	3
473.875	1	-1
474.215	1	2
474.556	1	-6
474.897	1	-1
475.238	1	4
475.578	1	2
475.919	1	-7
476.260	1	9
476.601	1	4
476.942	1	2
477.282	1	-6
477.623	1	0
477.964	1	2
478.305	1	5
478.645	1	11
478.986	1	3
479.327	1	8
479.667	1	7
480.008	1	3
480.349	1	-4
480.690	1	6
481.030	1	-7
481.371	1	-6
481.712	1	14
482.053	1	11
482.393	1	-4
482.734	1	9
483.075	1	1
483.415	1	-2
483.756	1	0
484.097	1	9
484.437	1	2
484.778	1	-1
485.119	1	6
485.459	1	-3
485.800	1	-4
486.141	1	5
486.481	1	0
486.822	1	7
487.163	1	5
487.503	1	4
487.844	1	-4
488.185	1	1
488.525	1	-2
488.866	1	-1
489.207	1	8
489.547	1	4
489.888	1	6
490.228	1	-1
490.569	1	-10
490.910	1	6
491.250	1	-2
491.591	1	8
491.932	1	6
492.272	1	-8
492.613	1	-1
492.953	1	5
493.294	1	1
493.635	1	2
493.975	1	8
494.316	1	-7
494.656	1	8
494.997	1	-3
495.337	1	0
495.678	1	0
496.019	1	-4
496.359	1	4
496.700	1	9
497.040	1	-6
497.381	1	-2
497.721	1	-2
498.062	1	-7
498.403	1	9
498.743	1	-3
499.084	1	1
499.424	1	1
499.765	1	3
500.105	1	14
500.446	1	-8
500.786	1	-8
501.127	1	0
501.467	1	8
501.808	1	7
502.148	1	-3
502.489	1	7
502.829	1	0
503.170	1	6
503.510	1	-1
503.851	1	6
504.191	1	1
504.532	1	14
504.872	1	-3
505.213	1	-1
505.553	1	2
505.894	1	3
506.234	1	8
506.575	1	17
506.915	1	1
507.256	1	6
507.596	1	10
507.936	1	10
508.277	1	15
508.617	1	11
508.958	1	12
509.298	1	0
509.639	1	-5
509.979	1	8
510.319	1	10
510.660	1	-2
511.000	1	5
511.341	1	7
511.681	1	5
512.022	1	0
512.362	1	8
512.702	1	-11
513.043	1	16
513.383	1	0
513.724	1	3
514.064	1	9
514.404	1	12
514.745	1	0
515.085	1	12
515.425	1	9
515.766	1	3
516.106	1	-4
516.447	1	9
516.787	1	8
517.127	1	17
517.468	1	12
517.808	1	-6
518.148	1	7
518.489	1	3
518.829	1	4
519.169	1	-9
519.510	1	-4
519.850	1	-1
520.190	1	-1
520.531	1	0
520.871	1	2
521.211	1	8
521.552	1	-3
521.892	1	6
522.232	1	1
522.573	1	-2
522.913	1	14
523.253	1	16
523.593	1	5
523.934	1	8
524.274	1	7
524.614	1	9
524.955	1	-1
525.295	1	6
525.635	1	4
525.975	1	-1
526.316	1	-7
526.656	1	12
526.996	1	2
527.337	1	17
527.677	1	9
528.017	1	10
528.357	1	9
528.698	1	14
529.038	1	12
529.378	1	4
529.718	1	0
530.058	1	-6
530.399	1	2
530.739	1	11
531.079	1	4
531.419	1	10
531.760	1	18
532.100	1	22
532.440	1	8
532.780	1	4
533.120	1	6
533.461	1	5
533.801	1	12
534.141	1	5
534.481	1	16
534.821	1	5
535.162	1	3
535.502	1	4
535.842	1	0
536.182	1	6
536.522	1	14
536.862	1	0
537.203	1	5
537.543	1	11
537.883	1	-2
538.223	1	10
538.563	1	0
538.903	1	-7
539.243	1	2
539.584	1	8
539.924	1	0
540.264	1	16
540.604	1	14
540.944	1	6
541.284	1	3
541.624	1	8
541.964	1	5
542.305	1	9
542.645	1	6
542.985	1	5
543.325	1	7
543.665	1	3
544.005	1	3
544.345	1	6
544.685	1	0
545.025	1	6
545.365	1	8
545.705	1	4
546.045	1	8
546.386	1	1
546.726	1	4
547.066	1	-5
547.406	1	-3
547.746	1	-5
548.086	1	-4
548.426	1	12
548.766	1	8
549.106	1	2
549.446	1	4
549.786	1	4
550.126	1	5
550.466	1	3
550.806	1	20
551.146	1	4
551.486	1	-1
551.826	1	-8
552.166	1	5
552.506	1	4
552.846	1	9
553.186	1	-8
553.526	1	0
553.866	1	10
554.206	1	7
554.546	1	14
554.886	1	-2
555.226	1	-3
555.566	1	8
555.906	1	4
556.246	1	8
556.586	1	6
556.926	1	1
557.266	1	6
557.606	1	-5
557.946	1	7
558.286	1	-12
558.626	1	-1
558.966	1	8
559.306	1	11
559.646	1	10
559.986	1	4
560.325	1	6
560.665	1	5
561.005	1	4
561.345	1	4
561.685	1	12
562.025	1	-2
562.365	1	7
562.705	1	6
563.045	1	9
563.385	1	-1
563.725	1	-1
564.064	1	4
564.404	1	1
564.744	1	8
565.084	1	6
565.424	1	1
565.764	1	-3
566.104	1	18
566.444	1	8
566.783	1	0
567.123	1	2
567.463	1	3
567.803	1	10
568.143	1	2
568.483	1	1
568.823	1	5
569.162	1	-8
569.502	1	-2
569.842	1	-2
570.182	1	-5
570.522	1	3
570.862	1	-10
571.201	1	8
571.541	1	0
571.881	1	-1
572.221	1	6
572.561	1	8
572.900	1	17
573.240	1	0
573.580	1	2
573.920	1	17
574.260	1	0
574.599	1	4
574.939	1	8
575.279	1	2
575.619	1	-7
575.959	1	8
576.298	1	-4
576.638	1	6
576.978	1	1
577.318	1	7
577.657	1	8
577.997	1	7
578.337	1	4
578.677	1	2
579.016	1	-1
579.356	1	0
579.696	1	4
580.036	1	-1
580.375	1	0
580.715	1	-1
581.055	1	13
581.394	1	4
581.734	1	-1
582.074	1	2
582.414	1	0
582.753	1	-1
583.093	1	8
583.433	1	2
583.772	1	11
584.112	1	1
584.452	1	9
584.791	1	9
585.131	1	10
585.471	1	2
585.811	1	4
586.150	1	3
586.490	1	-4
586.830	1	4
587.169	1	-2
587.509	1	5
587.849	1	8
588.188	1	7
588.528	1	-2
588.867	1	8
589.207	1	11
589.547	1	6
589.886	1	2
590.226	1	-3
590.566	1	6
590.905	1	10
591.245	1	-3
591.585	1	-8
591.924	1	8
592.264	1	-1
592.603	1	-10
592.943	1	5
593.283	1	10
593.622	1	2
593.962	1	2
594.301	1	-4
594.641	1	3
594.981	1	5
595.320	1	11
595.660	1	4
595.999	1	-4
596.339	1	-9
596.678	1	-6
597.018	1	4
597.358	1	0
597.697	1	-5
598.037	1	-3
598.376	1	-9
598.716	1	2
599.055	1	11
599.395	1	-4
599.734	1	11
600.074	1	-5
600.413	1	0
600.753	1	8
601.092	1	-6
601.432	1	-1
601.771	1	8
602.111	1	0
602.451	1	-5
602.790	1	6
603.130	1	6
603.469	1	9
603.809	1	2
604.148	1	-6
604.487	1	4
604.827	1	4
605.166	1	10
605.506	1	-4
605.845	1	7
606.185	1	-5
606.524	1	-6
606.864	1	12
607.203	1	8
607.543	1	0
607.882	1	7
608.222	1	-5
608.561	1	10
608.901	1	10
609.240	1	2
609.579	1	-1
609.919	1	-10
610.258	1	9
610.598	1	-4
610.937	1	8
611.277	1	1
611.616	1	12
611.955	1	-7
612.295	1	7
612.634	1	1
612.974	1	0
613.313	1	5
613.652	1	4
613.992	1	-6
614.331	1	12
614.671	1	6
615.010	1	-4
615.349	1	1
615.689	1	3
616.028	1	15
616.368	1	10
616.707	1	7
617.046	1	2
617.386	1	13
617.725	1	-3
618.064	1	1
618.404	1	0
618.743	1	1
619.082	1	13
619.422	1	17
619.761	1	2
620.100	1	3
620.440	1	5
620.779	1	8
621.118	1	13
621.458	1	1
621.797	1	7
622.136	1	4
622.476	1	-3
622.815	1	-1
623.154	1	-5
623.494	1	-11
623.833	1	1
624.172	1	-6
624.511	1	1
624.851	1	-3
625.190	1	4
625.529	1	3
625.869	1	10
626.208	1	-4
626.547	1	-7
626.886	1	-4
627.226	1	4
627.565	1	5
627.904	1	2
628.243	1	16
628.583	1	3
628.922	1	3
629.261	1	3
629.600	1	9
629.940	1	8
630.279	1	15
630.618	1	1
630.957	1	6
631.297	1	1
631.636	1	2
631.975	1	5
632.314	1	3
632.653	1	1
632.993	1	-5
633.332	1	8
633.671	1	5
634.010	1	-1
634.349	1	12
634.689	1	0
635.028	1	-2
635.367	1	6
635.706	1	0
636.045	1	-6
636.384	1	4
636.724	1	5
637.063	1	-4
637.402	1	7
637.741	1	-2
638.080	1	1
638.419	1	8
638.759	1	-1
639.098	1	3
639.437	1	5
639.776	1	9
640.115	1	-5
640.454	1	-5
640.793	1	1
641.132	1	3
641.472	1	11
641.811	1	-8
642.150	1	-2
642.489	1	9
642.828	1	11
643.167	1	4
643.506	1	-8
643.845	1	14
644.184	1	14
644.524	1	-3
644.863	1	-1
645.202	1	3
645.541	1	1
645.880	1	8
646.219	1	3
646.558	1	-2
646.897	1	-6
647.236	1	-2
647.575	1	11
647.914	1	-7
648.253	1	13
648.592	1	6
648.931	1	15
649.270	1	17
649.610	1	1
649.949	1	-4
650.288	1	-1
650.627	1	2
650.966	1	2
651.305	1	-2
651.644	1	11
651.983	1	0
652.322	1	0
652.661	1	0
653.000	1	4
653.339	1	1
653.678	1	7
654.017	1	13
654.356	1	6
654.695	1	14
655.034	1	-2
655.373	1	5
655.712	1	13
656.051	1	-4
656.390	1	7
656.729	1	10
657.068	1	4
657.406	1	1
657.745	1	3
658.084	1	1
658.423	1	6
658.762	1	-5
659.101	1	9
659.440	1	12
659.779	1	5
660.118	1	9
660.457	1	3
660.796	1	16
661.135	1	3
661.474	1	1
661.813	1	5
662.152	1	7
662.491	1	2
662.829	1	-6
663.168	1	-6
663.507	1	6
663.846	1	-11
664.185	1	4
664.524	1	10
664.863	1	4
665.202	1	-1
665.541	1	1
665.879	1	4
666.218	1	5
666.557	1	-1
666.896	1	1
667.235	1	-2
667.574	1	1
667.913	1	-2
668.251	1	-6
668.590	1	1
668.929	1	-9
669.268	1	4
669.607	1	-9
669.946	1	0
670.285	1	-6
670.623	1	3
670.962	1	-4
671.301	1	0
671.640	1	11
671.979	1	2
672.317	1	13
672.656	1	10
672.995	1	1
673.334	1	-4
673.673	1	7
674.011	1	17
674.350	1	4
674.689	1	-4
675.028	1	1
675.367	1	7
675.705	1	-7
676.044	1	4
676.383	1	10
676.722	1	-2
677.060	1	1
677.399	1	10
677.738	1	1
678.077	1	5
678.416	1	3
678.754	1	5
679.093	1	8
679.432	1	-4
679.771	1	2
680.109	1	2
680.448	1	1
680.787	1	-8
681.125	1	3
681.464	1	0
681.803	1	-7
682.142	1	-5
682.480	1	1
682.819	1	4
683.158	1	-2
683.496	1	-3
683.835	1	-5
684.174	1	-4
684.512	1	4
684.851	1	-4
685.190	1	6
685.529	1	-4
685.867	1	2
686.206	1	-4
686.545	1	8
686.883	1	-2
687.222	1	2
687.561	1	-1
687.899	1	7
688.238	1	15
688.577	1	5
688.746	1	-5