File: Data/GaN_150K_450ms/GaN_sample D_spot15_UVVIS_150 K_200um_450 ms 2x2mm1_338.txt
340.368	1	5
340.710	1	1
341.052	1	1
341.394	1	-2
341.737	1	0
342.079	1	10
342.421	1	1
342.763	1	2
343.105	1	3
343.447	1	4
343.789	1	1
344.131	1	-9
344.473	1	2
344.815	1	-2
345.157	1	12
345.499	1	2
345.841	1	2
346.183	1	-3
346.526	1	12
346.868	1	0
347.210	1	-2
347.552	1	17
347.894	1	-9
348.236	1	-1
348.578	1	10
348.920	1	-6
349.262	1	3
349.604	1	6
349.946	1	1
350.288	1	-6
350.630	1	4
350.972	1	7
351.314	1	-4
351.656	1	7
351.998	1	13
352.340	1	12
352.682	1	-7
353.024	1	8
353.366	1	-2
353.708	1	-3
354.050	1	-8
354.392	1	-3
354.734	1	5
355.076	1	20
355.418	1	-3
355.760	1	10
356.102	1	1
356.444	1	12
356.785	1	1
357.127	1	0
357.469	1	0
357.811	1	-3
358.153	1	-17
358.495	1	-1
358.837	1	7
359.179	1	3
359.521	1	4
359.863	1	6
360.205	1	-1
360.547	1	-2
360.889	1	-6
361.231	1	4
361.572	1	6
361.914	1	0
362.256	1	5
362.598	1	10
362.940	1	9
363.282	1	-8
363.624	1	3
363.966	1	-1
364.308	1	6
364.649	1	5
364.991	1	4
365.333	1	1
365.675	1	18
366.017	1	9
366.359	1	-4
366.701	1	3
367.042	1	3
367.384	1	1
367.726	1	1
368.068	1	10
368.410	1	7
368.752	1	20
369.093	1	16
369.435	1	14
369.777	1	23
370.119	1	18
370.461	1	8
370.803	1	10
371.144	1	3
371.486	1	13
371.828	1	-1
372.170	1	9
372.512	1	7
372.853	1	3
373.195	1	5
373.537	1	-6
373.879	1	7
374.220	1	9
374.562	1	13
374.904	1	5
375.246	1	7
375.588	1	-1
375.929	1	7
376.271	1	-3
376.613	1	8
376.955	1	-5
377.296	1	6
377.638	1	-2
377.980	1	5
378.321	1	2
378.663	1	9
379.005	1	13
379.347	1	2
379.688	1	12
380.030	1	6
380.372	1	-3
380.714	1	7
381.055	1	-3
381.397	1	8
381.739	1	-7
382.080	1	6
382.422	1	14
382.764	1	-6
383.105	1	2
383.447	1	-4
383.789	1	-10
384.130	1	5
384.472	1	5
384.814	1	4
385.156	1	0
385.497	1	11
385.839	1	5
386.180	1	0
386.522	1	1
386.864	1	0
387.205	1	-2
387.547	1	6
387.889	1	-2
388.230	1	-1
388.572	1	-1
388.914	1	6
389.255	1	5
389.597	1	3
389.939	1	14
390.280	1	-14
390.622	1	-7
390.963	1	-13
391.305	1	0
391.647	1	-8
391.988	1	2
392.330	1	-2
392.671	1	-7
393.013	1	6
393.355	1	5
393.696	1	1
394.038	1	11
394.379	1	3
394.721	1	-3
395.062	1	-6
395.404	1	14
395.746	1	-2
396.087	1	8
396.429	1	1
396.770	1	-5
397.112	1	4
397.453	1	-1
397.795	1	-4
398.136	1	5
398.478	1	-3
398.819	1	-6
399.161	1	7
399.503	1	5
399.844	1	-7
400.186	1	7
400.527	1	4
400.869	1	0
401.210	1	0
401.552	1	2
401.893	1	-1
402.235	1	7
402.576	1	6
402.918	1	-2
403.259	1	7
403.601	1	8
403.942	1	3
404.284	1	8
404.625	1	0
404.967	1	8
405.308	1	-10
405.649	1	-3
405.991	1	6
406.332	1	-1
406.674	1	-4
407.015	1	5
407.357	1	-4
407.698	1	4
408.040	1	10
408.381	1	-10
408.722	1	6
409.064	1	10
409.405	1	2
409.747	1	-4
410.088	1	8
410.430	1	5
410.771	1	11
411.112	1	-9
411.454	1	1
411.795	1	1
412.137	1	-9
412.478	1	8
412.819	1	9
413.161	1	2
413.502	1	-7
413.844	1	10
414.185	1	-3
414.526	1	-1
414.868	1	-3
415.209	1	-3
415.550	1	4
415.892	1	4
416.233	1	3
416.575	1	-11
416.916	1	5
417.257	1	-5
417.599	1	5
417.940	1	-8
418.281	1	3
418.623	1	-5
418.964	1	10
419.305	1	12
419.647	1	11
419.988	1	17
420.329	1	-5
420.671	1	13
421.012	1	-10
421.353	1	4
421.695	1	5
422.036	1	11
422.377	1	2
422.718	1	10
423.060	1	10
423.401	1	0
423.742	1	7
424.084	1	6
424.425	1	10
424.766	1	-4
425.107	1	3
425.449	1	-6
425.790	1	-5
426.131	1	2
426.472	1	17
426.814	1	0
427.155	1	4
427.496	1	-4
427.837	1	1
428.179	1	16
428.520	1	6
428.861	1	8
429.202	1	-2
429.544	1	2
429.885	1	7
430.226	1	-9
430.567	1	-7
430.909	1	-1
431.250	1	8
431.591	1	1
431.932	1	3
432.273	1	4
432.615	1	2
432.956	1	0
433.297	1	0
433.638	1	7
433.979	1	7
434.320	1	5
434.662	1	10
435.003	1	10
435.344	1	-5
435.685	1	-8
436.026	1	-9
436.368	1	6
436.709	1	-9
437.050	1	-1
437.391	1	6
437.732	1	7
438.073	1	-8
438.414	1	7
438.756	1	2
439.097	1	-2
439.438	1	0
439.779	1	-6
440.120	1	2
440.461	1	15
440.802	1	-4
441.143	1	3
441.485	1	-4
441.826	1	6
442.167	1	7
442.508	1	6
442.849	1	-1
443.190	1	2
443.531	1	1
443.872	1	-1
444.213	1	-6
444.554	1	0
444.895	1	6
445.237	1	4
445.578	1	2
445.919	1	0
446.260	1	12
446.601	1	-1
446.942	1	-7
447.283	1	6
447.624	1	-1
447.965	1	3
448.306	1	10
448.647	1	0
448.988	1	2
449.329	1	1
449.670	1	2
450.011	1	-4
450.352	1	-5
450.693	1	-1
451.034	1	1
451.375	1	-6
451.716	1	-9
452.057	1	7
452.398	1	3
452.739	1	7
453.080	1	7
453.421	1	7
453.762	1	1
454.103	1	7
454.444	1	-3
454.785	1	6
455.126	1	2
455.467	1	3
455.808	1	9
456.149	1	-2
456.490	1	-2
456.831	1	5
457.172	1	8
457.513	1	-8
457.854	1	4
458.195	1	8
458.536	1	7
458.877	1	4
459.218	1	4
459.559	1	-4
459.899	1	2
460.240	1	5
460.581	1	-2
460.922	1	4
461.263	1	10
461.604	1	5
461.945	1	-1
462.286	1	-3
462.627	1	-2
462.968	1	1
463.309	1	0
463.649	1	6
463.990	1	-2
464.331	1	4
464.672	1	1
465.013	1	6
465.354	1	17
465.695	1	6
466.036	1	3
466.376	1	8
466.717	1	-8
467.058	1	2
467.399	1	1
467.740	1	6
468.081	1	11
468.422	1	2
468.762	1	10
469.103	1	8
469.444	1	-1
469.785	1	-4
470.126	1	10
470.467	1	0
470.807	1	7
471.148	1	-5
471.489	1	10
471.830	1	-2
472.171	1	13
472.511	1	-11
472.852	1	6
473.193	1	-1
473.534	1	6
473.875	1	0
474.215	1	-4
474.556	1	-9
474.897	1	-7
475.238	1	7
475.578	1	1
475.919	1	1
476.260	1	-2
476.601	1	-3
476.942	1	-2
477.282	1	-2
477.623	1	6
477.964	1	0
478.305	1	-4
478.645	1	3
478.986	1	7
479.327	1	4
479.667	1	-10
480.008	1	3
480.349	1	-1
480.690	1	14
481.030	1	-5
481.371	1	-6
481.712	1	-1
482.053	1	5
482.393	1	8
482.734	1	4
483.075	1	0
483.415	1	1
483.756	1	1
484.097	1	6
484.437	1	7
484.778	1	-3
485.119	1	1
485.459	1	-4
485.800	1	-10
486.141	1	4
486.481	1	-5
486.822	1	1
487.163	1	-2
487.503	1	-9
487.844	1	-9
488.185	1	4
488.525	1	-3
488.866	1	-10
489.207	1	10
489.547	1	10
489.888	1	9
490.228	1	0
490.569	1	-2
490.910	1	3
491.250	1	3
491.591	1	-2
491.932	1	3
492.272	1	-14
492.613	1	-1
492.953	1	-5
493.294	1	-11
493.635	1	5
493.975	1	7
494.316	1	-13
494.656	1	1
494.997	1	-6
495.337	1	-13
495.678	1	0
496.019	1	-4
496.359	1	-1
496.700	1	-8
497.040	1	0
497.381	1	-4
497.721	1	-5
498.062	1	1
498.403	1	8
498.743	1	-11
499.084	1	2
499.424	1	-4
499.765	1	7
500.105	1	13
500.446	1	-3
500.786	1	4
501.127	1	0
501.467	1	4
501.808	1	2
502.148	1	-1
502.489	1	-2
502.829	1	0
503.170	1	4
503.510	1	-6
503.851	1	8
504.191	1	-1
504.532	1	7
504.872	1	-5
505.213	1	0
505.553	1	7
505.894	1	6
506.234	1	7
506.575	1	11
506.915	1	5
507.256	1	4
507.596	1	3
507.936	1	6
508.277	1	5
508.617	1	10
508.958	1	7
509.298	1	-11
509.639	1	-6
509.979	1	-5
510.319	1	6
510.660	1	-2
511.000	1	1
511.341	1	8
511.681	1	3
512.022	1	-5
512.362	1	8
512.702	1	-2
513.043	1	-2
513.383	1	2
513.724	1	1
514.064	1	11
514.404	1	14
514.745	1	-3
515.085	1	-3
515.425	1	9
515.766	1	2
516.106	1	-11
516.447	1	14
516.787	1	1
517.127	1	9
517.468	1	6
517.808	1	-13
518.148	1	8
518.489	1	-4
518.829	1	3
519.169	1	-3
519.510	1	-19
519.850	1	1
520.190	1	3
520.531	1	2
520.871	1	4
521.211	1	3
521.552	1	-7
521.892	1	7
522.232	1	12
522.573	1	-5
522.913	1	8
523.253	1	5
523.593	1	3
523.934	1	-2
524.274	1	0
524.614	1	3
524.955	1	0
525.295	1	13
525.635	1	5
525.975	1	-17
526.316	1	1
526.656	1	-2
526.996	1	1
527.337	1	5
527.677	1	13
528.017	1	-9
528.357	1	5
528.698	1	5
529.038	1	2
529.378	1	1
529.718	1	-5
530.058	1	0
530.399	1	2
530.739	1	5
531.079	1	1
531.419	1	-1
531.760	1	7
532.100	1	6
532.440	1	2
532.780	1	-6
533.120	1	-1
533.461	1	6
533.801	1	-1
534.141	1	2
534.481	1	10
534.821	1	0
535.162	1	0
535.502	1	1
535.842	1	-3
536.182	1	0
536.522	1	1
536.862	1	0
537.203	1	1
537.543	1	-2
537.883	1	0
538.223	1	11
538.563	1	-7
538.903	1	-3
539.243	1	1
539.584	1	1
539.924	1	-4
540.264	1	10
540.604	1	12
540.944	1	6
541.284	1	0
541.624	1	1
541.964	1	-2
542.305	1	6
542.645	1	3
542.985	1	2
543.325	1	4
543.665	1	0
544.005	1	5
544.345	1	5
544.685	1	-2
545.025	1	7
545.365	1	1
545.705	1	-4
546.045	1	6
546.386	1	-3
546.726	1	-4
547.066	1	4
547.406	1	4
547.746	1	-1
548.086	1	4
548.426	1	-1
548.766	1	8
549.106	1	-4
549.446	1	5
549.786	1	8
550.126	1	3
550.466	1	-1
550.806	1	15
551.146	1	5
551.486	1	2
551.826	1	0
552.166	1	-2
552.506	1	0
552.846	1	-2
553.186	1	-8
553.526	1	6
553.866	1	-1
554.206	1	2
554.546	1	3
554.886	1	-1
555.226	1	-1
555.566	1	6
555.906	1	-7
556.246	1	3
556.586	1	0
556.926	1	9
557.266	1	3
557.606	1	-8
557.946	1	8
558.286	1	-9
558.626	1	5
558.966	1	-2
559.306	1	-5
559.646	1	-2
559.986	1	4
560.325	1	-4
560.665	1	-9
561.005	1	1
561.345	1	-6
561.685	1	12
562.025	1	2
562.365	1	-2
562.705	1	2
563.045	1	1
563.385	1	7
563.725	1	-3
564.064	1	-7
564.404	1	-6
564.744	1	4
565.084	1	1
565.424	1	0
565.764	1	5
566.104	1	6
566.444	1	11
566.783	1	4
567.123	1	4
567.463	1	2
567.803	1	7
568.143	1	1
568.483	1	3
568.823	1	-2
569.162	1	2
569.502	1	-3
569.842	1	-3
570.182	1	3
570.522	1	-3
570.862	1	-12
571.201	1	17
571.541	1	-4
571.881	1	0
572.221	1	1
572.561	1	7
572.900	1	8
573.240	1	-1
573.580	1	6
573.920	1	12
574.260	1	-1
574.599	1	6
574.939	1	3
575.279	1	-4
575.619	1	-3
575.959	1	-7
576.298	1	-14
576.638	1	4
576.978	1	5
577.318	1	2
577.657	1	-3
577.997	1	6
578.337	1	7
578.677	1	4
579.016	1	0
579.356	1	12
579.696	1	-1
580.036	1	1
580.375	1	3
580.715	1	1
581.055	1	1
581.394	1	2
581.734	1	1
582.074	1	9
582.414	1	5
582.753	1	1
583.093	1	5
583.433	1	2
583.772	1	5
584.112	1	4
584.452	1	8
584.791	1	6
585.131	1	-1
585.471	1	-2
585.811	1	0
586.150	1	5
586.490	1	-4
586.830	1	2
587.169	1	3
587.509	1	-2
587.849	1	10
588.188	1	2
588.528	1	-4
588.867	1	-5
589.207	1	2
589.547	1	5
589.886	1	6
590.226	1	-4
590.566	1	3
590.905	1	-7
591.245	1	-5
591.585	1	-7
591.924	1	-9
592.264	1	4
592.603	1	-8
592.943	1	-3
593.283	1	2
593.622	1	-4
593.962	1	8
594.301	1	-7
594.641	1	-4
594.981	1	-6
595.320	1	13
595.660	1	6
595.999	1	4
596.339	1	-3
596.678	1	-8
597.018	1	-10
597.358	1	1
597.697	1	-10
598.037	1	-5
598.376	1	-2
598.716	1	-4
599.055	1	8
599.395	1	-4
599.734	1	7
600.074	1	-3
600.413	1	0
600.753	1	-1
601.092	1	-2
601.432	1	-3
601.771	1	5
602.111	1	3
602.451	1	0
602.790	1	-7
603.130	1	8
603.469	1	-8
603.809	1	0
604.148	1	-4
604.487	1	7
604.827	1	11
605.166	1	-1
605.506	1	-8
605.845	1	9
606.185	1	-5
606.524	1	0
606.864	1	11
607.203	1	8
607.543	1	5
607.882	1	8
608.222	1	-11
608.561	1	4
608.901	1	4
609.240	1	6
609.579	1	-5
609.919	1	-13
610.258	1	9
610.598	1	-2
610.937	1	0
611.277	1	-1
611.616	1	8
611.955	1	-10
612.295	1	1
612.634	1	5
612.974	1	9
613.313	1	3
613.652	1	9
613.992	1	-4
614.331	1	5
614.671	1	2
615.010	1	-7
615.349	1	7
615.689	1	-4
616.028	1	9
616.368	1	3
616.707	1	8
617.046	1	-9
617.386	1	6
617.725	1	-5
618.064	1	-6
618.404	1	-4
618.743	1	6
619.082	1	13
619.422	1	4
619.761	1	-1
620.100	1	4
620.440	1	10
620.779	1	9
621.118	1	3
621.458	1	2
621.797	1	4
622.136	1	8
622.476	1	2
622.815	1	6
623.154	1	-13
623.494	1	-8
623.833	1	3
624.172	1	-3
624.511	1	-11
624.851	1	-5
625.190	1	0
625.529	1	-7
625.869	1	2
626.208	1	2
626.547	1	0
626.886	1	2
627.226	1	8
627.565	1	9
627.904	1	-8
628.243	1	4
628.583	1	10
628.922	1	3
629.261	1	0
629.600	1	-4
629.940	1	3
630.279	1	12
630.618	1	7
630.957	1	5
631.297	1	-3
631.636	1	1
631.975	1	7
632.314	1	2
632.653	1	-3
632.993	1	1
633.332	1	-4
633.671	1	0
634.010	1	5
634.349	1	11
634.689	1	5
635.028	1	-9
635.367	1	4
635.706	1	-1
636.045	1	7
636.384	1	5
636.724	1	6
637.063	1	-10
637.402	1	11
637.741	1	1
638.080	1	3
638.419	1	1
638.759	1	-2
639.098	1	4
639.437	1	8
639.776	1	-8
640.115	1	-1
640.454	1	2
640.793	1	1
641.132	1	-3
641.472	1	10
641.811	1	1
642.150	1	-6
642.489	1	2
642.828	1	11
643.167	1	-5
643.506	1	1
643.845	1	2
644.184	1	1
644.524	1	-6
644.863	1	-4
645.202	1	5
645.541	1	2
645.880	1	7
646.219	1	6
646.558	1	-7
646.897	1	-5
647.236	1	-7
647.575	1	4
647.914	1	-1
648.253	1	9
648.592	1	-5
648.931	1	-5
649.270	1	11
649.610	1	10
649.949	1	-7
650.288	1	-1
650.627	1	-8
650.966	1	-2
651.305	1	4
651.644	1	10
651.983	1	-8
652.322	1	-5
652.661	1	8
653.000	1	5
653.339	1	1
653.678	1	13
654.017	1	9
654.356	1	8
654.695	1	11
655.034	1	-8
655.373	1	9
655.712	1	13
656.051	1	4
656.390	1	10
656.729	1	4
657.068	1	0
657.406	1	-4
657.745	1	11
658.084	1	4
658.423	1	3
658.762	1	-1
659.101	1	-4
659.440	1	8
659.779	1	12
660.118	1	-2
660.457	1	4
660.796	1	7
661.135	1	9
661.474	1	2
661.813	1	1
662.152	1	6
662.491	1	7
662.829	1	3
663.168	1	-2
663.507	1	12
663.846	1	-3
664.185	1	-2
664.524	1	16
664.863	1	-8
665.202	1	5
665.541	1	7
665.879	1	5
666.218	1	3
666.557	1	0
666.896	1	-2
667.235	1	-11
667.574	1	0
667.913	1	6
668.251	1	-2
668.590	1	3
668.929	1	-5
669.268	1	-9
669.607	1	-18
669.946	1	-1
670.285	1	-3
670.623	1	0
670.962	1	-7
671.301	1	-3
671.640	1	3
671.979	1	-2
672.317	1	5
672.656	1	2
672.995	1	5
673.334	1	-8
673.673	1	10
674.011	1	2
674.350	1	-4
674.689	1	-4
675.028	1	5
675.367	1	2
675.705	1	-12
676.044	1	-5
676.383	1	-4
676.722	1	6
677.060	1	1
677.399	1	14
677.738	1	-5
678.077	1	-7
678.416	1	-2
678.754	1	4
679.093	1	6
679.432	1	-9
679.771	1	-1
680.109	1	9
680.448	1	-3
680.787	1	-10
681.125	1	2
681.464	1	9
681.803	1	4
682.142	1	-2
682.480	1	-7
682.819	1	-7
683.158	1	-3
683.496	1	-3
683.835	1	3
684.174	1	8
684.512	1	-3
684.851	1	-6
685.190	1	1
685.529	1	-2
685.867	1	5
686.206	1	-6
686.545	1	-4
686.883	1	4
687.222	1	-7
687.561	1	3
687.899	1	-3
688.238	1	-1
688.577	1	1
688.746	1	-4