File: Data/GaN_150K_450ms/GaN_sample D_spot15_UVVIS_150 K_200um_450 ms 2x2mm1_79.txt
340.368	1	0
340.710	1	3
341.052	1	11
341.394	1	-10
341.737	1	2
342.079	1	10
342.421	1	9
342.763	1	8
343.105	1	4
343.447	1	4
343.789	1	2
344.131	1	-6
344.473	1	5
344.815	1	8
345.157	1	18
345.499	1	10
345.841	1	5
346.183	1	4
346.526	1	7
346.868	1	5
347.210	1	3
347.552	1	19
347.894	1	0
348.236	1	7
348.578	1	13
348.920	1	1
349.262	1	8
349.604	1	-3
349.946	1	5
350.288	1	2
350.630	1	6
350.972	1	13
351.314	1	13
351.656	1	13
351.998	1	9
352.340	1	14
352.682	1	7
353.024	1	25
353.366	1	11
353.708	1	17
354.050	1	2
354.392	1	11
354.734	1	22
355.076	1	20
355.418	1	8
355.760	1	8
356.102	1	15
356.444	1	22
356.785	1	15
357.127	1	12
357.469	1	12
357.811	1	16
358.153	1	4
358.495	1	9
358.837	1	28
359.179	1	31
359.521	1	35
359.863	1	21
360.205	1	36
360.547	1	32
360.889	1	44
361.231	1	37
361.572	1	45
361.914	1	51
362.256	1	50
362.598	1	60
362.940	1	69
363.282	1	62
363.624	1	76
363.966	1	73
364.308	1	85
364.649	1	91
364.991	1	109
365.333	1	117
365.675	1	136
366.017	1	125
366.359	1	135
366.701	1	141
367.042	1	159
367.384	1	151
367.726	1	169
368.068	1	165
368.410	1	169
368.752	1	174
369.093	1	167
369.435	1	163
369.777	1	165
370.119	1	143
370.461	1	133
370.803	1	123
371.144	1	126
371.486	1	126
371.828	1	109
372.170	1	104
372.512	1	93
372.853	1	111
373.195	1	95
373.537	1	72
373.879	1	79
374.220	1	87
374.562	1	74
374.904	1	76
375.246	1	58
375.588	1	60
375.929	1	55
376.271	1	59
376.613	1	68
376.955	1	49
377.296	1	58
377.638	1	40
377.980	1	55
378.321	1	49
378.663	1	47
379.005	1	44
379.347	1	47
379.688	1	49
380.030	1	35
380.372	1	40
380.714	1	33
381.055	1	34
381.397	1	40
381.739	1	20
382.080	1	31
382.422	1	39
382.764	1	28
383.105	1	28
383.447	1	32
383.789	1	15
384.130	1	24
384.472	1	28
384.814	1	35
385.156	1	29
385.497	1	38
385.839	1	32
386.180	1	27
386.522	1	36
386.864	1	14
387.205	1	24
387.547	1	19
387.889	1	19
388.230	1	18
388.572	1	13
388.914	1	31
389.255	1	11
389.597	1	22
389.939	1	23
390.280	1	16
390.622	1	3
390.963	1	14
391.305	1	10
391.647	1	9
391.988	1	18
392.330	1	4
392.671	1	21
393.013	1	21
393.355	1	26
393.696	1	17
394.038	1	12
394.379	1	16
394.721	1	15
395.062	1	27
395.404	1	22
395.746	1	16
396.087	1	11
396.429	1	19
396.770	1	17
397.112	1	6
397.453	1	14
397.795	1	13
398.136	1	13
398.478	1	13
398.819	1	11
399.161	1	22
399.503	1	18
399.844	1	10
400.186	1	22
400.527	1	27
400.869	1	19
401.210	1	14
401.552	1	12
401.893	1	13
402.235	1	20
402.576	1	24
402.918	1	1
403.259	1	12
403.601	1	20
403.942	1	14
404.284	1	25
404.625	1	7
404.967	1	11
405.308	1	5
405.649	1	14
405.991	1	7
406.332	1	7
406.674	1	17
407.015	1	27
407.357	1	20
407.698	1	18
408.040	1	24
408.381	1	6
408.722	1	19
409.064	1	20
409.405	1	14
409.747	1	12
410.088	1	22
410.430	1	19
410.771	1	13
411.112	1	22
411.454	1	9
411.795	1	18
412.137	1	5
412.478	1	18
412.819	1	13
413.161	1	12
413.502	1	15
413.844	1	17
414.185	1	13
414.526	1	-2
414.868	1	5
415.209	1	14
415.550	1	15
415.892	1	19
416.233	1	19
416.575	1	3
416.916	1	20
417.257	1	10
417.599	1	15
417.940	1	11
418.281	1	19
418.623	1	18
418.964	1	34
419.305	1	19
419.647	1	17
419.988	1	32
420.329	1	17
420.671	1	26
421.012	1	7
421.353	1	22
421.695	1	20
422.036	1	21
422.377	1	16
422.718	1	18
423.060	1	19
423.401	1	7
423.742	1	23
424.084	1	11
424.425	1	22
424.766	1	18
425.107	1	20
425.449	1	7
425.790	1	10
426.131	1	5
426.472	1	14
426.814	1	5
427.155	1	14
427.496	1	13
427.837	1	10
428.179	1	31
428.520	1	12
428.861	1	19
429.202	1	11
429.544	1	12
429.885	1	25
430.226	1	4
430.567	1	9
430.909	1	15
431.250	1	13
431.591	1	25
431.932	1	23
432.273	1	24
432.615	1	9
432.956	1	9
433.297	1	21
433.638	1	17
433.979	1	14
434.320	1	18
434.662	1	27
435.003	1	18
435.344	1	16
435.685	1	4
436.026	1	13
436.368	1	15
436.709	1	6
437.050	1	8
437.391	1	17
437.732	1	16
438.073	1	11
438.414	1	22
438.756	1	9
439.097	1	21
439.438	1	7
439.779	1	18
440.120	1	7
440.461	1	16
440.802	1	15
441.143	1	19
441.485	1	6
441.826	1	8
442.167	1	13
442.508	1	16
442.849	1	15
443.190	1	14
443.531	1	14
443.872	1	10
444.213	1	4
444.554	1	7
444.895	1	-4
445.237	1	20
445.578	1	10
445.919	1	8
446.260	1	18
446.601	1	17
446.942	1	10
447.283	1	23
447.624	1	5
447.965	1	12
448.306	1	15
448.647	1	18
448.988	1	12
449.329	1	11
449.670	1	13
450.011	1	11
450.352	1	12
450.693	1	13
451.034	1	13
451.375	1	11
451.716	1	15
452.057	1	8
452.398	1	11
452.739	1	5
453.080	1	19
453.421	1	12
453.762	1	22
454.103	1	19
454.444	1	11
454.785	1	16
455.126	1	2
455.467	1	13
455.808	1	22
456.149	1	11
456.490	1	7
456.831	1	6
457.172	1	18
457.513	1	7
457.854	1	10
458.195	1	10
458.536	1	19
458.877	1	14
459.218	1	16
459.559	1	15
459.899	1	5
460.240	1	7
460.581	1	12
460.922	1	10
461.263	1	14
461.604	1	10
461.945	1	11
462.286	1	2
462.627	1	10
462.968	1	14
463.309	1	10
463.649	1	8
463.990	1	9
464.331	1	13
464.672	1	12
465.013	1	15
465.354	1	14
465.695	1	10
466.036	1	16
466.376	1	19
466.717	1	5
467.058	1	7
467.399	1	8
467.740	1	21
468.081	1	11
468.422	1	13
468.762	1	13
469.103	1	6
469.444	1	12
469.785	1	16
470.126	1	7
470.467	1	5
470.807	1	12
471.148	1	2
471.489	1	16
471.830	1	13
472.171	1	12
472.511	1	18
472.852	1	21
473.193	1	0
473.534	1	10
473.875	1	8
474.215	1	7
474.556	1	12
474.897	1	8
475.238	1	23
475.578	1	13
475.919	1	1
476.260	1	-2
476.601	1	12
476.942	1	7
477.282	1	8
477.623	1	6
477.964	1	10
478.305	1	10
478.645	1	12
478.986	1	9
479.327	1	11
479.667	1	5
480.008	1	3
480.349	1	4
480.690	1	17
481.030	1	10
481.371	1	2
481.712	1	20
482.053	1	25
482.393	1	9
482.734	1	13
483.075	1	13
483.415	1	7
483.756	1	15
484.097	1	23
484.437	1	22
484.778	1	11
485.119	1	13
485.459	1	9
485.800	1	7
486.141	1	23
486.481	1	4
486.822	1	17
487.163	1	4
487.503	1	9
487.844	1	9
488.185	1	20
488.525	1	16
488.866	1	9
489.207	1	26
489.547	1	12
489.888	1	22
490.228	1	16
490.569	1	15
490.910	1	22
491.250	1	20
491.591	1	18
491.932	1	26
492.272	1	11
492.613	1	9
492.953	1	21
493.294	1	0
493.635	1	17
493.975	1	33
494.316	1	12
494.656	1	25
494.997	1	8
495.337	1	17
495.678	1	14
496.019	1	14
496.359	1	20
496.700	1	24
497.040	1	16
497.381	1	18
497.721	1	15
498.062	1	15
498.403	1	27
498.743	1	30
499.084	1	19
499.424	1	19
499.765	1	28
500.105	1	23
500.446	1	11
500.786	1	21
501.127	1	25
501.467	1	36
501.808	1	23
502.148	1	27
502.489	1	30
502.829	1	28
503.170	1	29
503.510	1	28
503.851	1	34
504.191	1	26
504.532	1	25
504.872	1	21
505.213	1	27
505.553	1	29
505.894	1	33
506.234	1	32
506.575	1	46
506.915	1	44
507.256	1	35
507.596	1	36
507.936	1	39
508.277	1	42
508.617	1	44
508.958	1	44
509.298	1	26
509.639	1	28
509.979	1	22
510.319	1	22
510.660	1	23
511.000	1	31
511.341	1	47
511.681	1	38
512.022	1	27
512.362	1	46
512.702	1	25
513.043	1	43
513.383	1	43
513.724	1	31
514.064	1	48
514.404	1	38
514.745	1	34
515.085	1	36
515.425	1	41
515.766	1	40
516.106	1	32
516.447	1	53
516.787	1	37
517.127	1	52
517.468	1	49
517.808	1	39
518.148	1	42
518.489	1	38
518.829	1	40
519.169	1	34
519.510	1	34
519.850	1	43
520.190	1	39
520.531	1	46
520.871	1	32
521.211	1	42
521.552	1	43
521.892	1	46
522.232	1	41
522.573	1	47
522.913	1	54
523.253	1	53
523.593	1	48
523.934	1	37
524.274	1	38
524.614	1	47
524.955	1	46
525.295	1	47
525.635	1	46
525.975	1	43
526.316	1	34
526.656	1	49
526.996	1	47
527.337	1	48
527.677	1	59
528.017	1	41
528.357	1	50
528.698	1	42
529.038	1	44
529.378	1	46
529.718	1	46
530.058	1	48
530.399	1	56
530.739	1	40
531.079	1	41
531.419	1	38
531.760	1	55
532.100	1	49
532.440	1	43
532.780	1	43
533.120	1	49
533.461	1	38
533.801	1	46
534.141	1	53
534.481	1	55
534.821	1	43
535.162	1	41
535.502	1	43
535.842	1	24
536.182	1	35
536.522	1	42
536.862	1	39
537.203	1	48
537.543	1	46
537.883	1	44
538.223	1	53
538.563	1	34
538.903	1	37
539.243	1	47
539.584	1	36
539.924	1	40
540.264	1	50
540.604	1	48
540.944	1	37
541.284	1	39
541.624	1	42
541.964	1	48
542.305	1	52
542.645	1	29
542.985	1	30
543.325	1	43
543.665	1	35
544.005	1	38
544.345	1	35
544.685	1	38
545.025	1	38
545.365	1	47
545.705	1	37
546.045	1	38
546.386	1	33
546.726	1	42
547.066	1	33
547.406	1	33
547.746	1	29
548.086	1	41
548.426	1	40
548.766	1	45
549.106	1	42
549.446	1	39
549.786	1	43
550.126	1	43
550.466	1	37
550.806	1	43
551.146	1	42
551.486	1	39
551.826	1	25
552.166	1	53
552.506	1	31
552.846	1	40
553.186	1	28
553.526	1	37
553.866	1	30
554.206	1	36
554.546	1	28
554.886	1	27
555.226	1	33
555.566	1	27
555.906	1	22
556.246	1	37
556.586	1	32
556.926	1	27
557.266	1	36
557.606	1	23
557.946	1	40
558.286	1	19
558.626	1	36
558.966	1	26
559.306	1	29
559.646	1	35
559.986	1	40
560.325	1	40
560.665	1	31
561.005	1	29
561.345	1	32
561.685	1	34
562.025	1	25
562.365	1	30
562.705	1	26
563.045	1	29
563.385	1	29
563.725	1	23
564.064	1	26
564.404	1	10
564.744	1	29
565.084	1	27
565.424	1	19
565.764	1	27
566.104	1	35
566.444	1	30
566.783	1	31
567.123	1	26
567.463	1	26
567.803	1	23
568.143	1	27
568.483	1	31
568.823	1	22
569.162	1	28
569.502	1	27
569.842	1	16
570.182	1	19
570.522	1	21
570.862	1	6
571.201	1	20
571.541	1	19
571.881	1	13
572.221	1	26
572.561	1	31
572.900	1	27
573.240	1	13
573.580	1	24
573.920	1	19
574.260	1	20
574.599	1	22
574.939	1	18
575.279	1	14
575.619	1	12
575.959	1	32
576.298	1	10
576.638	1	19
576.978	1	24
577.318	1	34
577.657	1	18
577.997	1	18
578.337	1	16
578.677	1	20
579.016	1	19
579.356	1	21
579.696	1	15
580.036	1	11
580.375	1	18
580.715	1	16
581.055	1	20
581.394	1	20
581.734	1	11
582.074	1	19
582.414	1	18
582.753	1	12
583.093	1	16
583.433	1	15
583.772	1	25
584.112	1	10
584.452	1	17
584.791	1	22
585.131	1	18
585.471	1	15
585.811	1	15
586.150	1	17
586.490	1	12
586.830	1	13
587.169	1	8
587.509	1	19
587.849	1	21
588.188	1	17
588.528	1	12
588.867	1	23
589.207	1	15
589.547	1	19
589.886	1	17
590.226	1	12
590.566	1	18
590.905	1	12
591.245	1	9
591.585	1	3
591.924	1	8
592.264	1	11
592.603	1	0
592.943	1	13
593.283	1	11
593.622	1	10
593.962	1	18
594.301	1	6
594.641	1	10
594.981	1	12
595.320	1	20
595.660	1	8
595.999	1	6
596.339	1	10
596.678	1	11
597.018	1	14
597.358	1	10
597.697	1	1
598.037	1	7
598.376	1	-2
598.716	1	14
599.055	1	10
599.395	1	15
599.734	1	10
600.074	1	9
600.413	1	9
600.753	1	20
601.092	1	-4
601.432	1	1
601.771	1	20
602.111	1	14
602.451	1	4
602.790	1	13
603.130	1	8
603.469	1	15
603.809	1	13
604.148	1	4
604.487	1	17
604.827	1	21
605.166	1	10
605.506	1	10
605.845	1	21
606.185	1	-2
606.524	1	7
606.864	1	22
607.203	1	16
607.543	1	7
607.882	1	17
608.222	1	11
608.561	1	10
608.901	1	24
609.240	1	13
609.579	1	10
609.919	1	-7
610.258	1	20
610.598	1	1
610.937	1	9
611.277	1	8
611.616	1	17
611.955	1	17
612.295	1	15
612.634	1	6
612.974	1	10
613.313	1	6
613.652	1	15
613.992	1	11
614.331	1	13
614.671	1	12
615.010	1	16
615.349	1	10
615.689	1	7
616.028	1	22
616.368	1	18
616.707	1	8
617.046	1	15
617.386	1	20
617.725	1	0
618.064	1	0
618.404	1	9
618.743	1	14
619.082	1	26
619.422	1	21
619.761	1	1
620.100	1	10
620.440	1	15
620.779	1	14
621.118	1	21
621.458	1	5
621.797	1	14
622.136	1	11
622.476	1	14
622.815	1	7
623.154	1	1
623.494	1	-5
623.833	1	7
624.172	1	13
624.511	1	8
624.851	1	5
625.190	1	9
625.529	1	4
625.869	1	9
626.208	1	8
626.547	1	5
626.886	1	-3
627.226	1	18
627.565	1	11
627.904	1	3
628.243	1	11
628.583	1	16
628.922	1	18
629.261	1	9
629.600	1	7
629.940	1	9
630.279	1	14
630.618	1	12
630.957	1	11
631.297	1	5
631.636	1	9
631.975	1	-1
632.314	1	12
632.653	1	3
632.993	1	9
633.332	1	8
633.671	1	13
634.010	1	9
634.349	1	20
634.689	1	7
635.028	1	2
635.367	1	13
635.706	1	4
636.045	1	8
636.384	1	15
636.724	1	12
637.063	1	6
637.402	1	1
637.741	1	2
638.080	1	12
638.419	1	3
638.759	1	7
639.098	1	-1
639.437	1	4
639.776	1	2
640.115	1	0
640.454	1	4
640.793	1	4
641.132	1	11
641.472	1	14
641.811	1	8
642.150	1	9
642.489	1	3
642.828	1	19
643.167	1	8
643.506	1	8
643.845	1	20
644.184	1	7
644.524	1	6
644.863	1	8
645.202	1	11
645.541	1	10
645.880	1	10
646.219	1	15
646.558	1	-1
646.897	1	0
647.236	1	2
647.575	1	10
647.914	1	13
648.253	1	4
648.592	1	13
648.931	1	14
649.270	1	13
649.610	1	8
649.949	1	-3
650.288	1	8
650.627	1	3
650.966	1	10
651.305	1	9
651.644	1	14
651.983	1	0
652.322	1	0
652.661	1	10
653.000	1	14
653.339	1	8
653.678	1	11
654.017	1	17
654.356	1	9
654.695	1	16
655.034	1	8
655.373	1	8
655.712	1	7
656.051	1	1
656.390	1	3
656.729	1	13
657.068	1	1
657.406	1	-3
657.745	1	22
658.084	1	10
658.423	1	11
658.762	1	1
659.101	1	7
659.440	1	14
659.779	1	9
660.118	1	7
660.457	1	12
660.796	1	15
661.135	1	9
661.474	1	9
661.813	1	8
662.152	1	4
662.491	1	6
662.829	1	6
663.168	1	4
663.507	1	12
663.846	1	10
664.185	1	11
664.524	1	16
664.863	1	-1
665.202	1	8
665.541	1	5
665.879	1	6
666.218	1	8
666.557	1	8
666.896	1	4
667.235	1	1
667.574	1	0
667.913	1	8
668.251	1	-6
668.590	1	0
668.929	1	-4
669.268	1	-1
669.607	1	10
669.946	1	1
670.285	1	6
670.623	1	5
670.962	1	5
671.301	1	11
671.640	1	8
671.979	1	8
672.317	1	3
672.656	1	11
672.995	1	-5
673.334	1	12
673.673	1	13
674.011	1	5
674.350	1	10
674.689	1	-2
675.028	1	10
675.367	1	1
675.705	1	1
676.044	1	5
676.383	1	11
676.722	1	1
677.060	1	2
677.399	1	18
677.738	1	4
678.077	1	3
678.416	1	5
678.754	1	3
679.093	1	16
679.432	1	1
679.771	1	-1
680.109	1	4
680.448	1	4
680.787	1	-1
681.125	1	-2
681.464	1	7
681.803	1	5
682.142	1	14
682.480	1	-3
682.819	1	3
683.158	1	-5
683.496	1	8
683.835	1	15
684.174	1	11
684.512	1	2
684.851	1	4
685.190	1	4
685.529	1	3
685.867	1	13
686.206	1	-6
686.545	1	8
686.883	1	10
687.222	1	11
687.561	1	7
687.899	1	8
688.238	1	17
688.577	1	1
688.746	1	10