File: Data/GaN_150K_450ms/GaN_sample D_spot15_UVVIS_150 K_200um_450 ms 2x2mm1_241.txt
340.368	1	-3
340.710	1	-5
341.052	1	-1
341.394	1	5
341.737	1	6
342.079	1	6
342.421	1	4
342.763	1	5
343.105	1	-2
343.447	1	2
343.789	1	4
344.131	1	-8
344.473	1	3
344.815	1	3
345.157	1	16
345.499	1	1
345.841	1	4
346.183	1	2
346.526	1	13
346.868	1	1
347.210	1	9
347.552	1	13
347.894	1	1
348.236	1	-2
348.578	1	5
348.920	1	8
349.262	1	9
349.604	1	-1
349.946	1	0
350.288	1	-12
350.630	1	-9
350.972	1	10
351.314	1	0
351.656	1	10
351.998	1	3
352.340	1	6
352.682	1	-15
353.024	1	18
353.366	1	7
353.708	1	10
354.050	1	-6
354.392	1	-1
354.734	1	-5
355.076	1	17
355.418	1	-4
355.760	1	1
356.102	1	5
356.444	1	6
356.785	1	3
357.127	1	8
357.469	1	13
357.811	1	3
358.153	1	-6
358.495	1	4
358.837	1	14
359.179	1	-4
359.521	1	13
359.863	1	2
360.205	1	8
360.547	1	8
360.889	1	2
361.231	1	13
361.572	1	9
361.914	1	10
362.256	1	4
362.598	1	13
362.940	1	7
363.282	1	7
363.624	1	1
363.966	1	-3
364.308	1	14
364.649	1	3
364.991	1	18
365.333	1	12
365.675	1	19
366.017	1	19
366.359	1	13
366.701	1	9
367.042	1	20
367.384	1	7
367.726	1	10
368.068	1	24
368.410	1	10
368.752	1	27
369.093	1	16
369.435	1	23
369.777	1	26
370.119	1	11
370.461	1	12
370.803	1	7
371.144	1	9
371.486	1	20
371.828	1	9
372.170	1	13
372.512	1	3
372.853	1	14
373.195	1	9
373.537	1	10
373.879	1	5
374.220	1	11
374.562	1	15
374.904	1	10
375.246	1	4
375.588	1	10
375.929	1	8
376.271	1	-2
376.613	1	12
376.955	1	9
377.296	1	8
377.638	1	11
377.980	1	2
378.321	1	6
378.663	1	18
379.005	1	0
379.347	1	5
379.688	1	3
380.030	1	12
380.372	1	10
380.714	1	5
381.055	1	9
381.397	1	3
381.739	1	-3
382.080	1	7
382.422	1	2
382.764	1	3
383.105	1	-3
383.447	1	0
383.789	1	-6
384.130	1	7
384.472	1	-5
384.814	1	18
385.156	1	-1
385.497	1	13
385.839	1	-2
386.180	1	8
386.522	1	6
386.864	1	2
387.205	1	4
387.547	1	-3
387.889	1	5
388.230	1	9
388.572	1	-7
388.914	1	10
389.255	1	2
389.597	1	-3
389.939	1	8
390.280	1	-2
390.622	1	-2
390.963	1	-10
391.305	1	-2
391.647	1	13
391.988	1	5
392.330	1	6
392.671	1	1
393.013	1	11
393.355	1	12
393.696	1	5
394.038	1	6
394.379	1	11
394.721	1	4
395.062	1	-9
395.404	1	7
395.746	1	-14
396.087	1	0
396.429	1	4
396.770	1	11
397.112	1	-1
397.453	1	6
397.795	1	2
398.136	1	-1
398.478	1	-3
398.819	1	0
399.161	1	13
399.503	1	7
399.844	1	0
400.186	1	9
400.527	1	15
400.869	1	5
401.210	1	1
401.552	1	8
401.893	1	-2
402.235	1	2
402.576	1	8
402.918	1	-3
403.259	1	-1
403.601	1	2
403.942	1	6
404.284	1	8
404.625	1	-4
404.967	1	3
405.308	1	-6
405.649	1	-3
405.991	1	16
406.332	1	9
406.674	1	1
407.015	1	6
407.357	1	4
407.698	1	2
408.040	1	12
408.381	1	-3
408.722	1	13
409.064	1	11
409.405	1	6
409.747	1	6
410.088	1	7
410.430	1	12
410.771	1	11
411.112	1	7
411.454	1	1
411.795	1	8
412.137	1	3
412.478	1	7
412.819	1	4
413.161	1	-1
413.502	1	6
413.844	1	4
414.185	1	5
414.526	1	2
414.868	1	3
415.209	1	7
415.550	1	2
415.892	1	13
416.233	1	9
416.575	1	3
416.916	1	-9
417.257	1	-3
417.599	1	6
417.940	1	-2
418.281	1	12
418.623	1	8
418.964	1	15
419.305	1	1
419.647	1	6
419.988	1	21
420.329	1	2
420.671	1	9
421.012	1	-7
421.353	1	15
421.695	1	10
422.036	1	8
422.377	1	4
422.718	1	5
423.060	1	2
423.401	1	9
423.742	1	16
424.084	1	9
424.425	1	17
424.766	1	4
425.107	1	7
425.449	1	1
425.790	1	6
426.131	1	-1
426.472	1	3
426.814	1	2
427.155	1	1
427.496	1	3
427.837	1	9
428.179	1	24
428.520	1	5
428.861	1	5
429.202	1	4
429.544	1	1
429.885	1	11
430.226	1	-5
430.567	1	-9
430.909	1	4
431.250	1	6
431.591	1	5
431.932	1	-2
432.273	1	19
432.615	1	1
432.956	1	7
433.297	1	10
433.638	1	3
433.979	1	11
434.320	1	8
434.662	1	11
435.003	1	3
435.344	1	7
435.685	1	6
436.026	1	0
436.368	1	-7
436.709	1	1
437.050	1	-1
437.391	1	2
437.732	1	3
438.073	1	2
438.414	1	10
438.756	1	-8
439.097	1	10
439.438	1	-2
439.779	1	10
440.120	1	0
440.461	1	2
440.802	1	-3
441.143	1	10
441.485	1	0
441.826	1	6
442.167	1	5
442.508	1	5
442.849	1	12
443.190	1	4
443.531	1	6
443.872	1	-7
444.213	1	-1
444.554	1	7
444.895	1	0
445.237	1	11
445.578	1	-4
445.919	1	1
446.260	1	6
446.601	1	7
446.942	1	-9
447.283	1	5
447.624	1	-12
447.965	1	4
448.306	1	0
448.647	1	9
448.988	1	-5
449.329	1	3
449.670	1	1
450.011	1	7
450.352	1	0
450.693	1	5
451.034	1	-4
451.375	1	-1
451.716	1	5
452.057	1	9
452.398	1	12
452.739	1	9
453.080	1	12
453.421	1	14
453.762	1	16
454.103	1	2
454.444	1	3
454.785	1	12
455.126	1	9
455.467	1	0
455.808	1	10
456.149	1	-1
456.490	1	-6
456.831	1	-5
457.172	1	9
457.513	1	-5
457.854	1	5
458.195	1	2
458.536	1	12
458.877	1	9
459.218	1	9
459.559	1	3
459.899	1	-3
460.240	1	-5
460.581	1	-2
460.922	1	3
461.263	1	3
461.604	1	9
461.945	1	4
462.286	1	1
462.627	1	-3
462.968	1	4
463.309	1	13
463.649	1	3
463.990	1	1
464.331	1	11
464.672	1	2
465.013	1	1
465.354	1	15
465.695	1	7
466.036	1	13
466.376	1	11
466.717	1	-16
467.058	1	0
467.399	1	-3
467.740	1	10
468.081	1	6
468.422	1	2
468.762	1	9
469.103	1	4
469.444	1	9
469.785	1	-5
470.126	1	6
470.467	1	5
470.807	1	-2
471.148	1	-1
471.489	1	1
471.830	1	6
472.171	1	5
472.511	1	11
472.852	1	7
473.193	1	8
473.534	1	11
473.875	1	5
474.215	1	-7
474.556	1	1
474.897	1	-2
475.238	1	9
475.578	1	-7
475.919	1	5
476.260	1	-1
476.601	1	-5
476.942	1	4
477.282	1	-2
477.623	1	1
477.964	1	7
478.305	1	8
478.645	1	1
478.986	1	7
479.327	1	10
479.667	1	-4
480.008	1	5
480.349	1	0
480.690	1	4
481.030	1	-2
481.371	1	-4
481.712	1	8
482.053	1	10
482.393	1	6
482.734	1	-3
483.075	1	4
483.415	1	4
483.756	1	-2
484.097	1	10
484.437	1	5
484.778	1	9
485.119	1	8
485.459	1	9
485.800	1	2
486.141	1	9
486.481	1	-14
486.822	1	7
487.163	1	-4
487.503	1	6
487.844	1	-12
488.185	1	2
488.525	1	-9
488.866	1	-8
489.207	1	2
489.547	1	1
489.888	1	3
490.228	1	6
490.569	1	-4
490.910	1	7
491.250	1	2
491.591	1	1
491.932	1	0
492.272	1	-9
492.613	1	-5
492.953	1	-1
493.294	1	-18
493.635	1	-1
493.975	1	14
494.316	1	-4
494.656	1	4
494.997	1	2
495.337	1	0
495.678	1	2
496.019	1	-4
496.359	1	-7
496.700	1	3
497.040	1	-9
497.381	1	2
497.721	1	-13
498.062	1	-8
498.403	1	7
498.743	1	3
499.084	1	1
499.424	1	0
499.765	1	6
500.105	1	9
500.446	1	3
500.786	1	5
501.127	1	4
501.467	1	12
501.808	1	8
502.148	1	-4
502.489	1	-6
502.829	1	-2
503.170	1	13
503.510	1	3
503.851	1	15
504.191	1	-2
504.532	1	15
504.872	1	-6
505.213	1	-1
505.553	1	-4
505.894	1	6
506.234	1	2
506.575	1	18
506.915	1	2
507.256	1	-2
507.596	1	13
507.936	1	7
508.277	1	9
508.617	1	7
508.958	1	12
509.298	1	1
509.639	1	1
509.979	1	3
510.319	1	3
510.660	1	6
511.000	1	4
511.341	1	13
511.681	1	1
512.022	1	-4
512.362	1	8
512.702	1	2
513.043	1	7
513.383	1	3
513.724	1	7
514.064	1	1
514.404	1	4
514.745	1	8
515.085	1	2
515.425	1	12
515.766	1	-4
516.106	1	-4
516.447	1	7
516.787	1	4
517.127	1	9
517.468	1	6
517.808	1	-11
518.148	1	11
518.489	1	0
518.829	1	14
519.169	1	3
519.510	1	4
519.850	1	-1
520.190	1	3
520.531	1	-2
520.871	1	7
521.211	1	6
521.552	1	5
521.892	1	6
522.232	1	0
522.573	1	7
522.913	1	1
523.253	1	14
523.593	1	18
523.934	1	-3
524.274	1	5
524.614	1	8
524.955	1	6
525.295	1	4
525.635	1	8
525.975	1	10
526.316	1	-1
526.656	1	5
526.996	1	3
527.337	1	16
527.677	1	18
528.017	1	9
528.357	1	4
528.698	1	8
529.038	1	3
529.378	1	3
529.718	1	-4
530.058	1	3
530.399	1	7
530.739	1	-2
531.079	1	2
531.419	1	3
531.760	1	9
532.100	1	18
532.440	1	4
532.780	1	14
533.120	1	7
533.461	1	12
533.801	1	2
534.141	1	8
534.481	1	19
534.821	1	5
535.162	1	6
535.502	1	-1
535.842	1	1
536.182	1	-5
536.522	1	1
536.862	1	6
537.203	1	3
537.543	1	8
537.883	1	12
538.223	1	16
538.563	1	7
538.903	1	10
539.243	1	0
539.584	1	9
539.924	1	1
540.264	1	9
540.604	1	8
540.944	1	6
541.284	1	-1
541.624	1	0
541.964	1	-4
542.305	1	10
542.645	1	4
542.985	1	0
543.325	1	11
543.665	1	2
544.005	1	4
544.345	1	8
544.685	1	1
545.025	1	-2
545.365	1	1
545.705	1	0
546.045	1	3
546.386	1	-1
546.726	1	1
547.066	1	5
547.406	1	6
547.746	1	-1
548.086	1	13
548.426	1	-6
548.766	1	7
549.106	1	-4
549.446	1	11
549.786	1	5
550.126	1	1
550.466	1	4
550.806	1	26
551.146	1	0
551.486	1	5
551.826	1	-4
552.166	1	8
552.506	1	4
552.846	1	9
553.186	1	-8
553.526	1	6
553.866	1	2
554.206	1	7
554.546	1	11
554.886	1	-1
555.226	1	4
555.566	1	8
555.906	1	-8
556.246	1	7
556.586	1	-1
556.926	1	4
557.266	1	10
557.606	1	-4
557.946	1	12
558.286	1	-9
558.626	1	5
558.966	1	5
559.306	1	4
559.646	1	-1
559.986	1	12
560.325	1	6
560.665	1	-2
561.005	1	5
561.345	1	2
561.685	1	8
562.025	1	9
562.365	1	8
562.705	1	12
563.045	1	7
563.385	1	2
563.725	1	5
564.064	1	-3
564.404	1	1
564.744	1	12
565.084	1	9
565.424	1	2
565.764	1	7
566.104	1	11
566.444	1	2
566.783	1	8
567.123	1	-1
567.463	1	8
567.803	1	9
568.143	1	5
568.483	1	10
568.823	1	-1
569.162	1	-10
569.502	1	6
569.842	1	1
570.182	1	-3
570.522	1	-9
570.862	1	-11
571.201	1	8
571.541	1	-3
571.881	1	-4
572.221	1	8
572.561	1	9
572.900	1	6
573.240	1	2
573.580	1	0
573.920	1	17
574.260	1	13
574.599	1	4
574.939	1	-4
575.279	1	3
575.619	1	5
575.959	1	6
576.298	1	-13
576.638	1	6
576.978	1	4
577.318	1	12
577.657	1	6
577.997	1	3
578.337	1	2
578.677	1	-3
579.016	1	1
579.356	1	1
579.696	1	-4
580.036	1	1
580.375	1	-3
580.715	1	7
581.055	1	0
581.394	1	0
581.734	1	2
582.074	1	2
582.414	1	-6
582.753	1	2
583.093	1	1
583.433	1	5
583.772	1	9
584.112	1	-1
584.452	1	6
584.791	1	9
585.131	1	2
585.471	1	-2
585.811	1	0
586.150	1	2
586.490	1	7
586.830	1	9
587.169	1	5
587.509	1	-1
587.849	1	7
588.188	1	3
588.528	1	-5
588.867	1	6
589.207	1	4
589.547	1	0
589.886	1	-2
590.226	1	-1
590.566	1	0
590.905	1	0
591.245	1	1
591.585	1	-3
591.924	1	2
592.264	1	-4
592.603	1	-5
592.943	1	-2
593.283	1	-2
593.622	1	-2
593.962	1	6
594.301	1	3
594.641	1	5
594.981	1	1
595.320	1	5
595.660	1	7
595.999	1	7
596.339	1	9
596.678	1	-9
597.018	1	-11
597.358	1	5
597.697	1	1
598.037	1	-4
598.376	1	1
598.716	1	-3
599.055	1	1
599.395	1	-3
599.734	1	5
600.074	1	2
600.413	1	4
600.753	1	7
601.092	1	-2
601.432	1	-2
601.771	1	4
602.111	1	0
602.451	1	0
602.790	1	13
603.130	1	-1
603.469	1	8
603.809	1	4
604.148	1	-9
604.487	1	11
604.827	1	2
605.166	1	4
605.506	1	-5
605.845	1	12
606.185	1	2
606.524	1	-1
606.864	1	12
607.203	1	1
607.543	1	7
607.882	1	-1
608.222	1	-2
608.561	1	7
608.901	1	5
609.240	1	1
609.579	1	-2
609.919	1	-3
610.258	1	13
610.598	1	-8
610.937	1	1
611.277	1	-2
611.616	1	5
611.955	1	4
612.295	1	4
612.634	1	14
612.974	1	6
613.313	1	8
613.652	1	11
613.992	1	3
614.331	1	18
614.671	1	5
615.010	1	9
615.349	1	0
615.689	1	-3
616.028	1	19
616.368	1	8
616.707	1	9
617.046	1	2
617.386	1	1
617.725	1	-11
618.064	1	0
618.404	1	-9
618.743	1	7
619.082	1	14
619.422	1	14
619.761	1	7
620.100	1	2
620.440	1	12
620.779	1	-2
621.118	1	10
621.458	1	10
621.797	1	4
622.136	1	4
622.476	1	5
622.815	1	6
623.154	1	-3
623.494	1	1
623.833	1	3
624.172	1	-4
624.511	1	-14
624.851	1	0
625.190	1	1
625.529	1	-11
625.869	1	15
626.208	1	-4
626.547	1	-12
626.886	1	2
627.226	1	6
627.565	1	13
627.904	1	6
628.243	1	8
628.583	1	5
628.922	1	12
629.261	1	2
629.600	1	-5
629.940	1	8
630.279	1	1
630.618	1	0
630.957	1	5
631.297	1	5
631.636	1	-2
631.975	1	3
632.314	1	16
632.653	1	-7
632.993	1	9
633.332	1	7
633.671	1	4
634.010	1	-1
634.349	1	13
634.689	1	-5
635.028	1	-14
635.367	1	4
635.706	1	2
636.045	1	0
636.384	1	3
636.724	1	0
637.063	1	4
637.402	1	4
637.741	1	10
638.080	1	-4
638.419	1	-4
638.759	1	5
639.098	1	4
639.437	1	6
639.776	1	4
640.115	1	8
640.454	1	-1
640.793	1	-1
641.132	1	10
641.472	1	10
641.811	1	3
642.150	1	0
642.489	1	7
642.828	1	13
643.167	1	5
643.506	1	-9
643.845	1	16
644.184	1	10
644.524	1	-8
644.863	1	-4
645.202	1	0
645.541	1	-2
645.880	1	13
646.219	1	5
646.558	1	1
646.897	1	-5
647.236	1	-11
647.575	1	10
647.914	1	5
648.253	1	10
648.592	1	6
648.931	1	8
649.270	1	10
649.610	1	4
649.949	1	-7
650.288	1	5
650.627	1	2
650.966	1	9
651.305	1	5
651.644	1	4
651.983	1	0
652.322	1	-1
652.661	1	0
653.000	1	0
653.339	1	-2
653.678	1	8
654.017	1	7
654.356	1	-1
654.695	1	15
655.034	1	-5
655.373	1	1
655.712	1	13
656.051	1	1
656.390	1	2
656.729	1	10
657.068	1	7
657.406	1	-12
657.745	1	10
658.084	1	-2
658.423	1	14
658.762	1	1
659.101	1	-4
659.440	1	9
659.779	1	16
660.118	1	1
660.457	1	6
660.796	1	10
661.135	1	5
661.474	1	-3
661.813	1	3
662.152	1	0
662.491	1	0
662.829	1	-5
663.168	1	-4
663.507	1	8
663.846	1	-5
664.185	1	1
664.524	1	14
664.863	1	-9
665.202	1	2
665.541	1	-1
665.879	1	3
666.218	1	4
666.557	1	-3
666.896	1	11
667.235	1	2
667.574	1	-2
667.913	1	-7
668.251	1	-12
668.590	1	-5
668.929	1	0
669.268	1	-2
669.607	1	-11
669.946	1	-11
670.285	1	5
670.623	1	14
670.962	1	-6
671.301	1	11
671.640	1	7
671.979	1	-1
672.317	1	-2
672.656	1	14
672.995	1	8
673.334	1	-6
673.673	1	12
674.011	1	9
674.350	1	-1
674.689	1	-5
675.028	1	-4
675.367	1	6
675.705	1	-9
676.044	1	0
676.383	1	-1
676.722	1	-7
677.060	1	-1
677.399	1	15
677.738	1	-1
678.077	1	1
678.416	1	3
678.754	1	0
679.093	1	13
679.432	1	-1
679.771	1	-4
680.109	1	2
680.448	1	-11
680.787	1	-10
681.125	1	1
681.464	1	6
681.803	1	4
682.142	1	-2
682.480	1	1
682.819	1	-4
683.158	1	-3
683.496	1	-2
683.835	1	2
684.174	1	-5
684.512	1	1
684.851	1	1
685.190	1	-4
685.529	1	-3
685.867	1	-7
686.206	1	-4
686.545	1	-7
686.883	1	9
687.222	1	-4
687.561	1	-2
687.899	1	-6
688.238	1	2
688.577	1	-1
688.746	1	-3