File: Data/GaN_150K_450ms/GaN_sample D_spot15_UVVIS_150 K_200um_450 ms 2x2mm1_138.txt
340.368	1	4
340.710	1	3
341.052	1	4
341.394	1	-7
341.737	1	4
342.079	1	11
342.421	1	5
342.763	1	1
343.105	1	3
343.447	1	5
343.789	1	-2
344.131	1	-1
344.473	1	3
344.815	1	7
345.157	1	9
345.499	1	-3
345.841	1	7
346.183	1	17
346.526	1	10
346.868	1	-3
347.210	1	0
347.552	1	14
347.894	1	5
348.236	1	8
348.578	1	5
348.920	1	2
349.262	1	5
349.604	1	-3
349.946	1	1
350.288	1	-7
350.630	1	3
350.972	1	5
351.314	1	3
351.656	1	8
351.998	1	6
352.340	1	8
352.682	1	-8
353.024	1	19
353.366	1	6
353.708	1	3
354.050	1	-2
354.392	1	12
354.734	1	4
355.076	1	18
355.418	1	2
355.760	1	8
356.102	1	7
356.444	1	9
356.785	1	4
357.127	1	16
357.469	1	9
357.811	1	1
358.153	1	-8
358.495	1	3
358.837	1	15
359.179	1	6
359.521	1	25
359.863	1	9
360.205	1	21
360.547	1	11
360.889	1	5
361.231	1	14
361.572	1	19
361.914	1	20
362.256	1	17
362.598	1	19
362.940	1	24
363.282	1	12
363.624	1	28
363.966	1	26
364.308	1	15
364.649	1	24
364.991	1	34
365.333	1	34
365.675	1	45
366.017	1	43
366.359	1	43
366.701	1	39
367.042	1	41
367.384	1	36
367.726	1	46
368.068	1	51
368.410	1	52
368.752	1	55
369.093	1	53
369.435	1	50
369.777	1	53
370.119	1	47
370.461	1	47
370.803	1	40
371.144	1	38
371.486	1	48
371.828	1	34
372.170	1	36
372.512	1	30
372.853	1	38
373.195	1	31
373.537	1	18
373.879	1	26
374.220	1	33
374.562	1	28
374.904	1	21
375.246	1	15
375.588	1	20
375.929	1	26
376.271	1	11
376.613	1	19
376.955	1	21
377.296	1	15
377.638	1	10
377.980	1	13
378.321	1	25
378.663	1	11
379.005	1	13
379.347	1	16
379.688	1	14
380.030	1	17
380.372	1	16
380.714	1	19
381.055	1	8
381.397	1	7
381.739	1	6
382.080	1	7
382.422	1	13
382.764	1	11
383.105	1	15
383.447	1	10
383.789	1	0
384.130	1	8
384.472	1	10
384.814	1	23
385.156	1	12
385.497	1	20
385.839	1	11
386.180	1	7
386.522	1	15
386.864	1	8
387.205	1	19
387.547	1	23
387.889	1	2
388.230	1	12
388.572	1	7
388.914	1	17
389.255	1	5
389.597	1	3
389.939	1	14
390.280	1	11
390.622	1	2
390.963	1	-3
391.305	1	10
391.647	1	14
391.988	1	7
392.330	1	10
392.671	1	4
393.013	1	7
393.355	1	11
393.696	1	11
394.038	1	10
394.379	1	4
394.721	1	16
395.062	1	1
395.404	1	18
395.746	1	3
396.087	1	4
396.429	1	10
396.770	1	8
397.112	1	9
397.453	1	-5
397.795	1	2
398.136	1	6
398.478	1	1
398.819	1	14
399.161	1	12
399.503	1	5
399.844	1	9
400.186	1	15
400.527	1	13
400.869	1	11
401.210	1	7
401.552	1	8
401.893	1	17
402.235	1	11
402.576	1	7
402.918	1	1
403.259	1	9
403.601	1	16
403.942	1	4
404.284	1	17
404.625	1	5
404.967	1	16
405.308	1	4
405.649	1	12
405.991	1	8
406.332	1	4
406.674	1	8
407.015	1	17
407.357	1	19
407.698	1	10
408.040	1	14
408.381	1	9
408.722	1	19
409.064	1	11
409.405	1	11
409.747	1	9
410.088	1	14
410.430	1	19
410.771	1	7
411.112	1	10
411.454	1	17
411.795	1	10
412.137	1	7
412.478	1	11
412.819	1	7
413.161	1	-3
413.502	1	2
413.844	1	17
414.185	1	11
414.526	1	-2
414.868	1	4
415.209	1	-4
415.550	1	9
415.892	1	18
416.233	1	7
416.575	1	9
416.916	1	3
417.257	1	5
417.599	1	14
417.940	1	5
418.281	1	13
418.623	1	8
418.964	1	26
419.305	1	10
419.647	1	9
419.988	1	14
420.329	1	12
420.671	1	17
421.012	1	5
421.353	1	13
421.695	1	14
422.036	1	22
422.377	1	11
422.718	1	18
423.060	1	17
423.401	1	10
423.742	1	11
424.084	1	8
424.425	1	12
424.766	1	10
425.107	1	8
425.449	1	18
425.790	1	20
426.131	1	6
426.472	1	13
426.814	1	10
427.155	1	15
427.496	1	7
427.837	1	6
428.179	1	22
428.520	1	4
428.861	1	7
429.202	1	0
429.544	1	4
429.885	1	7
430.226	1	1
430.567	1	2
430.909	1	7
431.250	1	11
431.591	1	13
431.932	1	14
432.273	1	17
432.615	1	-2
432.956	1	12
433.297	1	12
433.638	1	16
433.979	1	7
434.320	1	9
434.662	1	17
435.003	1	24
435.344	1	10
435.685	1	0
436.026	1	10
436.368	1	3
436.709	1	5
437.050	1	6
437.391	1	5
437.732	1	9
438.073	1	0
438.414	1	21
438.756	1	6
439.097	1	9
439.438	1	6
439.779	1	16
440.120	1	5
440.461	1	10
440.802	1	10
441.143	1	9
441.485	1	7
441.826	1	4
442.167	1	20
442.508	1	2
442.849	1	4
443.190	1	18
443.531	1	13
443.872	1	4
444.213	1	0
444.554	1	9
444.895	1	-1
445.237	1	6
445.578	1	6
445.919	1	6
446.260	1	16
446.601	1	5
446.942	1	1
447.283	1	21
447.624	1	-3
447.965	1	2
448.306	1	3
448.647	1	9
448.988	1	9
449.329	1	14
449.670	1	15
450.011	1	5
450.352	1	4
450.693	1	17
451.034	1	5
451.375	1	1
451.716	1	5
452.057	1	5
452.398	1	16
452.739	1	5
453.080	1	2
453.421	1	16
453.762	1	12
454.103	1	0
454.444	1	4
454.785	1	11
455.126	1	6
455.467	1	10
455.808	1	4
456.149	1	6
456.490	1	1
456.831	1	3
457.172	1	10
457.513	1	1
457.854	1	9
458.195	1	12
458.536	1	10
458.877	1	14
459.218	1	13
459.559	1	2
459.899	1	1
460.240	1	3
460.581	1	-3
460.922	1	7
461.263	1	11
461.604	1	7
461.945	1	10
462.286	1	7
462.627	1	16
462.968	1	9
463.309	1	7
463.649	1	-8
463.990	1	6
464.331	1	9
464.672	1	10
465.013	1	8
465.354	1	17
465.695	1	4
466.036	1	13
466.376	1	15
466.717	1	-2
467.058	1	10
467.399	1	-1
467.740	1	17
468.081	1	9
468.422	1	8
468.762	1	7
469.103	1	5
469.444	1	13
469.785	1	1
470.126	1	2
470.467	1	5
470.807	1	17
471.148	1	-5
471.489	1	11
471.830	1	0
472.171	1	13
472.511	1	8
472.852	1	10
473.193	1	9
473.534	1	3
473.875	1	0
474.215	1	7
474.556	1	0
474.897	1	7
475.238	1	1
475.578	1	1
475.919	1	5
476.260	1	4
476.601	1	11
476.942	1	13
477.282	1	1
477.623	1	2
477.964	1	3
478.305	1	7
478.645	1	3
478.986	1	11
479.327	1	4
479.667	1	1
480.008	1	-3
480.349	1	-1
480.690	1	18
481.030	1	1
481.371	1	-5
481.712	1	13
482.053	1	12
482.393	1	5
482.734	1	13
483.075	1	4
483.415	1	6
483.756	1	4
484.097	1	17
484.437	1	11
484.778	1	6
485.119	1	7
485.459	1	1
485.800	1	-1
486.141	1	6
486.481	1	-4
486.822	1	17
487.163	1	-1
487.503	1	11
487.844	1	-5
488.185	1	1
488.525	1	3
488.866	1	-1
489.207	1	13
489.547	1	-1
489.888	1	11
490.228	1	4
490.569	1	-4
490.910	1	6
491.250	1	3
491.591	1	7
491.932	1	13
492.272	1	-8
492.613	1	12
492.953	1	9
493.294	1	-1
493.635	1	4
493.975	1	13
494.316	1	-6
494.656	1	13
494.997	1	6
495.337	1	3
495.678	1	5
496.019	1	7
496.359	1	4
496.700	1	9
497.040	1	0
497.381	1	19
497.721	1	3
498.062	1	3
498.403	1	4
498.743	1	17
499.084	1	8
499.424	1	-1
499.765	1	12
500.105	1	8
500.446	1	-2
500.786	1	3
501.127	1	9
501.467	1	10
501.808	1	8
502.148	1	3
502.489	1	10
502.829	1	1
503.170	1	8
503.510	1	8
503.851	1	14
504.191	1	0
504.532	1	10
504.872	1	-3
505.213	1	3
505.553	1	14
505.894	1	8
506.234	1	15
506.575	1	14
506.915	1	14
507.256	1	15
507.596	1	17
507.936	1	17
508.277	1	3
508.617	1	19
508.958	1	16
509.298	1	4
509.639	1	6
509.979	1	3
510.319	1	8
510.660	1	5
511.000	1	-2
511.341	1	18
511.681	1	6
512.022	1	3
512.362	1	11
512.702	1	5
513.043	1	7
513.383	1	13
513.724	1	10
514.064	1	17
514.404	1	8
514.745	1	5
515.085	1	16
515.425	1	20
515.766	1	9
516.106	1	3
516.447	1	8
516.787	1	11
517.127	1	16
517.468	1	20
517.808	1	3
518.148	1	17
518.489	1	10
518.829	1	12
519.169	1	2
519.510	1	1
519.850	1	13
520.190	1	10
520.531	1	13
520.871	1	10
521.211	1	20
521.552	1	8
521.892	1	3
522.232	1	15
522.573	1	15
522.913	1	5
523.253	1	19
523.593	1	24
523.934	1	10
524.274	1	7
524.614	1	15
524.955	1	11
525.295	1	6
525.635	1	14
525.975	1	5
526.316	1	4
526.656	1	15
526.996	1	9
527.337	1	12
527.677	1	23
528.017	1	12
528.357	1	22
528.698	1	20
529.038	1	7
529.378	1	17
529.718	1	6
530.058	1	14
530.399	1	12
530.739	1	14
531.079	1	12
531.419	1	12
531.760	1	13
532.100	1	20
532.440	1	25
532.780	1	13
533.120	1	9
533.461	1	8
533.801	1	20
534.141	1	10
534.481	1	29
534.821	1	4
535.162	1	8
535.502	1	18
535.842	1	5
536.182	1	16
536.522	1	14
536.862	1	9
537.203	1	17
537.543	1	5
537.883	1	11
538.223	1	22
538.563	1	7
538.903	1	6
539.243	1	10
539.584	1	8
539.924	1	15
540.264	1	13
540.604	1	18
540.944	1	5
541.284	1	19
541.624	1	13
541.964	1	5
542.305	1	14
542.645	1	6
542.985	1	14
543.325	1	15
543.665	1	16
544.005	1	13
544.345	1	18
544.685	1	14
545.025	1	18
545.365	1	8
545.705	1	8
546.045	1	15
546.386	1	8
546.726	1	13
547.066	1	10
547.406	1	9
547.746	1	3
548.086	1	6
548.426	1	2
548.766	1	7
549.106	1	7
549.446	1	7
549.786	1	16
550.126	1	14
550.466	1	9
550.806	1	11
551.146	1	13
551.486	1	14
551.826	1	12
552.166	1	9
552.506	1	10
552.846	1	15
553.186	1	-1
553.526	1	2
553.866	1	4
554.206	1	16
554.546	1	11
554.886	1	1
555.226	1	8
555.566	1	7
555.906	1	13
556.246	1	14
556.586	1	11
556.926	1	7
557.266	1	11
557.606	1	0
557.946	1	17
558.286	1	1
558.626	1	8
558.966	1	14
559.306	1	16
559.646	1	20
559.986	1	16
560.325	1	9
560.665	1	8
561.005	1	4
561.345	1	7
561.685	1	8
562.025	1	3
562.365	1	5
562.705	1	10
563.045	1	11
563.385	1	8
563.725	1	-8
564.064	1	14
564.404	1	4
564.744	1	11
565.084	1	11
565.424	1	7
565.764	1	15
566.104	1	8
566.444	1	16
566.783	1	-2
567.123	1	11
567.463	1	7
567.803	1	9
568.143	1	7
568.483	1	13
568.823	1	4
569.162	1	1
569.502	1	22
569.842	1	0
570.182	1	7
570.522	1	4
570.862	1	-7
571.201	1	7
571.541	1	4
571.881	1	6
572.221	1	10
572.561	1	12
572.900	1	9
573.240	1	3
573.580	1	14
573.920	1	16
574.260	1	8
574.599	1	13
574.939	1	9
575.279	1	4
575.619	1	4
575.959	1	1
576.298	1	-4
576.638	1	7
576.978	1	10
577.318	1	12
577.657	1	-2
577.997	1	11
578.337	1	11
578.677	1	7
579.016	1	13
579.356	1	8
579.696	1	5
580.036	1	2
580.375	1	4
580.715	1	9
581.055	1	8
581.394	1	1
581.734	1	7
582.074	1	8
582.414	1	3
582.753	1	12
583.093	1	5
583.433	1	7
583.772	1	10
584.112	1	2
584.452	1	8
584.791	1	6
585.131	1	10
585.471	1	8
585.811	1	8
586.150	1	14
586.490	1	1
586.830	1	2
587.169	1	7
587.509	1	9
587.849	1	8
588.188	1	14
588.528	1	7
588.867	1	16
589.207	1	17
589.547	1	-2
589.886	1	2
590.226	1	5
590.566	1	7
590.905	1	6
591.245	1	-5
591.585	1	1
591.924	1	7
592.264	1	6
592.603	1	-3
592.943	1	5
593.283	1	8
593.622	1	-1
593.962	1	5
594.301	1	11
594.641	1	9
594.981	1	6
595.320	1	5
595.660	1	5
595.999	1	5
596.339	1	7
596.678	1	3
597.018	1	-3
597.358	1	2
597.697	1	8
598.037	1	5
598.376	1	-10
598.716	1	6
599.055	1	10
599.395	1	6
599.734	1	10
600.074	1	2
600.413	1	2
600.753	1	4
601.092	1	1
601.432	1	-1
601.771	1	10
602.111	1	1
602.451	1	-4
602.790	1	10
603.130	1	0
603.469	1	8
603.809	1	6
604.148	1	0
604.487	1	11
604.827	1	11
605.166	1	3
605.506	1	0
605.845	1	14
606.185	1	9
606.524	1	4
606.864	1	7
607.203	1	7
607.543	1	8
607.882	1	11
608.222	1	4
608.561	1	2
608.901	1	22
609.240	1	9
609.579	1	-4
609.919	1	-4
610.258	1	5
610.598	1	-2
610.937	1	7
611.277	1	5
611.616	1	11
611.955	1	2
612.295	1	12
612.634	1	11
612.974	1	-2
613.313	1	13
613.652	1	19
613.992	1	6
614.331	1	12
614.671	1	2
615.010	1	5
615.349	1	8
615.689	1	5
616.028	1	9
616.368	1	11
616.707	1	-4
617.046	1	-3
617.386	1	4
617.725	1	2
618.064	1	-6
618.404	1	3
618.743	1	6
619.082	1	15
619.422	1	9
619.761	1	0
620.100	1	7
620.440	1	1
620.779	1	4
621.118	1	4
621.458	1	2
621.797	1	-1
622.136	1	1
622.476	1	9
622.815	1	3
623.154	1	-2
623.494	1	4
623.833	1	11
624.172	1	7
624.511	1	-3
624.851	1	4
625.190	1	5
625.529	1	6
625.869	1	14
626.208	1	-2
626.547	1	-1
626.886	1	-5
627.226	1	7
627.565	1	-2
627.904	1	-3
628.243	1	2
628.583	1	9
628.922	1	3
629.261	1	6
629.600	1	3
629.940	1	4
630.279	1	3
630.618	1	11
630.957	1	11
631.297	1	6
631.636	1	5
631.975	1	7
632.314	1	4
632.653	1	2
632.993	1	11
633.332	1	7
633.671	1	4
634.010	1	8
634.349	1	11
634.689	1	4
635.028	1	5
635.367	1	12
635.706	1	3
636.045	1	0
636.384	1	10
636.724	1	6
637.063	1	-6
637.402	1	9
637.741	1	5
638.080	1	3
638.419	1	2
638.759	1	7
639.098	1	2
639.437	1	11
639.776	1	2
640.115	1	-3
640.454	1	-9
640.793	1	-5
641.132	1	5
641.472	1	14
641.811	1	-1
642.150	1	-9
642.489	1	9
642.828	1	8
643.167	1	11
643.506	1	6
643.845	1	5
644.184	1	11
644.524	1	1
644.863	1	9
645.202	1	2
645.541	1	6
645.880	1	9
646.219	1	4
646.558	1	-4
646.897	1	-5
647.236	1	-11
647.575	1	10
647.914	1	6
648.253	1	9
648.592	1	4
648.931	1	9
649.270	1	10
649.610	1	5
649.949	1	3
650.288	1	17
650.627	1	0
650.966	1	4
651.305	1	10
651.644	1	13
651.983	1	-3
652.322	1	9
652.661	1	5
653.000	1	10
653.339	1	3
653.678	1	-1
654.017	1	10
654.356	1	11
654.695	1	23
655.034	1	2
655.373	1	17
655.712	1	4
656.051	1	-1
656.390	1	14
656.729	1	11
657.068	1	5
657.406	1	-8
657.745	1	17
658.084	1	14
658.423	1	11
658.762	1	1
659.101	1	2
659.440	1	11
659.779	1	9
660.118	1	2
660.457	1	10
660.796	1	20
661.135	1	9
661.474	1	7
661.813	1	-4
662.152	1	7
662.491	1	7
662.829	1	3
663.168	1	0
663.507	1	10
663.846	1	3
664.185	1	-1
664.524	1	14
664.863	1	5
665.202	1	11
665.541	1	0
665.879	1	14
666.218	1	3
666.557	1	-1
666.896	1	8
667.235	1	-1
667.574	1	2
667.913	1	6
668.251	1	-6
668.590	1	10
668.929	1	5
669.268	1	-7
669.607	1	-1
669.946	1	-5
670.285	1	0
670.623	1	1
670.962	1	-1
671.301	1	2
671.640	1	1
671.979	1	3
672.317	1	2
672.656	1	4
672.995	1	7
673.334	1	-5
673.673	1	16
674.011	1	2
674.350	1	13
674.689	1	-4
675.028	1	11
675.367	1	1
675.705	1	-9
676.044	1	3
676.383	1	-5
676.722	1	1
677.060	1	10
677.399	1	17
677.738	1	8
678.077	1	-2
678.416	1	-7
678.754	1	2
679.093	1	6
679.432	1	-6
679.771	1	10
680.109	1	2
680.448	1	4
680.787	1	-13
681.125	1	4
681.464	1	14
681.803	1	3
682.142	1	7
682.480	1	0
682.819	1	5
683.158	1	3
683.496	1	-3
683.835	1	7
684.174	1	6
684.512	1	-2
684.851	1	7
685.190	1	8
685.529	1	-2
685.867	1	6
686.206	1	-11
686.545	1	1
686.883	1	11
687.222	1	1
687.561	1	5
687.899	1	1
688.238	1	14
688.577	1	1
688.746	1	2