File: Data/GaN_150K_450ms/GaN_sample D_spot15_UVVIS_150 K_200um_450 ms 2x2mm1_114.txt
340.368	1	5
340.710	1	10
341.052	1	4
341.394	1	-5
341.737	1	8
342.079	1	6
342.421	1	2
342.763	1	7
343.105	1	-2
343.447	1	3
343.789	1	11
344.131	1	3
344.473	1	6
344.815	1	10
345.157	1	9
345.499	1	-1
345.841	1	6
346.183	1	6
346.526	1	10
346.868	1	2
347.210	1	2
347.552	1	22
347.894	1	0
348.236	1	9
348.578	1	8
348.920	1	10
349.262	1	9
349.604	1	5
349.946	1	-8
350.288	1	4
350.630	1	-1
350.972	1	14
351.314	1	5
351.656	1	6
351.998	1	6
352.340	1	13
352.682	1	-2
353.024	1	16
353.366	1	18
353.708	1	10
354.050	1	-9
354.392	1	0
354.734	1	-2
355.076	1	20
355.418	1	1
355.760	1	12
356.102	1	10
356.444	1	13
356.785	1	10
357.127	1	17
357.469	1	9
357.811	1	9
358.153	1	7
358.495	1	9
358.837	1	19
359.179	1	15
359.521	1	27
359.863	1	17
360.205	1	27
360.547	1	26
360.889	1	22
361.231	1	18
361.572	1	26
361.914	1	24
362.256	1	26
362.598	1	38
362.940	1	19
363.282	1	35
363.624	1	40
363.966	1	29
364.308	1	42
364.649	1	39
364.991	1	52
365.333	1	36
365.675	1	69
366.017	1	59
366.359	1	46
366.701	1	49
367.042	1	70
367.384	1	53
367.726	1	59
368.068	1	68
368.410	1	74
368.752	1	78
369.093	1	75
369.435	1	69
369.777	1	70
370.119	1	62
370.461	1	53
370.803	1	57
371.144	1	60
371.486	1	59
371.828	1	51
372.170	1	46
372.512	1	40
372.853	1	57
373.195	1	45
373.537	1	29
373.879	1	29
374.220	1	39
374.562	1	51
374.904	1	42
375.246	1	37
375.588	1	25
375.929	1	30
376.271	1	35
376.613	1	39
376.955	1	29
377.296	1	28
377.638	1	22
377.980	1	19
378.321	1	29
378.663	1	16
379.005	1	21
379.347	1	7
379.688	1	19
380.030	1	27
380.372	1	19
380.714	1	21
381.055	1	21
381.397	1	22
381.739	1	11
382.080	1	12
382.422	1	17
382.764	1	21
383.105	1	12
383.447	1	8
383.789	1	5
384.130	1	13
384.472	1	3
384.814	1	20
385.156	1	17
385.497	1	16
385.839	1	21
386.180	1	15
386.522	1	15
386.864	1	10
387.205	1	15
387.547	1	13
387.889	1	4
388.230	1	7
388.572	1	5
388.914	1	12
389.255	1	8
389.597	1	11
389.939	1	22
390.280	1	4
390.622	1	9
390.963	1	5
391.305	1	5
391.647	1	8
391.988	1	8
392.330	1	5
392.671	1	9
393.013	1	17
393.355	1	28
393.696	1	15
394.038	1	18
394.379	1	21
394.721	1	10
395.062	1	4
395.404	1	14
395.746	1	-3
396.087	1	18
396.429	1	16
396.770	1	19
397.112	1	7
397.453	1	0
397.795	1	12
398.136	1	9
398.478	1	9
398.819	1	5
399.161	1	8
399.503	1	14
399.844	1	11
400.186	1	8
400.527	1	15
400.869	1	3
401.210	1	10
401.552	1	10
401.893	1	14
402.235	1	19
402.576	1	4
402.918	1	0
403.259	1	7
403.601	1	16
403.942	1	7
404.284	1	9
404.625	1	6
404.967	1	16
405.308	1	-2
405.649	1	6
405.991	1	15
406.332	1	14
406.674	1	9
407.015	1	10
407.357	1	11
407.698	1	11
408.040	1	18
408.381	1	9
408.722	1	21
409.064	1	9
409.405	1	5
409.747	1	11
410.088	1	21
410.430	1	26
410.771	1	15
411.112	1	15
411.454	1	9
411.795	1	16
412.137	1	10
412.478	1	16
412.819	1	19
413.161	1	10
413.502	1	20
413.844	1	20
414.185	1	-3
414.526	1	5
414.868	1	9
415.209	1	7
415.550	1	9
415.892	1	14
416.233	1	9
416.575	1	2
416.916	1	7
417.257	1	16
417.599	1	0
417.940	1	6
418.281	1	22
418.623	1	12
418.964	1	19
419.305	1	25
419.647	1	15
419.988	1	27
420.329	1	15
420.671	1	19
421.012	1	5
421.353	1	29
421.695	1	19
422.036	1	25
422.377	1	14
422.718	1	20
423.060	1	9
423.401	1	5
423.742	1	17
424.084	1	14
424.425	1	16
424.766	1	7
425.107	1	12
425.449	1	12
425.790	1	9
426.131	1	14
426.472	1	25
426.814	1	15
427.155	1	14
427.496	1	9
427.837	1	15
428.179	1	23
428.520	1	15
428.861	1	19
429.202	1	6
429.544	1	12
429.885	1	14
430.226	1	7
430.567	1	1
430.909	1	13
431.250	1	11
431.591	1	19
431.932	1	5
432.273	1	17
432.615	1	3
432.956	1	13
433.297	1	11
433.638	1	15
433.979	1	17
434.320	1	2
434.662	1	22
435.003	1	19
435.344	1	19
435.685	1	14
436.026	1	9
436.368	1	-3
436.709	1	6
437.050	1	1
437.391	1	13
437.732	1	22
438.073	1	13
438.414	1	12
438.756	1	8
439.097	1	15
439.438	1	13
439.779	1	5
440.120	1	14
440.461	1	11
440.802	1	18
441.143	1	19
441.485	1	14
441.826	1	-1
442.167	1	10
442.508	1	21
442.849	1	17
443.190	1	13
443.531	1	16
443.872	1	8
444.213	1	-2
444.554	1	12
444.895	1	15
445.237	1	12
445.578	1	8
445.919	1	9
446.260	1	18
446.601	1	10
446.942	1	10
447.283	1	26
447.624	1	2
447.965	1	16
448.306	1	6
448.647	1	1
448.988	1	16
449.329	1	14
449.670	1	9
450.011	1	4
450.352	1	1
450.693	1	11
451.034	1	2
451.375	1	1
451.716	1	5
452.057	1	9
452.398	1	11
452.739	1	10
453.080	1	9
453.421	1	10
453.762	1	20
454.103	1	11
454.444	1	13
454.785	1	8
455.126	1	13
455.467	1	13
455.808	1	15
456.149	1	-2
456.490	1	8
456.831	1	0
457.172	1	11
457.513	1	-1
457.854	1	7
458.195	1	6
458.536	1	8
458.877	1	6
459.218	1	18
459.559	1	6
459.899	1	3
460.240	1	0
460.581	1	-1
460.922	1	4
461.263	1	15
461.604	1	16
461.945	1	14
462.286	1	2
462.627	1	11
462.968	1	4
463.309	1	11
463.649	1	2
463.990	1	11
464.331	1	14
464.672	1	10
465.013	1	9
465.354	1	19
465.695	1	8
466.036	1	16
466.376	1	9
466.717	1	1
467.058	1	3
467.399	1	5
467.740	1	12
468.081	1	-5
468.422	1	7
468.762	1	16
469.103	1	6
469.444	1	5
469.785	1	1
470.126	1	6
470.467	1	2
470.807	1	13
471.148	1	3
471.489	1	12
471.830	1	-1
472.171	1	9
472.511	1	7
472.852	1	12
473.193	1	8
473.534	1	13
473.875	1	2
474.215	1	1
474.556	1	5
474.897	1	-3
475.238	1	11
475.578	1	1
475.919	1	3
476.260	1	1
476.601	1	5
476.942	1	4
477.282	1	-8
477.623	1	2
477.964	1	7
478.305	1	13
478.645	1	2
478.986	1	17
479.327	1	13
479.667	1	9
480.008	1	2
480.349	1	0
480.690	1	8
481.030	1	0
481.371	1	5
481.712	1	20
482.053	1	16
482.393	1	13
482.734	1	6
483.075	1	18
483.415	1	-2
483.756	1	18
484.097	1	11
484.437	1	5
484.778	1	6
485.119	1	1
485.459	1	4
485.800	1	4
486.141	1	15
486.481	1	0
486.822	1	18
487.163	1	3
487.503	1	11
487.844	1	-5
488.185	1	12
488.525	1	6
488.866	1	6
489.207	1	13
489.547	1	10
489.888	1	14
490.228	1	7
490.569	1	2
490.910	1	20
491.250	1	11
491.591	1	3
491.932	1	11
492.272	1	5
492.613	1	8
492.953	1	12
493.294	1	0
493.635	1	8
493.975	1	20
494.316	1	5
494.656	1	17
494.997	1	0
495.337	1	8
495.678	1	11
496.019	1	7
496.359	1	8
496.700	1	9
497.040	1	-2
497.381	1	11
497.721	1	0
498.062	1	3
498.403	1	21
498.743	1	8
499.084	1	12
499.424	1	7
499.765	1	12
500.105	1	17
500.446	1	3
500.786	1	4
501.127	1	22
501.467	1	24
501.808	1	10
502.148	1	6
502.489	1	7
502.829	1	10
503.170	1	19
503.510	1	12
503.851	1	19
504.191	1	11
504.532	1	28
504.872	1	1
505.213	1	6
505.553	1	16
505.894	1	15
506.234	1	17
506.575	1	25
506.915	1	24
507.256	1	18
507.596	1	23
507.936	1	24
508.277	1	19
508.617	1	17
508.958	1	17
509.298	1	2
509.639	1	3
509.979	1	14
510.319	1	15
510.660	1	6
511.000	1	13
511.341	1	20
511.681	1	18
512.022	1	4
512.362	1	20
512.702	1	10
513.043	1	10
513.383	1	11
513.724	1	8
514.064	1	18
514.404	1	14
514.745	1	14
515.085	1	18
515.425	1	16
515.766	1	13
516.106	1	15
516.447	1	20
516.787	1	22
517.127	1	23
517.468	1	21
517.808	1	15
518.148	1	19
518.489	1	18
518.829	1	25
519.169	1	16
519.510	1	2
519.850	1	19
520.190	1	16
520.531	1	16
520.871	1	22
521.211	1	24
521.552	1	18
521.892	1	23
522.232	1	16
522.573	1	28
522.913	1	19
523.253	1	24
523.593	1	15
523.934	1	29
524.274	1	17
524.614	1	27
524.955	1	15
525.295	1	31
525.635	1	28
525.975	1	21
526.316	1	3
526.656	1	11
526.996	1	13
527.337	1	23
527.677	1	32
528.017	1	8
528.357	1	21
528.698	1	23
529.038	1	16
529.378	1	18
529.718	1	28
530.058	1	16
530.399	1	11
530.739	1	19
531.079	1	23
531.419	1	20
531.760	1	24
532.100	1	28
532.440	1	25
532.780	1	20
533.120	1	17
533.461	1	16
533.801	1	18
534.141	1	22
534.481	1	29
534.821	1	13
535.162	1	30
535.502	1	23
535.842	1	13
536.182	1	15
536.522	1	21
536.862	1	17
537.203	1	13
537.543	1	20
537.883	1	18
538.223	1	29
538.563	1	11
538.903	1	15
539.243	1	20
539.584	1	18
539.924	1	8
540.264	1	24
540.604	1	32
540.944	1	16
541.284	1	11
541.624	1	8
541.964	1	17
542.305	1	26
542.645	1	18
542.985	1	7
543.325	1	24
543.665	1	16
544.005	1	20
544.345	1	23
544.685	1	23
545.025	1	17
545.365	1	23
545.705	1	5
546.045	1	29
546.386	1	9
546.726	1	9
547.066	1	16
547.406	1	12
547.746	1	16
548.086	1	11
548.426	1	9
548.766	1	15
549.106	1	16
549.446	1	15
549.786	1	24
550.126	1	14
550.466	1	13
550.806	1	24
551.146	1	24
551.486	1	17
551.826	1	6
552.166	1	15
552.506	1	10
552.846	1	22
553.186	1	3
553.526	1	17
553.866	1	13
554.206	1	17
554.546	1	17
554.886	1	13
555.226	1	11
555.566	1	14
555.906	1	11
556.246	1	18
556.586	1	8
556.926	1	8
557.266	1	21
557.606	1	6
557.946	1	8
558.286	1	5
558.626	1	18
558.966	1	4
559.306	1	9
559.646	1	11
559.986	1	17
560.325	1	11
560.665	1	14
561.005	1	7
561.345	1	10
561.685	1	16
562.025	1	12
562.365	1	8
562.705	1	24
563.045	1	11
563.385	1	12
563.725	1	6
564.064	1	11
564.404	1	1
564.744	1	13
565.084	1	19
565.424	1	7
565.764	1	17
566.104	1	12
566.444	1	15
566.783	1	15
567.123	1	5
567.463	1	14
567.803	1	15
568.143	1	7
568.483	1	19
568.823	1	6
569.162	1	3
569.502	1	12
569.842	1	12
570.182	1	14
570.522	1	1
570.862	1	7
571.201	1	19
571.541	1	14
571.881	1	6
572.221	1	9
572.561	1	21
572.900	1	9
573.240	1	4
573.580	1	20
573.920	1	24
574.260	1	7
574.599	1	10
574.939	1	13
575.279	1	8
575.619	1	4
575.959	1	11
576.298	1	4
576.638	1	19
576.978	1	9
577.318	1	9
577.657	1	9
577.997	1	18
578.337	1	10
578.677	1	10
579.016	1	15
579.356	1	16
579.696	1	16
580.036	1	-2
580.375	1	13
580.715	1	5
581.055	1	6
581.394	1	7
581.734	1	19
582.074	1	6
582.414	1	-5
582.753	1	9
583.093	1	13
583.433	1	18
583.772	1	21
584.112	1	1
584.452	1	16
584.791	1	10
585.131	1	7
585.471	1	8
585.811	1	9
586.150	1	17
586.490	1	3
586.830	1	10
587.169	1	6
587.509	1	7
587.849	1	19
588.188	1	15
588.528	1	12
588.867	1	14
589.207	1	11
589.547	1	7
589.886	1	10
590.226	1	3
590.566	1	3
590.905	1	3
591.245	1	-8
591.585	1	-2
591.924	1	8
592.264	1	16
592.603	1	-6
592.943	1	2
593.283	1	13
593.622	1	7
593.962	1	8
594.301	1	-2
594.641	1	3
594.981	1	8
595.320	1	9
595.660	1	10
595.999	1	4
596.339	1	3
596.678	1	0
597.018	1	1
597.358	1	0
597.697	1	0
598.037	1	3
598.376	1	4
598.716	1	4
599.055	1	11
599.395	1	6
599.734	1	9
600.074	1	8
600.413	1	14
600.753	1	11
601.092	1	2
601.432	1	1
601.771	1	8
602.111	1	6
602.451	1	8
602.790	1	11
603.130	1	0
603.469	1	3
603.809	1	9
604.148	1	-2
604.487	1	6
604.827	1	3
605.166	1	3
605.506	1	3
605.845	1	6
606.185	1	-1
606.524	1	5
606.864	1	25
607.203	1	15
607.543	1	6
607.882	1	5
608.222	1	9
608.561	1	5
608.901	1	14
609.240	1	7
609.579	1	-6
609.919	1	-2
610.258	1	16
610.598	1	5
610.937	1	12
611.277	1	10
611.616	1	8
611.955	1	-3
612.295	1	12
612.634	1	14
612.974	1	0
613.313	1	12
613.652	1	15
613.992	1	5
614.331	1	14
614.671	1	7
615.010	1	8
615.349	1	6
615.689	1	9
616.028	1	14
616.368	1	17
616.707	1	5
617.046	1	8
617.386	1	11
617.725	1	3
618.064	1	4
618.404	1	-6
618.743	1	8
619.082	1	15
619.422	1	21
619.761	1	7
620.100	1	4
620.440	1	7
620.779	1	10
621.118	1	13
621.458	1	8
621.797	1	12
622.136	1	1
622.476	1	14
622.815	1	9
623.154	1	-4
623.494	1	-9
623.833	1	1
624.172	1	4
624.511	1	1
624.851	1	7
625.190	1	9
625.529	1	4
625.869	1	13
626.208	1	3
626.547	1	9
626.886	1	8
627.226	1	0
627.565	1	10
627.904	1	3
628.243	1	10
628.583	1	14
628.922	1	8
629.261	1	4
629.600	1	0
629.940	1	1
630.279	1	11
630.618	1	10
630.957	1	9
631.297	1	4
631.636	1	6
631.975	1	10
632.314	1	14
632.653	1	8
632.993	1	16
633.332	1	4
633.671	1	9
634.010	1	-3
634.349	1	17
634.689	1	4
635.028	1	-3
635.367	1	13
635.706	1	4
636.045	1	1
636.384	1	12
636.724	1	13
637.063	1	1
637.402	1	2
637.741	1	5
638.080	1	-1
638.419	1	3
638.759	1	12
639.098	1	7
639.437	1	2
639.776	1	8
640.115	1	-2
640.454	1	-2
640.793	1	14
641.132	1	9
641.472	1	15
641.811	1	2
642.150	1	3
642.489	1	16
642.828	1	27
643.167	1	9
643.506	1	8
643.845	1	19
644.184	1	14
644.524	1	4
644.863	1	6
645.202	1	8
645.541	1	-7
645.880	1	10
646.219	1	7
646.558	1	4
646.897	1	-3
647.236	1	-9
647.575	1	15
647.914	1	10
648.253	1	12
648.592	1	8
648.931	1	13
649.270	1	8
649.610	1	4
649.949	1	4
650.288	1	9
650.627	1	6
650.966	1	13
651.305	1	3
651.644	1	12
651.983	1	-11
652.322	1	9
652.661	1	11
653.000	1	8
653.339	1	4
653.678	1	9
654.017	1	6
654.356	1	9
654.695	1	15
655.034	1	4
655.373	1	17
655.712	1	9
656.051	1	-3
656.390	1	4
656.729	1	10
657.068	1	3
657.406	1	4
657.745	1	10
658.084	1	7
658.423	1	14
658.762	1	-4
659.101	1	2
659.440	1	7
659.779	1	9
660.118	1	0
660.457	1	4
660.796	1	9
661.135	1	8
661.474	1	10
661.813	1	6
662.152	1	2
662.491	1	3
662.829	1	0
663.168	1	6
663.507	1	7
663.846	1	7
664.185	1	4
664.524	1	18
664.863	1	-1
665.202	1	7
665.541	1	6
665.879	1	3
666.218	1	9
666.557	1	0
666.896	1	13
667.235	1	3
667.574	1	3
667.913	1	10
668.251	1	-6
668.590	1	-4
668.929	1	3
669.268	1	-6
669.607	1	-1
669.946	1	-2
670.285	1	7
670.623	1	3
670.962	1	-6
671.301	1	2
671.640	1	11
671.979	1	1
672.317	1	13
672.656	1	19
672.995	1	8
673.334	1	0
673.673	1	13
674.011	1	10
674.350	1	7
674.689	1	-4
675.028	1	7
675.367	1	14
675.705	1	0
676.044	1	9
676.383	1	4
676.722	1	8
677.060	1	13
677.399	1	13
677.738	1	-1
678.077	1	4
678.416	1	3
678.754	1	4
679.093	1	22
679.432	1	5
679.771	1	6
680.109	1	8
680.448	1	-1
680.787	1	-4
681.125	1	0
681.464	1	6
681.803	1	3
682.142	1	2
682.480	1	-1
682.819	1	-1
683.158	1	0
683.496	1	0
683.835	1	7
684.174	1	-11
684.512	1	6
684.851	1	-1
685.190	1	8
685.529	1	7
685.867	1	-7
686.206	1	7
686.545	1	-2
686.883	1	17
687.222	1	-3
687.561	1	-1
687.899	1	8
688.238	1	8
688.577	1	0
688.746	1	5