File: Data/GaN_150K_450ms/GaN_sample D_spot15_UVVIS_150 K_200um_450 ms 2x2mm1_155.txt
340.368	1	5
340.710	1	4
341.052	1	-3
341.394	1	-7
341.737	1	11
342.079	1	4
342.421	1	1
342.763	1	-1
343.105	1	13
343.447	1	6
343.789	1	3
344.131	1	-5
344.473	1	2
344.815	1	9
345.157	1	7
345.499	1	-1
345.841	1	2
346.183	1	1
346.526	1	9
346.868	1	8
347.210	1	1
347.552	1	11
347.894	1	1
348.236	1	5
348.578	1	13
348.920	1	4
349.262	1	3
349.604	1	2
349.946	1	-3
350.288	1	-5
350.630	1	-7
350.972	1	8
351.314	1	7
351.656	1	11
351.998	1	2
352.340	1	4
352.682	1	-4
353.024	1	13
353.366	1	3
353.708	1	14
354.050	1	4
354.392	1	-11
354.734	1	5
355.076	1	13
355.418	1	6
355.760	1	9
356.102	1	3
356.444	1	9
356.785	1	12
357.127	1	3
357.469	1	12
357.811	1	12
358.153	1	-1
358.495	1	9
358.837	1	14
359.179	1	8
359.521	1	13
359.863	1	7
360.205	1	19
360.547	1	12
360.889	1	15
361.231	1	14
361.572	1	3
361.914	1	15
362.256	1	20
362.598	1	22
362.940	1	22
363.282	1	8
363.624	1	19
363.966	1	18
364.308	1	14
364.649	1	22
364.991	1	23
365.333	1	22
365.675	1	41
366.017	1	29
366.359	1	18
366.701	1	26
367.042	1	38
367.384	1	25
367.726	1	33
368.068	1	49
368.410	1	38
368.752	1	54
369.093	1	43
369.435	1	41
369.777	1	43
370.119	1	40
370.461	1	31
370.803	1	35
371.144	1	29
371.486	1	37
371.828	1	33
372.170	1	26
372.512	1	19
372.853	1	37
373.195	1	28
373.537	1	14
373.879	1	24
374.220	1	20
374.562	1	31
374.904	1	22
375.246	1	18
375.588	1	18
375.929	1	18
376.271	1	12
376.613	1	8
376.955	1	18
377.296	1	13
377.638	1	9
377.980	1	13
378.321	1	14
378.663	1	25
379.005	1	11
379.347	1	11
379.688	1	19
380.030	1	27
380.372	1	16
380.714	1	20
381.055	1	5
381.397	1	8
381.739	1	9
382.080	1	12
382.422	1	15
382.764	1	8
383.105	1	6
383.447	1	8
383.789	1	5
384.130	1	9
384.472	1	4
384.814	1	11
385.156	1	14
385.497	1	18
385.839	1	10
386.180	1	7
386.522	1	9
386.864	1	8
387.205	1	14
387.547	1	9
387.889	1	7
388.230	1	7
388.572	1	4
388.914	1	15
389.255	1	12
389.597	1	7
389.939	1	13
390.280	1	4
390.622	1	3
390.963	1	-2
391.305	1	4
391.647	1	3
391.988	1	10
392.330	1	7
392.671	1	6
393.013	1	13
393.355	1	14
393.696	1	5
394.038	1	7
394.379	1	8
394.721	1	11
395.062	1	3
395.404	1	4
395.746	1	3
396.087	1	12
396.429	1	12
396.770	1	0
397.112	1	0
397.453	1	1
397.795	1	1
398.136	1	10
398.478	1	2
398.819	1	0
399.161	1	14
399.503	1	13
399.844	1	-5
400.186	1	14
400.527	1	9
400.869	1	14
401.210	1	14
401.552	1	5
401.893	1	-2
402.235	1	12
402.576	1	16
402.918	1	3
403.259	1	14
403.601	1	13
403.942	1	19
404.284	1	17
404.625	1	6
404.967	1	9
405.308	1	-5
405.649	1	4
405.991	1	12
406.332	1	8
406.674	1	2
407.015	1	6
407.357	1	7
407.698	1	13
408.040	1	15
408.381	1	3
408.722	1	8
409.064	1	7
409.405	1	13
409.747	1	5
410.088	1	18
410.430	1	20
410.771	1	13
411.112	1	9
411.454	1	2
411.795	1	15
412.137	1	3
412.478	1	5
412.819	1	7
413.161	1	1
413.502	1	8
413.844	1	22
414.185	1	8
414.526	1	7
414.868	1	7
415.209	1	6
415.550	1	10
415.892	1	13
416.233	1	10
416.575	1	-1
416.916	1	6
417.257	1	8
417.599	1	3
417.940	1	-10
418.281	1	12
418.623	1	3
418.964	1	20
419.305	1	11
419.647	1	12
419.988	1	32
420.329	1	9
420.671	1	18
421.012	1	13
421.353	1	20
421.695	1	21
422.036	1	11
422.377	1	11
422.718	1	12
423.060	1	17
423.401	1	3
423.742	1	15
424.084	1	15
424.425	1	16
424.766	1	8
425.107	1	8
425.449	1	10
425.790	1	9
426.131	1	6
426.472	1	21
426.814	1	7
427.155	1	5
427.496	1	5
427.837	1	3
428.179	1	14
428.520	1	7
428.861	1	5
429.202	1	9
429.544	1	13
429.885	1	15
430.226	1	-2
430.567	1	-4
430.909	1	-1
431.250	1	11
431.591	1	3
431.932	1	6
432.273	1	10
432.615	1	-5
432.956	1	11
433.297	1	8
433.638	1	10
433.979	1	11
434.320	1	9
434.662	1	13
435.003	1	13
435.344	1	-7
435.685	1	2
436.026	1	5
436.368	1	7
436.709	1	2
437.050	1	6
437.391	1	0
437.732	1	10
438.073	1	1
438.414	1	20
438.756	1	9
439.097	1	4
439.438	1	2
439.779	1	9
440.120	1	1
440.461	1	5
440.802	1	8
441.143	1	14
441.485	1	0
441.826	1	12
442.167	1	12
442.508	1	12
442.849	1	4
443.190	1	12
443.531	1	9
443.872	1	3
444.213	1	-4
444.554	1	3
444.895	1	-2
445.237	1	12
445.578	1	-2
445.919	1	3
446.260	1	13
446.601	1	5
446.942	1	6
447.283	1	11
447.624	1	-4
447.965	1	15
448.306	1	9
448.647	1	10
448.988	1	7
449.329	1	12
449.670	1	6
450.011	1	12
450.352	1	6
450.693	1	10
451.034	1	8
451.375	1	3
451.716	1	4
452.057	1	2
452.398	1	9
452.739	1	8
453.080	1	7
453.421	1	11
453.762	1	10
454.103	1	-1
454.444	1	6
454.785	1	10
455.126	1	6
455.467	1	13
455.808	1	-2
456.149	1	-8
456.490	1	14
456.831	1	1
457.172	1	1
457.513	1	5
457.854	1	6
458.195	1	8
458.536	1	12
458.877	1	8
459.218	1	7
459.559	1	5
459.899	1	2
460.240	1	-14
460.581	1	4
460.922	1	1
461.263	1	16
461.604	1	7
461.945	1	6
462.286	1	8
462.627	1	7
462.968	1	12
463.309	1	11
463.649	1	-6
463.990	1	12
464.331	1	12
464.672	1	7
465.013	1	14
465.354	1	12
465.695	1	10
466.036	1	12
466.376	1	12
466.717	1	0
467.058	1	4
467.399	1	-2
467.740	1	10
468.081	1	12
468.422	1	4
468.762	1	8
469.103	1	-1
469.444	1	9
469.785	1	-2
470.126	1	10
470.467	1	4
470.807	1	1
471.148	1	3
471.489	1	12
471.830	1	7
472.171	1	12
472.511	1	10
472.852	1	14
473.193	1	10
473.534	1	7
473.875	1	5
474.215	1	6
474.556	1	-4
474.897	1	-5
475.238	1	9
475.578	1	5
475.919	1	3
476.260	1	4
476.601	1	2
476.942	1	1
477.282	1	1
477.623	1	-2
477.964	1	9
478.305	1	8
478.645	1	2
478.986	1	3
479.327	1	5
479.667	1	1
480.008	1	13
480.349	1	-5
480.690	1	5
481.030	1	2
481.371	1	-3
481.712	1	13
482.053	1	17
482.393	1	6
482.734	1	3
483.075	1	5
483.415	1	9
483.756	1	12
484.097	1	15
484.437	1	9
484.778	1	-2
485.119	1	3
485.459	1	-1
485.800	1	7
486.141	1	10
486.481	1	-9
486.822	1	13
487.163	1	0
487.503	1	4
487.844	1	-5
488.185	1	5
488.525	1	-1
488.866	1	-1
489.207	1	10
489.547	1	1
489.888	1	9
490.228	1	2
490.569	1	0
490.910	1	6
491.250	1	7
491.591	1	3
491.932	1	10
492.272	1	-7
492.613	1	11
492.953	1	-2
493.294	1	-10
493.635	1	7
493.975	1	17
494.316	1	10
494.656	1	16
494.997	1	-6
495.337	1	10
495.678	1	4
496.019	1	4
496.359	1	-1
496.700	1	2
497.040	1	-2
497.381	1	4
497.721	1	-8
498.062	1	-8
498.403	1	6
498.743	1	7
499.084	1	8
499.424	1	4
499.765	1	10
500.105	1	8
500.446	1	2
500.786	1	8
501.127	1	6
501.467	1	13
501.808	1	4
502.148	1	-2
502.489	1	0
502.829	1	5
503.170	1	11
503.510	1	6
503.851	1	7
504.191	1	6
504.532	1	17
504.872	1	4
505.213	1	2
505.553	1	0
505.894	1	9
506.234	1	14
506.575	1	15
506.915	1	13
507.256	1	11
507.596	1	23
507.936	1	9
508.277	1	10
508.617	1	10
508.958	1	9
509.298	1	3
509.639	1	6
509.979	1	7
510.319	1	17
510.660	1	8
511.000	1	2
511.341	1	15
511.681	1	5
512.022	1	-2
512.362	1	12
512.702	1	8
513.043	1	13
513.383	1	7
513.724	1	19
514.064	1	15
514.404	1	19
514.745	1	-3
515.085	1	14
515.425	1	7
515.766	1	12
516.106	1	1
516.447	1	16
516.787	1	10
517.127	1	12
517.468	1	23
517.808	1	8
518.148	1	16
518.489	1	4
518.829	1	19
519.169	1	5
519.510	1	-2
519.850	1	23
520.190	1	3
520.531	1	10
520.871	1	12
521.211	1	7
521.552	1	17
521.892	1	20
522.232	1	11
522.573	1	7
522.913	1	20
523.253	1	17
523.593	1	12
523.934	1	14
524.274	1	6
524.614	1	19
524.955	1	3
525.295	1	14
525.635	1	11
525.975	1	8
526.316	1	8
526.656	1	6
526.996	1	9
527.337	1	10
527.677	1	14
528.017	1	4
528.357	1	18
528.698	1	16
529.038	1	4
529.378	1	7
529.718	1	5
530.058	1	13
530.399	1	14
530.739	1	19
531.079	1	0
531.419	1	7
531.760	1	16
532.100	1	16
532.440	1	15
532.780	1	14
533.120	1	14
533.461	1	10
533.801	1	7
534.141	1	15
534.481	1	19
534.821	1	3
535.162	1	8
535.502	1	10
535.842	1	5
536.182	1	9
536.522	1	6
536.862	1	2
537.203	1	6
537.543	1	16
537.883	1	12
538.223	1	25
538.563	1	12
538.903	1	4
539.243	1	5
539.584	1	6
539.924	1	8
540.264	1	12
540.604	1	15
540.944	1	10
541.284	1	11
541.624	1	12
541.964	1	17
542.305	1	20
542.645	1	6
542.985	1	11
543.325	1	18
543.665	1	8
544.005	1	10
544.345	1	21
544.685	1	4
545.025	1	14
545.365	1	8
545.705	1	3
546.045	1	13
546.386	1	11
546.726	1	5
547.066	1	7
547.406	1	10
547.746	1	0
548.086	1	14
548.426	1	11
548.766	1	9
549.106	1	4
549.446	1	16
549.786	1	11
550.126	1	12
550.466	1	7
550.806	1	17
551.146	1	5
551.486	1	6
551.826	1	-3
552.166	1	3
552.506	1	11
552.846	1	10
553.186	1	8
553.526	1	11
553.866	1	-1
554.206	1	11
554.546	1	17
554.886	1	10
555.226	1	11
555.566	1	5
555.906	1	-1
556.246	1	9
556.586	1	-1
556.926	1	8
557.266	1	17
557.606	1	0
557.946	1	14
558.286	1	-3
558.626	1	4
558.966	1	8
559.306	1	15
559.646	1	5
559.986	1	10
560.325	1	16
560.665	1	10
561.005	1	3
561.345	1	-3
561.685	1	7
562.025	1	4
562.365	1	12
562.705	1	14
563.045	1	2
563.385	1	4
563.725	1	4
564.064	1	7
564.404	1	2
564.744	1	7
565.084	1	13
565.424	1	-2
565.764	1	8
566.104	1	17
566.444	1	10
566.783	1	11
567.123	1	-3
567.463	1	6
567.803	1	18
568.143	1	8
568.483	1	13
568.823	1	2
569.162	1	-5
569.502	1	11
569.842	1	9
570.182	1	13
570.522	1	-3
570.862	1	-8
571.201	1	13
571.541	1	15
571.881	1	-8
572.221	1	6
572.561	1	13
572.900	1	10
573.240	1	8
573.580	1	11
573.920	1	21
574.260	1	8
574.599	1	7
574.939	1	2
575.279	1	6
575.619	1	4
575.959	1	8
576.298	1	-1
576.638	1	18
576.978	1	8
577.318	1	5
577.657	1	5
577.997	1	13
578.337	1	6
578.677	1	-4
579.016	1	4
579.356	1	9
579.696	1	0
580.036	1	4
580.375	1	7
580.715	1	10
581.055	1	12
581.394	1	-2
581.734	1	5
582.074	1	4
582.414	1	3
582.753	1	0
583.093	1	6
583.433	1	14
583.772	1	8
584.112	1	9
584.452	1	12
584.791	1	10
585.131	1	12
585.471	1	4
585.811	1	16
586.150	1	3
586.490	1	1
586.830	1	7
587.169	1	3
587.509	1	4
587.849	1	10
588.188	1	7
588.528	1	2
588.867	1	9
589.207	1	9
589.547	1	10
589.886	1	1
590.226	1	-1
590.566	1	2
590.905	1	4
591.245	1	-5
591.585	1	-6
591.924	1	2
592.264	1	-1
592.603	1	-7
592.943	1	4
593.283	1	6
593.622	1	-1
593.962	1	6
594.301	1	5
594.641	1	10
594.981	1	-3
595.320	1	6
595.660	1	3
595.999	1	-3
596.339	1	10
596.678	1	-4
597.018	1	3
597.358	1	9
597.697	1	-5
598.037	1	0
598.376	1	1
598.716	1	4
599.055	1	10
599.395	1	8
599.734	1	4
600.074	1	-4
600.413	1	4
600.753	1	13
601.092	1	0
601.432	1	0
601.771	1	11
602.111	1	7
602.451	1	1
602.790	1	-2
603.130	1	7
603.469	1	6
603.809	1	5
604.148	1	-7
604.487	1	-2
604.827	1	11
605.166	1	10
605.506	1	0
605.845	1	7
606.185	1	11
606.524	1	-1
606.864	1	5
607.203	1	9
607.543	1	6
607.882	1	7
608.222	1	5
608.561	1	3
608.901	1	7
609.240	1	5
609.579	1	5
609.919	1	-14
610.258	1	9
610.598	1	-4
610.937	1	2
611.277	1	8
611.616	1	17
611.955	1	0
612.295	1	12
612.634	1	2
612.974	1	-2
613.313	1	9
613.652	1	7
613.992	1	9
614.331	1	10
614.671	1	0
615.010	1	9
615.349	1	0
615.689	1	4
616.028	1	15
616.368	1	11
616.707	1	5
617.046	1	4
617.386	1	8
617.725	1	5
618.064	1	1
618.404	1	1
618.743	1	1
619.082	1	16
619.422	1	9
619.761	1	0
620.100	1	13
620.440	1	2
620.779	1	8
621.118	1	9
621.458	1	-2
621.797	1	1
622.136	1	2
622.476	1	0
622.815	1	13
623.154	1	-12
623.494	1	-8
623.833	1	-1
624.172	1	6
624.511	1	0
624.851	1	3
625.190	1	1
625.529	1	2
625.869	1	17
626.208	1	3
626.547	1	-1
626.886	1	8
627.226	1	6
627.565	1	5
627.904	1	2
628.243	1	12
628.583	1	0
628.922	1	2
629.261	1	5
629.600	1	3
629.940	1	10
630.279	1	11
630.618	1	10
630.957	1	7
631.297	1	7
631.636	1	11
631.975	1	4
632.314	1	-3
632.653	1	4
632.993	1	5
633.332	1	6
633.671	1	9
634.010	1	-7
634.349	1	19
634.689	1	2
635.028	1	9
635.367	1	-1
635.706	1	6
636.045	1	-3
636.384	1	13
636.724	1	11
637.063	1	7
637.402	1	2
637.741	1	1
638.080	1	-3
638.419	1	-1
638.759	1	13
639.098	1	1
639.437	1	-4
639.776	1	5
640.115	1	3
640.454	1	3
640.793	1	2
641.132	1	12
641.472	1	11
641.811	1	8
642.150	1	-4
642.489	1	9
642.828	1	18
643.167	1	11
643.506	1	-2
643.845	1	12
644.184	1	12
644.524	1	2
644.863	1	4
645.202	1	-3
645.541	1	8
645.880	1	10
646.219	1	2
646.558	1	-10
646.897	1	-8
647.236	1	-1
647.575	1	8
647.914	1	12
648.253	1	11
648.592	1	7
648.931	1	10
649.270	1	18
649.610	1	9
649.949	1	-15
650.288	1	3
650.627	1	-3
650.966	1	3
651.305	1	-1
651.644	1	7
651.983	1	-4
652.322	1	0
652.661	1	5
653.000	1	10
653.339	1	4
653.678	1	5
654.017	1	7
654.356	1	8
654.695	1	22
655.034	1	1
655.373	1	6
655.712	1	11
656.051	1	7
656.390	1	7
656.729	1	3
657.068	1	-1
657.406	1	1
657.745	1	8
658.084	1	7
658.423	1	8
658.762	1	0
659.101	1	1
659.440	1	10
659.779	1	8
660.118	1	2
660.457	1	2
660.796	1	2
661.135	1	12
661.474	1	9
661.813	1	1
662.152	1	-3
662.491	1	-6
662.829	1	4
663.168	1	4
663.507	1	4
663.846	1	-4
664.185	1	1
664.524	1	9
664.863	1	-1
665.202	1	1
665.541	1	-5
665.879	1	4
666.218	1	5
666.557	1	3
666.896	1	5
667.235	1	4
667.574	1	1
667.913	1	8
668.251	1	-1
668.590	1	5
668.929	1	3
669.268	1	6
669.607	1	-10
669.946	1	5
670.285	1	10
670.623	1	2
670.962	1	-2
671.301	1	4
671.640	1	7
671.979	1	6
672.317	1	13
672.656	1	5
672.995	1	5
673.334	1	-6
673.673	1	17
674.011	1	2
674.350	1	2
674.689	1	4
675.028	1	5
675.367	1	6
675.705	1	-3
676.044	1	2
676.383	1	12
676.722	1	0
677.060	1	4
677.399	1	14
677.738	1	-2
678.077	1	1
678.416	1	1
678.754	1	2
679.093	1	16
679.432	1	-5
679.771	1	0
680.109	1	9
680.448	1	-10
680.787	1	-8
681.125	1	-4
681.464	1	12
681.803	1	-8
682.142	1	13
682.480	1	-4
682.819	1	0
683.158	1	-2
683.496	1	4
683.835	1	8
684.174	1	7
684.512	1	-4
684.851	1	-3
685.190	1	2
685.529	1	-5
685.867	1	-4
686.206	1	-9
686.545	1	1
686.883	1	20
687.222	1	-2
687.561	1	2
687.899	1	6
688.238	1	14
688.577	1	4
688.746	1	1