File: Analysis/GaN_68K_200ms/GaN_sample E_spot4_UVVIS_68 K_200um_200 ms 2x2mm1_96.txt
340.368	1	-4
340.710	1	-6
341.052	1	6
341.394	1	-1
341.737	1	5
342.079	1	1
342.421	1	1
342.763	1	-3
343.105	1	19
343.447	1	-1
343.789	1	-4
344.131	1	2
344.473	1	3
344.815	1	4
345.157	1	18
345.499	1	12
345.841	1	8
346.183	1	6
346.526	1	3
346.868	1	-3
347.210	1	12
347.552	1	2
347.894	1	3
348.236	1	5
348.578	1	4
348.920	1	10
349.262	1	-8
349.604	1	8
349.946	1	12
350.288	1	6
350.630	1	-9
350.972	1	5
351.314	1	2
351.656	1	9
351.998	1	-12
352.340	1	3
352.682	1	-5
353.024	1	2
353.366	1	5
353.708	1	2
354.050	1	1
354.392	1	6
354.734	1	10
355.076	1	2
355.418	1	-9
355.760	1	2
356.102	1	-1
356.444	1	2
356.785	1	10
357.127	1	2
357.469	1	-6
357.811	1	10
358.153	1	2
358.495	1	7
358.837	1	1
359.179	1	2
359.521	1	-4
359.863	1	4
360.205	1	6
360.547	1	-2
360.889	1	13
361.231	1	6
361.572	1	-6
361.914	1	2
362.256	1	12
362.598	1	0
362.940	1	1
363.282	1	14
363.624	1	2
363.966	1	1
364.308	1	-7
364.649	1	5
364.991	1	6
365.333	1	12
365.675	1	-1
366.017	1	7
366.359	1	-1
366.701	1	1
367.042	1	2
367.384	1	3
367.726	1	5
368.068	1	-6
368.410	1	2
368.752	1	-10
369.093	1	1
369.435	1	0
369.777	1	2
370.119	1	8
370.461	1	0
370.803	1	-4
371.144	1	15
371.486	1	2
371.828	1	4
372.170	1	8
372.512	1	-14
372.853	1	0
373.195	1	-6
373.537	1	3
373.879	1	8
374.220	1	3
374.562	1	-6
374.904	1	4
375.246	1	1
375.588	1	8
375.929	1	2
376.271	1	-6
376.613	1	6
376.955	1	-5
377.296	1	9
377.638	1	8
377.980	1	4
378.321	1	5
378.663	1	-1
379.005	1	11
379.347	1	9
379.688	1	5
380.030	1	-2
380.372	1	-8
380.714	1	1
381.055	1	5
381.397	1	4
381.739	1	6
382.080	1	-16
382.422	1	5
382.764	1	-7
383.105	1	1
383.447	1	3
383.789	1	-2
384.130	1	-11
384.472	1	-4
384.814	1	0
385.156	1	7
385.497	1	2
385.839	1	0
386.180	1	-6
386.522	1	4
386.864	1	-4
387.205	1	3
387.547	1	-7
387.889	1	17
388.230	1	-7
388.572	1	-12
388.914	1	8
389.255	1	0
389.597	1	-3
389.939	1	13
390.280	1	14
390.622	1	-3
390.963	1	3
391.305	1	0
391.647	1	-2
391.988	1	0
392.330	1	11
392.671	1	1
393.013	1	10
393.355	1	17
393.696	1	2
394.038	1	-11
394.379	1	0
394.721	1	-1
395.062	1	-5
395.404	1	-2
395.746	1	-5
396.087	1	0
396.429	1	4
396.770	1	13
397.112	1	-7
397.453	1	-16
397.795	1	3
398.136	1	-2
398.478	1	3
398.819	1	4
399.161	1	-4
399.503	1	-2
399.844	1	1
400.186	1	11
400.527	1	5
400.869	1	5
401.210	1	-3
401.552	1	13
401.893	1	4
402.235	1	10
402.576	1	8
402.918	1	-7
403.259	1	-10
403.601	1	2
403.942	1	8
404.284	1	4
404.625	1	6
404.967	1	1
405.308	1	-9
405.649	1	-7
405.991	1	1
406.332	1	-7
406.674	1	-3
407.015	1	-11
407.357	1	0
407.698	1	-4
408.040	1	-1
408.381	1	10
408.722	1	1
409.064	1	-5
409.405	1	10
409.747	1	6
410.088	1	0
410.430	1	6
410.771	1	3
411.112	1	10
411.454	1	8
411.795	1	10
412.137	1	6
412.478	1	-4
412.819	1	-11
413.161	1	0
413.502	1	3
413.844	1	1
414.185	1	0
414.526	1	6
414.868	1	13
415.209	1	-1
415.550	1	-10
415.892	1	-8
416.233	1	-6
416.575	1	-2
416.916	1	5
417.257	1	4
417.599	1	14
417.940	1	2
418.281	1	1
418.623	1	-6
418.964	1	5
419.305	1	6
419.647	1	4
419.988	1	3
420.329	1	10
420.671	1	6
421.012	1	6
421.353	1	13
421.695	1	3
422.036	1	0
422.377	1	1
422.718	1	-3
423.060	1	5
423.401	1	-2
423.742	1	1
424.084	1	7
424.425	1	-9
424.766	1	8
425.107	1	4
425.449	1	7
425.790	1	4
426.131	1	-1
426.472	1	-4
426.814	1	10
427.155	1	1
427.496	1	8
427.837	1	0
428.179	1	-4
428.520	1	-7
428.861	1	7
429.202	1	3
429.544	1	3
429.885	1	4
430.226	1	1
430.567	1	17
430.909	1	-8
431.250	1	-12
431.591	1	0
431.932	1	1
432.273	1	-3
432.615	1	9
432.956	1	-3
433.297	1	3
433.638	1	-4
433.979	1	7
434.320	1	6
434.662	1	-1
435.003	1	8
435.344	1	1
435.685	1	11
436.026	1	0
436.368	1	-3
436.709	1	-7
437.050	1	1
437.391	1	8
437.732	1	-2
438.073	1	7
438.414	1	0
438.756	1	6
439.097	1	-2
439.438	1	6
439.779	1	4
440.120	1	-3
440.461	1	-5
440.802	1	1
441.143	1	10
441.485	1	0
441.826	1	-10
442.167	1	8
442.508	1	2
442.849	1	7
443.190	1	-8
443.531	1	-5
443.872	1	3
444.213	1	-1
444.554	1	-6
444.895	1	-9
445.237	1	0
445.578	1	11
445.919	1	-3
446.260	1	5
446.601	1	-1
446.942	1	-1
447.283	1	10
447.624	1	12
447.965	1	-8
448.306	1	1
448.647	1	7
448.988	1	-13
449.329	1	2
449.670	1	4
450.011	1	1
450.352	1	11
450.693	1	11
451.034	1	8
451.375	1	5
451.716	1	10
452.057	1	9
452.398	1	9
452.739	1	5
453.080	1	12
453.421	1	4
453.762	1	5
454.103	1	0
454.444	1	7
454.785	1	-6
455.126	1	0
455.467	1	4
455.808	1	10
456.149	1	-1
456.490	1	-2
456.831	1	8
457.172	1	5
457.513	1	4
457.854	1	0
458.195	1	0
458.536	1	5
458.877	1	8
459.218	1	-3
459.559	1	5
459.899	1	11
460.240	1	1
460.581	1	5
460.922	1	5
461.263	1	15
461.604	1	-1
461.945	1	14
462.286	1	10
462.627	1	3
462.968	1	-4
463.309	1	-4
463.649	1	6
463.990	1	-3
464.331	1	6
464.672	1	1
465.013	1	-6
465.354	1	4
465.695	1	10
466.036	1	18
466.376	1	0
466.717	1	0
467.058	1	15
467.399	1	7
467.740	1	2
468.081	1	6
468.422	1	6
468.762	1	-7
469.103	1	-1
469.444	1	0
469.785	1	5
470.126	1	2
470.467	1	-2
470.807	1	-2
471.148	1	1
471.489	1	-2
471.830	1	19
472.171	1	5
472.511	1	11
472.852	1	1
473.193	1	-6
473.534	1	3
473.875	1	7
474.215	1	1
474.556	1	-5
474.897	1	-3
475.238	1	4
475.578	1	4
475.919	1	3
476.260	1	-5
476.601	1	0
476.942	1	-4
477.282	1	-9
477.623	1	9
477.964	1	13
478.305	1	3
478.645	1	4
478.986	1	15
479.327	1	-10
479.667	1	4
480.008	1	8
480.349	1	7
480.690	1	-4
481.030	1	4
481.371	1	-1
481.712	1	6
482.053	1	9
482.393	1	-8
482.734	1	-10
483.075	1	3
483.415	1	9
483.756	1	6
484.097	1	-7
484.437	1	-10
484.778	1	3
485.119	1	6
485.459	1	0
485.800	1	-6
486.141	1	-11
486.481	1	9
486.822	1	-1
487.163	1	-3
487.503	1	-2
487.844	1	2
488.185	1	-8
488.525	1	-5
488.866	1	15
489.207	1	12
489.547	1	0
489.888	1	5
490.228	1	0
490.569	1	4
490.910	1	-8
491.250	1	7
491.591	1	3
491.932	1	12
492.272	1	4
492.613	1	6
492.953	1	-2
493.294	1	12
493.635	1	0
493.975	1	-1
494.316	1	1
494.656	1	-3
494.997	1	1
495.337	1	0
495.678	1	10
496.019	1	-2
496.359	1	10
496.700	1	-4
497.040	1	4
497.381	1	-8
497.721	1	-2
498.062	1	2
498.403	1	11
498.743	1	-1
499.084	1	-5
499.424	1	10
499.765	1	7
500.105	1	3
500.446	1	0
500.786	1	4
501.127	1	6
501.467	1	13
501.808	1	-11
502.148	1	4
502.489	1	2
502.829	1	2
503.170	1	9
503.510	1	-6
503.851	1	-9
504.191	1	-4
504.532	1	-6
504.872	1	-3
505.213	1	-2
505.553	1	-4
505.894	1	-1
506.234	1	3
506.575	1	-3
506.915	1	-1
507.256	1	-12
507.596	1	5
507.936	1	1
508.277	1	8
508.617	1	9
508.958	1	7
509.298	1	12
509.639	1	8
509.979	1	-5
510.319	1	-3
510.660	1	15
511.000	1	13
511.341	1	-9
511.681	1	0
512.022	1	-6
512.362	1	1
512.702	1	-9
513.043	1	-5
513.383	1	-7
513.724	1	20
514.064	1	4
514.404	1	-7
514.745	1	-10
515.085	1	0
515.425	1	-3
515.766	1	-1
516.106	1	-6
516.447	1	7
516.787	1	-11
517.127	1	3
517.468	1	1
517.808	1	6
518.148	1	-5
518.489	1	1
518.829	1	-6
519.169	1	10
519.510	1	5
519.850	1	-1
520.190	1	-2
520.531	1	7
520.871	1	-10
521.211	1	1
521.552	1	5
521.892	1	-11
522.232	1	-11
522.573	1	-2
522.913	1	1
523.253	1	-2
523.593	1	-18
523.934	1	-4
524.274	1	-9
524.614	1	-2
524.955	1	0
525.295	1	-9
525.635	1	16
525.975	1	-5
526.316	1	2
526.656	1	17
526.996	1	16
527.337	1	-4
527.677	1	19
528.017	1	-1
528.357	1	9
528.698	1	0
529.038	1	5
529.378	1	4
529.718	1	-1
530.058	1	2
530.399	1	9
530.739	1	-1
531.079	1	11
531.419	1	3
531.760	1	12
532.100	1	-3
532.440	1	5
532.780	1	5
533.120	1	-1
533.461	1	12
533.801	1	4
534.141	1	11
534.481	1	-2
534.821	1	-4
535.162	1	2
535.502	1	4
535.842	1	9
536.182	1	-5
536.522	1	9
536.862	1	3
537.203	1	3
537.543	1	11
537.883	1	6
538.223	1	2
538.563	1	2
538.903	1	2
539.243	1	0
539.584	1	2
539.924	1	3
540.264	1	11
540.604	1	6
540.944	1	5
541.284	1	-4
541.624	1	5
541.964	1	-3
542.305	1	-2
542.645	1	3
542.985	1	-6
543.325	1	2
543.665	1	11
544.005	1	-2
544.345	1	-8
544.685	1	0
545.025	1	-9
545.365	1	3
545.705	1	3
546.045	1	6
546.386	1	1
546.726	1	-4
547.066	1	-10
547.406	1	4
547.746	1	11
548.086	1	2
548.426	1	-2
548.766	1	-4
549.106	1	4
549.446	1	3
549.786	1	6
550.126	1	-2
550.466	1	-4
550.806	1	2
551.146	1	-4
551.486	1	2
551.826	1	15
552.166	1	-9
552.506	1	-1
552.846	1	0
553.186	1	-1
553.526	1	3
553.866	1	7
554.206	1	1
554.546	1	-5
554.886	1	-3
555.226	1	-9
555.566	1	7
555.906	1	6
556.246	1	1
556.586	1	6
556.926	1	4
557.266	1	10
557.606	1	-1
557.946	1	2
558.286	1	7
558.626	1	0
558.966	1	1
559.306	1	-3
559.646	1	1
559.986	1	-5
560.325	1	-6
560.665	1	1
561.005	1	4
561.345	1	4
561.685	1	-6
562.025	1	-1
562.365	1	8
562.705	1	7
563.045	1	6
563.385	1	-6
563.725	1	-5
564.064	1	14
564.404	1	-5
564.744	1	2
565.084	1	-14
565.424	1	8
565.764	1	3
566.104	1	3
566.444	1	5
566.783	1	-1
567.123	1	9
567.463	1	-6
567.803	1	-15
568.143	1	-12
568.483	1	4
568.823	1	9
569.162	1	-2
569.502	1	4
569.842	1	-4
570.182	1	5
570.522	1	13
570.862	1	-1
571.201	1	0
571.541	1	-4
571.881	1	6
572.221	1	3
572.561	1	-6
572.900	1	4
573.240	1	0
573.580	1	3
573.920	1	-1
574.260	1	-6
574.599	1	-2
574.939	1	0
575.279	1	2
575.619	1	9
575.959	1	-1
576.298	1	-4
576.638	1	-2
576.978	1	5
577.318	1	9
577.657	1	-14
577.997	1	0
578.337	1	-1
578.677	1	10
579.016	1	10
579.356	1	-2
579.696	1	2
580.036	1	0
580.375	1	0
580.715	1	5
581.055	1	3
581.394	1	2
581.734	1	11
582.074	1	-4
582.414	1	7
582.753	1	5
583.093	1	7
583.433	1	-9
583.772	1	5
584.112	1	4
584.452	1	8
584.791	1	-4
585.131	1	-3
585.471	1	6
585.811	1	8
586.150	1	1
586.490	1	-4
586.830	1	-6
587.169	1	-2
587.509	1	3
587.849	1	5
588.188	1	-2
588.528	1	11
588.867	1	7
589.207	1	-12
589.547	1	-3
589.886	1	-8
590.226	1	5
590.566	1	-3
590.905	1	9
591.245	1	4
591.585	1	0
591.924	1	4
592.264	1	-1
592.603	1	-4
592.943	1	-15
593.283	1	6
593.622	1	-3
593.962	1	4
594.301	1	14
594.641	1	-1
594.981	1	-1
595.320	1	10
595.660	1	-3
595.999	1	4
596.339	1	9
596.678	1	7
597.018	1	-2
597.358	1	13
597.697	1	-3
598.037	1	-1
598.376	1	1
598.716	1	-2
599.055	1	-3
599.395	1	11
599.734	1	5
600.074	1	-9
600.413	1	2
600.753	1	13
601.092	1	-15
601.432	1	1
601.771	1	11
602.111	1	0
602.451	1	-3
602.790	1	4
603.130	1	14
603.469	1	6
603.809	1	2
604.148	1	3
604.487	1	7
604.827	1	-12
605.166	1	-5
605.506	1	12
605.845	1	6
606.185	1	-5
606.524	1	6
606.864	1	-7
607.203	1	16
607.543	1	-9
607.882	1	-4
608.222	1	4
608.561	1	5
608.901	1	-3
609.240	1	0
609.579	1	6
609.919	1	-3
610.258	1	1
610.598	1	1
610.937	1	-4
611.277	1	5
611.616	1	1
611.955	1	2
612.295	1	5
612.634	1	-5
612.974	1	6
613.313	1	0
613.652	1	-6
613.992	1	-3
614.331	1	3
614.671	1	8
615.010	1	4
615.349	1	1
615.689	1	5
616.028	1	-1
616.368	1	7
616.707	1	-8
617.046	1	-2
617.386	1	0
617.725	1	3
618.064	1	10
618.404	1	13
618.743	1	3
619.082	1	-6
619.422	1	5
619.761	1	5
620.100	1	9
620.440	1	5
620.779	1	-4
621.118	1	8
621.458	1	-12
621.797	1	-5
622.136	1	3
622.476	1	-2
622.815	1	5
623.154	1	2
623.494	1	-4
623.833	1	8
624.172	1	8
624.511	1	-4
624.851	1	-9
625.190	1	10
625.529	1	9
625.869	1	7
626.208	1	-6
626.547	1	5
626.886	1	-2
627.226	1	11
627.565	1	10
627.904	1	-6
628.243	1	-1
628.583	1	-3
628.922	1	2
629.261	1	7
629.600	1	15
629.940	1	7
630.279	1	1
630.618	1	2
630.957	1	1
631.297	1	-9
631.636	1	6
631.975	1	5
632.314	1	21
632.653	1	-2
632.993	1	3
633.332	1	5
633.671	1	1
634.010	1	2
634.349	1	10
634.689	1	2
635.028	1	-1
635.367	1	-1
635.706	1	-8
636.045	1	-1
636.384	1	8
636.724	1	-1
637.063	1	7
637.402	1	-2
637.741	1	11
638.080	1	-1
638.419	1	8
638.759	1	-1
639.098	1	-4
639.437	1	2
639.776	1	3
640.115	1	0
640.454	1	7
640.793	1	6
641.132	1	11
641.472	1	1
641.811	1	4
642.150	1	0
642.489	1	0
642.828	1	5
643.167	1	17
643.506	1	-2
643.845	1	9
644.184	1	10
644.524	1	-5
644.863	1	-5
645.202	1	0
645.541	1	-12
645.880	1	2
646.219	1	-2
646.558	1	5
646.897	1	5
647.236	1	-4
647.575	1	10
647.914	1	-6
648.253	1	11
648.592	1	5
648.931	1	11
649.270	1	15
649.610	1	15
649.949	1	-1
650.288	1	-6
650.627	1	-1
650.966	1	-3
651.305	1	-6
651.644	1	2
651.983	1	3
652.322	1	5
652.661	1	0
653.000	1	-3
653.339	1	7
653.678	1	6
654.017	1	-3
654.356	1	5
654.695	1	1
655.034	1	4
655.373	1	2
655.712	1	-4
656.051	1	9
656.390	1	0
656.729	1	12
657.068	1	-1
657.406	1	5
657.745	1	-6
658.084	1	7
658.423	1	-6
658.762	1	-9
659.101	1	1
659.440	1	6
659.779	1	-5
660.118	1	6
660.457	1	-5
660.796	1	-6
661.135	1	9
661.474	1	-3
661.813	1	2
662.152	1	-2
662.491	1	-3
662.829	1	-4
663.168	1	1
663.507	1	5
663.846	1	8
664.185	1	1
664.524	1	-9
664.863	1	1
665.202	1	-17
665.541	1	-7
665.879	1	2
666.218	1	-7
666.557	1	-1
666.896	1	-4
667.235	1	5
667.574	1	5
667.913	1	4
668.251	1	-4
668.590	1	-10
668.929	1	0
669.268	1	6
669.607	1	-3
669.946	1	12
670.285	1	5
670.623	1	3
670.962	1	-3
671.301	1	0
671.640	1	-18
671.979	1	15
672.317	1	-1
672.656	1	-3
672.995	1	3
673.334	1	4
673.673	1	18
674.011	1	10
674.350	1	2
674.689	1	0
675.028	1	4
675.367	1	10
675.705	1	-14
676.044	1	-1
676.383	1	-2
676.722	1	4
677.060	1	4
677.399	1	-4
677.738	1	7
678.077	1	7
678.416	1	-8
678.754	1	8
679.093	1	12
679.432	1	3
679.771	1	0
680.109	1	6
680.448	1	9
680.787	1	2
681.125	1	1
681.464	1	-1
681.803	1	-5
682.142	1	16
682.480	1	0
682.819	1	12
683.158	1	2
683.496	1	-6
683.835	1	8
684.174	1	7
684.512	1	5
684.851	1	-4
685.190	1	-1
685.529	1	3
685.867	1	7
686.206	1	-9
686.545	1	4
686.883	1	8
687.222	1	-4
687.561	1	7
687.899	1	0
688.238	1	7
688.577	1	-1
688.746	1	-4