File: Analysis/GaN_68K_200ms/GaN_sample E_spot4_UVVIS_68 K_200um_200 ms 2x2mm1_387.txt
340.368	1	-4
340.710	1	-10
341.052	1	9
341.394	1	0
341.737	1	6
342.079	1	-7
342.421	1	3
342.763	1	2
343.105	1	10
343.447	1	8
343.789	1	-2
344.131	1	-5
344.473	1	1
344.815	1	6
345.157	1	7
345.499	1	-1
345.841	1	1
346.183	1	1
346.526	1	5
346.868	1	2
347.210	1	-3
347.552	1	2
347.894	1	-2
348.236	1	-6
348.578	1	3
348.920	1	12
349.262	1	-5
349.604	1	13
349.946	1	11
350.288	1	11
350.630	1	-10
350.972	1	4
351.314	1	7
351.656	1	8
351.998	1	-4
352.340	1	2
352.682	1	-6
353.024	1	0
353.366	1	10
353.708	1	2
354.050	1	8
354.392	1	6
354.734	1	4
355.076	1	2
355.418	1	-4
355.760	1	5
356.102	1	-6
356.444	1	9
356.785	1	11
357.127	1	6
357.469	1	-5
357.811	1	5
358.153	1	10
358.495	1	12
358.837	1	8
359.179	1	4
359.521	1	1
359.863	1	-5
360.205	1	6
360.547	1	-7
360.889	1	6
361.231	1	4
361.572	1	4
361.914	1	-2
362.256	1	8
362.598	1	9
362.940	1	8
363.282	1	6
363.624	1	5
363.966	1	0
364.308	1	1
364.649	1	-4
364.991	1	10
365.333	1	14
365.675	1	6
366.017	1	5
366.359	1	2
366.701	1	6
367.042	1	13
367.384	1	12
367.726	1	7
368.068	1	-2
368.410	1	-3
368.752	1	-3
369.093	1	3
369.435	1	2
369.777	1	-1
370.119	1	3
370.461	1	2
370.803	1	-1
371.144	1	13
371.486	1	10
371.828	1	7
372.170	1	-1
372.512	1	4
372.853	1	4
373.195	1	-10
373.537	1	7
373.879	1	6
374.220	1	5
374.562	1	-6
374.904	1	4
375.246	1	0
375.588	1	10
375.929	1	1
376.271	1	-2
376.613	1	-5
376.955	1	-7
377.296	1	4
377.638	1	2
377.980	1	9
378.321	1	9
378.663	1	-9
379.005	1	11
379.347	1	3
379.688	1	3
380.030	1	-4
380.372	1	13
380.714	1	5
381.055	1	3
381.397	1	-4
381.739	1	5
382.080	1	2
382.422	1	9
382.764	1	-2
383.105	1	-1
383.447	1	6
383.789	1	14
384.130	1	-6
384.472	1	7
384.814	1	6
385.156	1	20
385.497	1	10
385.839	1	12
386.180	1	4
386.522	1	15
386.864	1	0
387.205	1	-2
387.547	1	-7
387.889	1	14
388.230	1	6
388.572	1	4
388.914	1	4
389.255	1	8
389.597	1	8
389.939	1	4
390.280	1	13
390.622	1	0
390.963	1	8
391.305	1	6
391.647	1	2
391.988	1	9
392.330	1	9
392.671	1	10
393.013	1	15
393.355	1	14
393.696	1	6
394.038	1	3
394.379	1	-7
394.721	1	7
395.062	1	-5
395.404	1	7
395.746	1	-12
396.087	1	0
396.429	1	6
396.770	1	21
397.112	1	4
397.453	1	-8
397.795	1	13
398.136	1	17
398.478	1	8
398.819	1	14
399.161	1	3
399.503	1	7
399.844	1	-2
400.186	1	15
400.527	1	10
400.869	1	13
401.210	1	-8
401.552	1	12
401.893	1	3
402.235	1	13
402.576	1	19
402.918	1	-7
403.259	1	-4
403.601	1	4
403.942	1	8
404.284	1	5
404.625	1	3
404.967	1	5
405.308	1	0
405.649	1	9
405.991	1	12
406.332	1	1
406.674	1	2
407.015	1	1
407.357	1	4
407.698	1	-3
408.040	1	-11
408.381	1	1
408.722	1	1
409.064	1	-3
409.405	1	9
409.747	1	-1
410.088	1	8
410.430	1	-3
410.771	1	2
411.112	1	16
411.454	1	4
411.795	1	4
412.137	1	7
412.478	1	9
412.819	1	2
413.161	1	-4
413.502	1	1
413.844	1	1
414.185	1	5
414.526	1	5
414.868	1	4
415.209	1	-1
415.550	1	-4
415.892	1	7
416.233	1	10
416.575	1	-4
416.916	1	-3
417.257	1	2
417.599	1	10
417.940	1	-7
418.281	1	1
418.623	1	0
418.964	1	3
419.305	1	-2
419.647	1	10
419.988	1	-5
420.329	1	-1
420.671	1	8
421.012	1	10
421.353	1	7
421.695	1	0
422.036	1	1
422.377	1	1
422.718	1	-3
423.060	1	-3
423.401	1	6
423.742	1	-7
424.084	1	-4
424.425	1	-1
424.766	1	5
425.107	1	0
425.449	1	-3
425.790	1	2
426.131	1	-1
426.472	1	2
426.814	1	6
427.155	1	-7
427.496	1	9
427.837	1	-6
428.179	1	-3
428.520	1	-5
428.861	1	6
429.202	1	1
429.544	1	0
429.885	1	-1
430.226	1	-2
430.567	1	13
430.909	1	-8
431.250	1	-6
431.591	1	2
431.932	1	9
432.273	1	-6
432.615	1	5
432.956	1	-1
433.297	1	10
433.638	1	4
433.979	1	0
434.320	1	7
434.662	1	-10
435.003	1	9
435.344	1	9
435.685	1	11
436.026	1	5
436.368	1	-4
436.709	1	2
437.050	1	13
437.391	1	1
437.732	1	0
438.073	1	-2
438.414	1	3
438.756	1	4
439.097	1	10
439.438	1	3
439.779	1	-3
440.120	1	6
440.461	1	-4
440.802	1	-2
441.143	1	12
441.485	1	-5
441.826	1	-6
442.167	1	-2
442.508	1	3
442.849	1	3
443.190	1	-3
443.531	1	6
443.872	1	6
444.213	1	1
444.554	1	-14
444.895	1	3
445.237	1	-10
445.578	1	6
445.919	1	-4
446.260	1	5
446.601	1	-6
446.942	1	-8
447.283	1	4
447.624	1	9
447.965	1	-7
448.306	1	9
448.647	1	21
448.988	1	-6
449.329	1	-4
449.670	1	5
450.011	1	-5
450.352	1	13
450.693	1	6
451.034	1	7
451.375	1	5
451.716	1	4
452.057	1	6
452.398	1	4
452.739	1	0
453.080	1	8
453.421	1	0
453.762	1	1
454.103	1	1
454.444	1	7
454.785	1	-4
455.126	1	-5
455.467	1	0
455.808	1	1
456.149	1	-3
456.490	1	-2
456.831	1	13
457.172	1	3
457.513	1	8
457.854	1	3
458.195	1	0
458.536	1	8
458.877	1	-10
459.218	1	5
459.559	1	5
459.899	1	15
460.240	1	7
460.581	1	-1
460.922	1	-2
461.263	1	5
461.604	1	1
461.945	1	9
462.286	1	7
462.627	1	9
462.968	1	-9
463.309	1	0
463.649	1	1
463.990	1	6
464.331	1	11
464.672	1	-4
465.013	1	-8
465.354	1	6
465.695	1	7
466.036	1	0
466.376	1	-1
466.717	1	-2
467.058	1	8
467.399	1	6
467.740	1	0
468.081	1	5
468.422	1	1
468.762	1	-8
469.103	1	-13
469.444	1	-1
469.785	1	7
470.126	1	1
470.467	1	-4
470.807	1	10
471.148	1	-4
471.489	1	2
471.830	1	18
472.171	1	0
472.511	1	5
472.852	1	-5
473.193	1	-4
473.534	1	5
473.875	1	-5
474.215	1	-1
474.556	1	-11
474.897	1	-10
475.238	1	-1
475.578	1	-3
475.919	1	6
476.260	1	6
476.601	1	-6
476.942	1	7
477.282	1	-2
477.623	1	10
477.964	1	14
478.305	1	1
478.645	1	-9
478.986	1	0
479.327	1	-3
479.667	1	6
480.008	1	2
480.349	1	0
480.690	1	-5
481.030	1	-3
481.371	1	7
481.712	1	7
482.053	1	2
482.393	1	-4
482.734	1	5
483.075	1	2
483.415	1	13
483.756	1	10
484.097	1	1
484.437	1	-2
484.778	1	6
485.119	1	4
485.459	1	6
485.800	1	2
486.141	1	-7
486.481	1	0
486.822	1	7
487.163	1	1
487.503	1	-13
487.844	1	6
488.185	1	1
488.525	1	1
488.866	1	8
489.207	1	5
489.547	1	0
489.888	1	3
490.228	1	-2
490.569	1	4
490.910	1	3
491.250	1	-2
491.591	1	-3
491.932	1	7
492.272	1	6
492.613	1	7
492.953	1	2
493.294	1	-1
493.635	1	2
493.975	1	-4
494.316	1	5
494.656	1	5
494.997	1	5
495.337	1	1
495.678	1	7
496.019	1	-10
496.359	1	1
496.700	1	-2
497.040	1	3
497.381	1	-17
497.721	1	2
498.062	1	-5
498.403	1	-1
498.743	1	5
499.084	1	-13
499.424	1	20
499.765	1	2
500.105	1	5
500.446	1	-2
500.786	1	6
501.127	1	15
501.467	1	6
501.808	1	-5
502.148	1	2
502.489	1	1
502.829	1	8
503.170	1	3
503.510	1	3
503.851	1	1
504.191	1	6
504.532	1	-4
504.872	1	-9
505.213	1	7
505.553	1	0
505.894	1	10
506.234	1	11
506.575	1	-1
506.915	1	3
507.256	1	-1
507.596	1	-1
507.936	1	8
508.277	1	3
508.617	1	10
508.958	1	8
509.298	1	23
509.639	1	4
509.979	1	-4
510.319	1	4
510.660	1	6
511.000	1	8
511.341	1	-10
511.681	1	8
512.022	1	1
512.362	1	4
512.702	1	-6
513.043	1	6
513.383	1	-5
513.724	1	13
514.064	1	12
514.404	1	-2
514.745	1	8
515.085	1	-1
515.425	1	3
515.766	1	-2
516.106	1	-2
516.447	1	-1
516.787	1	1
517.127	1	9
517.468	1	8
517.808	1	7
518.148	1	0
518.489	1	9
518.829	1	-8
519.169	1	15
519.510	1	1
519.850	1	1
520.190	1	-6
520.531	1	7
520.871	1	6
521.211	1	10
521.552	1	5
521.892	1	-8
522.232	1	-8
522.573	1	0
522.913	1	14
523.253	1	1
523.593	1	-2
523.934	1	6
524.274	1	-6
524.614	1	8
524.955	1	-6
525.295	1	-3
525.635	1	16
525.975	1	1
526.316	1	-7
526.656	1	17
526.996	1	15
527.337	1	10
527.677	1	20
528.017	1	-2
528.357	1	15
528.698	1	3
529.038	1	13
529.378	1	12
529.718	1	16
530.058	1	8
530.399	1	9
530.739	1	0
531.079	1	9
531.419	1	7
531.760	1	9
532.100	1	4
532.440	1	7
532.780	1	2
533.120	1	-3
533.461	1	14
533.801	1	3
534.141	1	6
534.481	1	4
534.821	1	10
535.162	1	1
535.502	1	8
535.842	1	7
536.182	1	-2
536.522	1	12
536.862	1	2
537.203	1	12
537.543	1	4
537.883	1	7
538.223	1	6
538.563	1	5
538.903	1	-1
539.243	1	4
539.584	1	1
539.924	1	6
540.264	1	6
540.604	1	6
540.944	1	-1
541.284	1	6
541.624	1	4
541.964	1	1
542.305	1	3
542.645	1	4
542.985	1	0
543.325	1	-1
543.665	1	19
544.005	1	8
544.345	1	-7
544.685	1	10
545.025	1	1
545.365	1	9
545.705	1	9
546.045	1	9
546.386	1	5
546.726	1	-1
547.066	1	1
547.406	1	11
547.746	1	6
548.086	1	-4
548.426	1	-1
548.766	1	2
549.106	1	-1
549.446	1	4
549.786	1	10
550.126	1	1
550.466	1	-2
550.806	1	1
551.146	1	-6
551.486	1	0
551.826	1	14
552.166	1	1
552.506	1	2
552.846	1	11
553.186	1	0
553.526	1	11
553.866	1	3
554.206	1	7
554.546	1	-2
554.886	1	4
555.226	1	-6
555.566	1	10
555.906	1	15
556.246	1	-1
556.586	1	11
556.926	1	7
557.266	1	6
557.606	1	-2
557.946	1	5
558.286	1	15
558.626	1	4
558.966	1	2
559.306	1	7
559.646	1	-3
559.986	1	-6
560.325	1	-6
560.665	1	6
561.005	1	5
561.345	1	5
561.685	1	2
562.025	1	3
562.365	1	2
562.705	1	13
563.045	1	9
563.385	1	3
563.725	1	-3
564.064	1	11
564.404	1	6
564.744	1	0
565.084	1	2
565.424	1	5
565.764	1	10
566.104	1	5
566.444	1	5
566.783	1	-7
567.123	1	14
567.463	1	3
567.803	1	0
568.143	1	-1
568.483	1	-4
568.823	1	4
569.162	1	8
569.502	1	7
569.842	1	8
570.182	1	-3
570.522	1	9
570.862	1	3
571.201	1	7
571.541	1	-1
571.881	1	13
572.221	1	1
572.561	1	2
572.900	1	17
573.240	1	-9
573.580	1	6
573.920	1	2
574.260	1	-6
574.599	1	-7
574.939	1	6
575.279	1	6
575.619	1	5
575.959	1	-7
576.298	1	1
576.638	1	-3
576.978	1	7
577.318	1	3
577.657	1	-4
577.997	1	-17
578.337	1	4
578.677	1	-2
579.016	1	14
579.356	1	-5
579.696	1	9
580.036	1	2
580.375	1	5
580.715	1	12
581.055	1	4
581.394	1	-1
581.734	1	3
582.074	1	-3
582.414	1	-1
582.753	1	10
583.093	1	-8
583.433	1	-5
583.772	1	1
584.112	1	8
584.452	1	2
584.791	1	-1
585.131	1	-5
585.471	1	2
585.811	1	4
586.150	1	7
586.490	1	3
586.830	1	-7
587.169	1	-2
587.509	1	-1
587.849	1	9
588.188	1	0
588.528	1	13
588.867	1	10
589.207	1	-12
589.547	1	-4
589.886	1	-1
590.226	1	-2
590.566	1	3
590.905	1	9
591.245	1	-4
591.585	1	1
591.924	1	3
592.264	1	2
592.603	1	-17
592.943	1	4
593.283	1	15
593.622	1	-2
593.962	1	13
594.301	1	9
594.641	1	-5
594.981	1	-5
595.320	1	6
595.660	1	2
595.999	1	0
596.339	1	7
596.678	1	0
597.018	1	8
597.358	1	7
597.697	1	-3
598.037	1	1
598.376	1	6
598.716	1	0
599.055	1	3
599.395	1	6
599.734	1	-2
600.074	1	-5
600.413	1	-1
600.753	1	-2
601.092	1	-13
601.432	1	-3
601.771	1	9
602.111	1	4
602.451	1	-4
602.790	1	-1
603.130	1	7
603.469	1	-3
603.809	1	7
604.148	1	1
604.487	1	11
604.827	1	-12
605.166	1	4
605.506	1	13
605.845	1	-3
606.185	1	5
606.524	1	0
606.864	1	-1
607.203	1	4
607.543	1	-6
607.882	1	7
608.222	1	-3
608.561	1	4
608.901	1	1
609.240	1	0
609.579	1	-3
609.919	1	-2
610.258	1	10
610.598	1	3
610.937	1	2
611.277	1	2
611.616	1	-13
611.955	1	3
612.295	1	9
612.634	1	3
612.974	1	8
613.313	1	-2
613.652	1	-5
613.992	1	3
614.331	1	2
614.671	1	2
615.010	1	0
615.349	1	0
615.689	1	4
616.028	1	0
616.368	1	-3
616.707	1	-8
617.046	1	4
617.386	1	3
617.725	1	-2
618.064	1	10
618.404	1	14
618.743	1	0
619.082	1	-2
619.422	1	-2
619.761	1	5
620.100	1	4
620.440	1	0
620.779	1	-3
621.118	1	3
621.458	1	4
621.797	1	-2
622.136	1	6
622.476	1	3
622.815	1	1
623.154	1	6
623.494	1	5
623.833	1	3
624.172	1	6
624.511	1	2
624.851	1	-3
625.190	1	-1
625.529	1	6
625.869	1	7
626.208	1	-3
626.547	1	3
626.886	1	-1
627.226	1	-2
627.565	1	14
627.904	1	7
628.243	1	4
628.583	1	0
628.922	1	2
629.261	1	4
629.600	1	3
629.940	1	4
630.279	1	5
630.618	1	7
630.957	1	-12
631.297	1	-2
631.636	1	-10
631.975	1	4
632.314	1	13
632.653	1	2
632.993	1	5
633.332	1	6
633.671	1	1
634.010	1	1
634.349	1	2
634.689	1	9
635.028	1	6
635.367	1	-7
635.706	1	-7
636.045	1	-4
636.384	1	6
636.724	1	5
637.063	1	0
637.402	1	8
637.741	1	10
638.080	1	3
638.419	1	4
638.759	1	7
639.098	1	9
639.437	1	-2
639.776	1	-4
640.115	1	5
640.454	1	15
640.793	1	11
641.132	1	12
641.472	1	-1
641.811	1	-1
642.150	1	4
642.489	1	0
642.828	1	3
643.167	1	9
643.506	1	-9
643.845	1	9
644.184	1	7
644.524	1	-5
644.863	1	-10
645.202	1	3
645.541	1	-4
645.880	1	5
646.219	1	7
646.558	1	-7
646.897	1	-8
647.236	1	10
647.575	1	6
647.914	1	2
648.253	1	0
648.592	1	-1
648.931	1	5
649.270	1	13
649.610	1	10
649.949	1	-5
650.288	1	-3
650.627	1	2
650.966	1	3
651.305	1	0
651.644	1	-4
651.983	1	0
652.322	1	7
652.661	1	3
653.000	1	5
653.339	1	4
653.678	1	4
654.017	1	-1
654.356	1	8
654.695	1	8
655.034	1	4
655.373	1	-7
655.712	1	2
656.051	1	13
656.390	1	4
656.729	1	3
657.068	1	0
657.406	1	5
657.745	1	0
658.084	1	8
658.423	1	-13
658.762	1	0
659.101	1	2
659.440	1	7
659.779	1	-4
660.118	1	1
660.457	1	-7
660.796	1	6
661.135	1	4
661.474	1	0
661.813	1	-1
662.152	1	7
662.491	1	-3
662.829	1	-2
663.168	1	-4
663.507	1	2
663.846	1	11
664.185	1	-3
664.524	1	-9
664.863	1	3
665.202	1	-6
665.541	1	0
665.879	1	0
666.218	1	-14
666.557	1	3
666.896	1	4
667.235	1	5
667.574	1	9
667.913	1	3
668.251	1	4
668.590	1	-6
668.929	1	7
669.268	1	7
669.607	1	-7
669.946	1	7
670.285	1	3
670.623	1	0
670.962	1	-5
671.301	1	1
671.640	1	-15
671.979	1	14
672.317	1	-10
672.656	1	0
672.995	1	1
673.334	1	8
673.673	1	13
674.011	1	1
674.350	1	-3
674.689	1	1
675.028	1	12
675.367	1	5
675.705	1	-9
676.044	1	-7
676.383	1	-1
676.722	1	3
677.060	1	9
677.399	1	-3
677.738	1	-3
678.077	1	1
678.416	1	-3
678.754	1	-2
679.093	1	7
679.432	1	-3
679.771	1	0
680.109	1	6
680.448	1	7
680.787	1	3
681.125	1	7
681.464	1	-1
681.803	1	-19
682.142	1	9
682.480	1	-6
682.819	1	6
683.158	1	5
683.496	1	-4
683.835	1	11
684.174	1	-3
684.512	1	-1
684.851	1	3
685.190	1	12
685.529	1	5
685.867	1	-2
686.206	1	5
686.545	1	7
686.883	1	-6
687.222	1	-6
687.561	1	2
687.899	1	3
688.238	1	-3
688.577	1	-13
688.746	1	4