File: Analysis/GaN_68K_200ms/GaN_sample E_spot4_UVVIS_68 K_200um_200 ms 2x2mm1_357.txt
340.368	1	0
340.710	1	-4
341.052	1	4
341.394	1	-2
341.737	1	18
342.079	1	-9
342.421	1	-5
342.763	1	-1
343.105	1	7
343.447	1	7
343.789	1	-2
344.131	1	-3
344.473	1	6
344.815	1	9
345.157	1	7
345.499	1	9
345.841	1	3
346.183	1	-1
346.526	1	6
346.868	1	-6
347.210	1	5
347.552	1	1
347.894	1	2
348.236	1	-13
348.578	1	0
348.920	1	5
349.262	1	-4
349.604	1	9
349.946	1	14
350.288	1	3
350.630	1	-2
350.972	1	-2
351.314	1	1
351.656	1	7
351.998	1	4
352.340	1	-4
352.682	1	0
353.024	1	-11
353.366	1	9
353.708	1	8
354.050	1	1
354.392	1	3
354.734	1	4
355.076	1	6
355.418	1	-7
355.760	1	2
356.102	1	6
356.444	1	11
356.785	1	5
357.127	1	5
357.469	1	-4
357.811	1	8
358.153	1	9
358.495	1	7
358.837	1	3
359.179	1	3
359.521	1	-2
359.863	1	-7
360.205	1	-5
360.547	1	0
360.889	1	6
361.231	1	4
361.572	1	-5
361.914	1	1
362.256	1	14
362.598	1	-4
362.940	1	7
363.282	1	2
363.624	1	5
363.966	1	7
364.308	1	9
364.649	1	6
364.991	1	5
365.333	1	3
365.675	1	4
366.017	1	5
366.359	1	5
366.701	1	-5
367.042	1	15
367.384	1	9
367.726	1	17
368.068	1	-6
368.410	1	1
368.752	1	-1
369.093	1	1
369.435	1	3
369.777	1	-3
370.119	1	9
370.461	1	5
370.803	1	1
371.144	1	8
371.486	1	10
371.828	1	0
372.170	1	7
372.512	1	-2
372.853	1	15
373.195	1	-8
373.537	1	5
373.879	1	10
374.220	1	2
374.562	1	6
374.904	1	6
375.246	1	-3
375.588	1	3
375.929	1	9
376.271	1	-3
376.613	1	4
376.955	1	1
377.296	1	2
377.638	1	4
377.980	1	7
378.321	1	4
378.663	1	6
379.005	1	6
379.347	1	7
379.688	1	-1
380.030	1	-8
380.372	1	14
380.714	1	15
381.055	1	5
381.397	1	-10
381.739	1	11
382.080	1	-10
382.422	1	9
382.764	1	-3
383.105	1	5
383.447	1	14
383.789	1	4
384.130	1	2
384.472	1	3
384.814	1	14
385.156	1	11
385.497	1	9
385.839	1	8
386.180	1	16
386.522	1	19
386.864	1	7
387.205	1	5
387.547	1	2
387.889	1	15
388.230	1	12
388.572	1	7
388.914	1	9
389.255	1	10
389.597	1	6
389.939	1	10
390.280	1	12
390.622	1	15
390.963	1	10
391.305	1	20
391.647	1	8
391.988	1	2
392.330	1	21
392.671	1	15
393.013	1	15
393.355	1	11
393.696	1	5
394.038	1	0
394.379	1	-6
394.721	1	10
395.062	1	1
395.404	1	6
395.746	1	8
396.087	1	12
396.429	1	13
396.770	1	9
397.112	1	-2
397.453	1	3
397.795	1	13
398.136	1	13
398.478	1	10
398.819	1	14
399.161	1	8
399.503	1	6
399.844	1	7
400.186	1	17
400.527	1	11
400.869	1	9
401.210	1	6
401.552	1	13
401.893	1	6
402.235	1	20
402.576	1	15
402.918	1	0
403.259	1	-3
403.601	1	-6
403.942	1	6
404.284	1	-1
404.625	1	13
404.967	1	4
405.308	1	7
405.649	1	6
405.991	1	13
406.332	1	-2
406.674	1	10
407.015	1	-2
407.357	1	8
407.698	1	4
408.040	1	-1
408.381	1	10
408.722	1	-1
409.064	1	8
409.405	1	6
409.747	1	5
410.088	1	11
410.430	1	14
410.771	1	6
411.112	1	18
411.454	1	13
411.795	1	12
412.137	1	4
412.478	1	8
412.819	1	0
413.161	1	-3
413.502	1	5
413.844	1	3
414.185	1	9
414.526	1	1
414.868	1	11
415.209	1	1
415.550	1	-6
415.892	1	3
416.233	1	6
416.575	1	-1
416.916	1	-3
417.257	1	1
417.599	1	4
417.940	1	0
418.281	1	-3
418.623	1	4
418.964	1	3
419.305	1	12
419.647	1	8
419.988	1	-3
420.329	1	9
420.671	1	4
421.012	1	12
421.353	1	17
421.695	1	8
422.036	1	-7
422.377	1	9
422.718	1	2
423.060	1	7
423.401	1	10
423.742	1	9
424.084	1	6
424.425	1	3
424.766	1	10
425.107	1	1
425.449	1	-1
425.790	1	-4
426.131	1	8
426.472	1	5
426.814	1	14
427.155	1	6
427.496	1	11
427.837	1	0
428.179	1	4
428.520	1	5
428.861	1	5
429.202	1	10
429.544	1	4
429.885	1	8
430.226	1	8
430.567	1	9
430.909	1	-4
431.250	1	-6
431.591	1	1
431.932	1	2
432.273	1	11
432.615	1	-2
432.956	1	3
433.297	1	10
433.638	1	5
433.979	1	1
434.320	1	7
434.662	1	-7
435.003	1	9
435.344	1	13
435.685	1	12
436.026	1	2
436.368	1	1
436.709	1	1
437.050	1	12
437.391	1	6
437.732	1	-1
438.073	1	6
438.414	1	3
438.756	1	8
439.097	1	5
439.438	1	10
439.779	1	3
440.120	1	5
440.461	1	-11
440.802	1	5
441.143	1	13
441.485	1	1
441.826	1	-2
442.167	1	-8
442.508	1	7
442.849	1	9
443.190	1	-14
443.531	1	3
443.872	1	-5
444.213	1	-4
444.554	1	-13
444.895	1	4
445.237	1	3
445.578	1	12
445.919	1	-3
446.260	1	8
446.601	1	-6
446.942	1	13
447.283	1	-4
447.624	1	7
447.965	1	-5
448.306	1	6
448.647	1	7
448.988	1	-15
449.329	1	-1
449.670	1	15
450.011	1	7
450.352	1	7
450.693	1	10
451.034	1	8
451.375	1	11
451.716	1	2
452.057	1	13
452.398	1	6
452.739	1	0
453.080	1	9
453.421	1	7
453.762	1	8
454.103	1	10
454.444	1	5
454.785	1	-1
455.126	1	-8
455.467	1	1
455.808	1	7
456.149	1	0
456.490	1	7
456.831	1	4
457.172	1	8
457.513	1	3
457.854	1	12
458.195	1	2
458.536	1	8
458.877	1	-6
459.218	1	11
459.559	1	3
459.899	1	9
460.240	1	7
460.581	1	8
460.922	1	-5
461.263	1	0
461.604	1	6
461.945	1	16
462.286	1	7
462.627	1	4
462.968	1	-7
463.309	1	5
463.649	1	8
463.990	1	3
464.331	1	3
464.672	1	-4
465.013	1	-1
465.354	1	10
465.695	1	5
466.036	1	6
466.376	1	-4
466.717	1	-3
467.058	1	14
467.399	1	3
467.740	1	-5
468.081	1	-3
468.422	1	6
468.762	1	-8
469.103	1	1
469.444	1	2
469.785	1	7
470.126	1	3
470.467	1	-7
470.807	1	5
471.148	1	0
471.489	1	-1
471.830	1	15
472.171	1	0
472.511	1	15
472.852	1	-4
473.193	1	-7
473.534	1	3
473.875	1	12
474.215	1	-8
474.556	1	2
474.897	1	-1
475.238	1	1
475.578	1	-6
475.919	1	12
476.260	1	-3
476.601	1	-7
476.942	1	-3
477.282	1	-15
477.623	1	7
477.964	1	3
478.305	1	-1
478.645	1	-4
478.986	1	1
479.327	1	-6
479.667	1	-1
480.008	1	6
480.349	1	5
480.690	1	4
481.030	1	-6
481.371	1	17
481.712	1	5
482.053	1	1
482.393	1	-1
482.734	1	8
483.075	1	6
483.415	1	3
483.756	1	10
484.097	1	-5
484.437	1	-5
484.778	1	6
485.119	1	16
485.459	1	4
485.800	1	1
486.141	1	-8
486.481	1	1
486.822	1	3
487.163	1	-4
487.503	1	-3
487.844	1	1
488.185	1	-11
488.525	1	2
488.866	1	9
489.207	1	13
489.547	1	0
489.888	1	1
490.228	1	-4
490.569	1	3
490.910	1	-6
491.250	1	-2
491.591	1	-5
491.932	1	10
492.272	1	6
492.613	1	8
492.953	1	6
493.294	1	7
493.635	1	-7
493.975	1	-3
494.316	1	11
494.656	1	-5
494.997	1	4
495.337	1	12
495.678	1	7
496.019	1	-7
496.359	1	-2
496.700	1	5
497.040	1	0
497.381	1	-13
497.721	1	3
498.062	1	-11
498.403	1	6
498.743	1	9
499.084	1	-6
499.424	1	15
499.765	1	6
500.105	1	14
500.446	1	15
500.786	1	6
501.127	1	10
501.467	1	5
501.808	1	-6
502.148	1	9
502.489	1	8
502.829	1	8
503.170	1	8
503.510	1	-8
503.851	1	-14
504.191	1	3
504.532	1	-8
504.872	1	-6
505.213	1	6
505.553	1	11
505.894	1	10
506.234	1	10
506.575	1	-3
506.915	1	-3
507.256	1	-2
507.596	1	6
507.936	1	2
508.277	1	-2
508.617	1	9
508.958	1	6
509.298	1	14
509.639	1	5
509.979	1	-2
510.319	1	6
510.660	1	11
511.000	1	7
511.341	1	-3
511.681	1	1
512.022	1	3
512.362	1	7
512.702	1	1
513.043	1	7
513.383	1	-7
513.724	1	7
514.064	1	5
514.404	1	5
514.745	1	1
515.085	1	1
515.425	1	6
515.766	1	1
516.106	1	-2
516.447	1	0
516.787	1	-5
517.127	1	2
517.468	1	3
517.808	1	8
518.148	1	5
518.489	1	14
518.829	1	-7
519.169	1	11
519.510	1	11
519.850	1	-5
520.190	1	-1
520.531	1	0
520.871	1	-1
521.211	1	4
521.552	1	10
521.892	1	0
522.232	1	1
522.573	1	6
522.913	1	19
523.253	1	7
523.593	1	-6
523.934	1	14
524.274	1	-4
524.614	1	12
524.955	1	-10
525.295	1	-1
525.635	1	8
525.975	1	-9
526.316	1	5
526.656	1	19
526.996	1	11
527.337	1	1
527.677	1	17
528.017	1	-7
528.357	1	7
528.698	1	4
529.038	1	18
529.378	1	12
529.718	1	5
530.058	1	2
530.399	1	16
530.739	1	-4
531.079	1	13
531.419	1	7
531.760	1	14
532.100	1	5
532.440	1	-3
532.780	1	6
533.120	1	-4
533.461	1	24
533.801	1	-3
534.141	1	12
534.481	1	-4
534.821	1	13
535.162	1	7
535.502	1	10
535.842	1	8
536.182	1	5
536.522	1	7
536.862	1	10
537.203	1	5
537.543	1	2
537.883	1	14
538.223	1	14
538.563	1	1
538.903	1	1
539.243	1	-2
539.584	1	8
539.924	1	10
540.264	1	-2
540.604	1	12
540.944	1	2
541.284	1	6
541.624	1	3
541.964	1	6
542.305	1	-8
542.645	1	2
542.985	1	-2
543.325	1	0
543.665	1	16
544.005	1	-1
544.345	1	-3
544.685	1	10
545.025	1	-11
545.365	1	8
545.705	1	1
546.045	1	17
546.386	1	4
546.726	1	16
547.066	1	-8
547.406	1	15
547.746	1	10
548.086	1	9
548.426	1	0
548.766	1	7
549.106	1	-1
549.446	1	1
549.786	1	9
550.126	1	2
550.466	1	0
550.806	1	15
551.146	1	-4
551.486	1	2
551.826	1	6
552.166	1	4
552.506	1	0
552.846	1	10
553.186	1	3
553.526	1	-7
553.866	1	12
554.206	1	10
554.546	1	-12
554.886	1	0
555.226	1	-5
555.566	1	4
555.906	1	6
556.246	1	7
556.586	1	3
556.926	1	10
557.266	1	14
557.606	1	-4
557.946	1	14
558.286	1	2
558.626	1	7
558.966	1	-4
559.306	1	3
559.646	1	-3
559.986	1	0
560.325	1	-3
560.665	1	10
561.005	1	6
561.345	1	2
561.685	1	5
562.025	1	7
562.365	1	10
562.705	1	9
563.045	1	12
563.385	1	-1
563.725	1	1
564.064	1	6
564.404	1	-3
564.744	1	2
565.084	1	0
565.424	1	1
565.764	1	9
566.104	1	3
566.444	1	4
566.783	1	3
567.123	1	18
567.463	1	6
567.803	1	-2
568.143	1	-1
568.483	1	3
568.823	1	10
569.162	1	14
569.502	1	-1
569.842	1	3
570.182	1	-12
570.522	1	9
570.862	1	8
571.201	1	14
571.541	1	-3
571.881	1	5
572.221	1	5
572.561	1	-6
572.900	1	8
573.240	1	-2
573.580	1	14
573.920	1	1
574.260	1	6
574.599	1	2
574.939	1	4
575.279	1	-3
575.619	1	3
575.959	1	0
576.298	1	-2
576.638	1	12
576.978	1	3
577.318	1	10
577.657	1	-8
577.997	1	-1
578.337	1	-4
578.677	1	0
579.016	1	3
579.356	1	-3
579.696	1	12
580.036	1	7
580.375	1	6
580.715	1	2
581.055	1	9
581.394	1	-3
581.734	1	-1
582.074	1	-3
582.414	1	9
582.753	1	8
583.093	1	-8
583.433	1	-1
583.772	1	5
584.112	1	0
584.452	1	6
584.791	1	13
585.131	1	-11
585.471	1	-7
585.811	1	-5
586.150	1	7
586.490	1	-2
586.830	1	-12
587.169	1	-2
587.509	1	1
587.849	1	13
588.188	1	-7
588.528	1	12
588.867	1	7
589.207	1	-8
589.547	1	-5
589.886	1	-2
590.226	1	0
590.566	1	6
590.905	1	0
591.245	1	0
591.585	1	-7
591.924	1	-6
592.264	1	-2
592.603	1	0
592.943	1	2
593.283	1	9
593.622	1	-8
593.962	1	18
594.301	1	8
594.641	1	-3
594.981	1	4
595.320	1	13
595.660	1	-2
595.999	1	-6
596.339	1	2
596.678	1	-8
597.018	1	2
597.358	1	-3
597.697	1	-6
598.037	1	1
598.376	1	7
598.716	1	-4
599.055	1	5
599.395	1	7
599.734	1	-2
600.074	1	1
600.413	1	-2
600.753	1	8
601.092	1	-18
601.432	1	-3
601.771	1	7
602.111	1	-1
602.451	1	6
602.790	1	-2
603.130	1	0
603.469	1	1
603.809	1	-4
604.148	1	0
604.487	1	7
604.827	1	-4
605.166	1	-1
605.506	1	7
605.845	1	-1
606.185	1	-4
606.524	1	-6
606.864	1	-2
607.203	1	10
607.543	1	-4
607.882	1	3
608.222	1	11
608.561	1	11
608.901	1	8
609.240	1	0
609.579	1	3
609.919	1	-1
610.258	1	10
610.598	1	1
610.937	1	2
611.277	1	9
611.616	1	-11
611.955	1	7
612.295	1	-5
612.634	1	9
612.974	1	7
613.313	1	4
613.652	1	3
613.992	1	4
614.331	1	8
614.671	1	12
615.010	1	1
615.349	1	5
615.689	1	0
616.028	1	2
616.368	1	-2
616.707	1	5
617.046	1	3
617.386	1	0
617.725	1	11
618.064	1	5
618.404	1	5
618.743	1	6
619.082	1	3
619.422	1	0
619.761	1	1
620.100	1	8
620.440	1	6
620.779	1	-2
621.118	1	-7
621.458	1	4
621.797	1	4
622.136	1	2
622.476	1	3
622.815	1	3
623.154	1	5
623.494	1	11
623.833	1	-1
624.172	1	5
624.511	1	6
624.851	1	-5
625.190	1	6
625.529	1	7
625.869	1	7
626.208	1	-10
626.547	1	-1
626.886	1	3
627.226	1	4
627.565	1	4
627.904	1	5
628.243	1	-11
628.583	1	0
628.922	1	-7
629.261	1	11
629.600	1	5
629.940	1	7
630.279	1	-7
630.618	1	-4
630.957	1	-9
631.297	1	-4
631.636	1	2
631.975	1	2
632.314	1	15
632.653	1	-2
632.993	1	7
633.332	1	1
633.671	1	4
634.010	1	-8
634.349	1	7
634.689	1	4
635.028	1	3
635.367	1	-5
635.706	1	-6
636.045	1	-2
636.384	1	6
636.724	1	-4
637.063	1	-1
637.402	1	8
637.741	1	11
638.080	1	4
638.419	1	4
638.759	1	6
639.098	1	-5
639.437	1	-5
639.776	1	-5
640.115	1	-7
640.454	1	21
640.793	1	13
641.132	1	8
641.472	1	-3
641.811	1	-9
642.150	1	2
642.489	1	2
642.828	1	-3
643.167	1	4
643.506	1	6
643.845	1	-3
644.184	1	16
644.524	1	-2
644.863	1	-9
645.202	1	-2
645.541	1	-8
645.880	1	4
646.219	1	-1
646.558	1	2
646.897	1	-2
647.236	1	4
647.575	1	4
647.914	1	-9
648.253	1	-4
648.592	1	1
648.931	1	7
649.270	1	10
649.610	1	13
649.949	1	-3
650.288	1	6
650.627	1	0
650.966	1	8
651.305	1	0
651.644	1	-2
651.983	1	8
652.322	1	6
652.661	1	3
653.000	1	5
653.339	1	14
653.678	1	3
654.017	1	8
654.356	1	11
654.695	1	3
655.034	1	6
655.373	1	0
655.712	1	-6
656.051	1	12
656.390	1	12
656.729	1	3
657.068	1	3
657.406	1	9
657.745	1	-9
658.084	1	14
658.423	1	-6
658.762	1	-5
659.101	1	2
659.440	1	14
659.779	1	-9
660.118	1	6
660.457	1	-3
660.796	1	2
661.135	1	4
661.474	1	1
661.813	1	3
662.152	1	2
662.491	1	5
662.829	1	1
663.168	1	-3
663.507	1	-1
663.846	1	2
664.185	1	-4
664.524	1	-7
664.863	1	-3
665.202	1	-8
665.541	1	-2
665.879	1	-3
666.218	1	-4
666.557	1	1
666.896	1	0
667.235	1	1
667.574	1	16
667.913	1	1
668.251	1	-1
668.590	1	-2
668.929	1	8
669.268	1	3
669.607	1	6
669.946	1	3
670.285	1	1
670.623	1	6
670.962	1	15
671.301	1	-7
671.640	1	-10
671.979	1	16
672.317	1	-1
672.656	1	6
672.995	1	-4
673.334	1	14
673.673	1	18
674.011	1	8
674.350	1	-1
674.689	1	-7
675.028	1	10
675.367	1	11
675.705	1	-2
676.044	1	-4
676.383	1	-6
676.722	1	0
677.060	1	4
677.399	1	-4
677.738	1	-2
678.077	1	5
678.416	1	-1
678.754	1	2
679.093	1	8
679.432	1	-5
679.771	1	5
680.109	1	9
680.448	1	2
680.787	1	-1
681.125	1	5
681.464	1	3
681.803	1	-9
682.142	1	9
682.480	1	-7
682.819	1	-4
683.158	1	0
683.496	1	-6
683.835	1	1
684.174	1	4
684.512	1	3
684.851	1	0
685.190	1	8
685.529	1	-5
685.867	1	3
686.206	1	5
686.545	1	6
686.883	1	0
687.222	1	6
687.561	1	2
687.899	1	2
688.238	1	-5
688.577	1	-8
688.746	1	9