File: Analysis/GaN_68K_200ms/GaN_sample E_spot4_UVVIS_68 K_200um_200 ms 2x2mm1_428.txt
340.368	1	2
340.710	1	0
341.052	1	1
341.394	1	2
341.737	1	18
342.079	1	-4
342.421	1	3
342.763	1	0
343.105	1	14
343.447	1	12
343.789	1	2
344.131	1	1
344.473	1	4
344.815	1	6
345.157	1	-4
345.499	1	6
345.841	1	1
346.183	1	9
346.526	1	5
346.868	1	4
347.210	1	-1
347.552	1	12
347.894	1	11
348.236	1	9
348.578	1	2
348.920	1	10
349.262	1	0
349.604	1	5
349.946	1	12
350.288	1	5
350.630	1	9
350.972	1	2
351.314	1	-3
351.656	1	3
351.998	1	-4
352.340	1	4
352.682	1	0
353.024	1	-2
353.366	1	5
353.708	1	6
354.050	1	-5
354.392	1	8
354.734	1	4
355.076	1	3
355.418	1	-6
355.760	1	-1
356.102	1	0
356.444	1	5
356.785	1	14
357.127	1	5
357.469	1	-2
357.811	1	15
358.153	1	1
358.495	1	9
358.837	1	10
359.179	1	8
359.521	1	4
359.863	1	-10
360.205	1	-4
360.547	1	4
360.889	1	3
361.231	1	-2
361.572	1	4
361.914	1	-1
362.256	1	7
362.598	1	0
362.940	1	8
363.282	1	10
363.624	1	12
363.966	1	7
364.308	1	5
364.649	1	8
364.991	1	10
365.333	1	16
365.675	1	0
366.017	1	6
366.359	1	1
366.701	1	3
367.042	1	14
367.384	1	6
367.726	1	7
368.068	1	6
368.410	1	10
368.752	1	-1
369.093	1	0
369.435	1	5
369.777	1	1
370.119	1	4
370.461	1	8
370.803	1	3
371.144	1	16
371.486	1	7
371.828	1	9
372.170	1	9
372.512	1	11
372.853	1	6
373.195	1	-5
373.537	1	3
373.879	1	16
374.220	1	3
374.562	1	4
374.904	1	2
375.246	1	-3
375.588	1	2
375.929	1	4
376.271	1	-2
376.613	1	10
376.955	1	-10
377.296	1	0
377.638	1	-2
377.980	1	7
378.321	1	7
378.663	1	-5
379.005	1	3
379.347	1	5
379.688	1	0
380.030	1	2
380.372	1	6
380.714	1	8
381.055	1	7
381.397	1	10
381.739	1	6
382.080	1	-2
382.422	1	8
382.764	1	10
383.105	1	5
383.447	1	15
383.789	1	4
384.130	1	4
384.472	1	-2
384.814	1	7
385.156	1	19
385.497	1	15
385.839	1	4
386.180	1	7
386.522	1	12
386.864	1	10
387.205	1	9
387.547	1	-1
387.889	1	13
388.230	1	13
388.572	1	-3
388.914	1	20
389.255	1	11
389.597	1	4
389.939	1	14
390.280	1	20
390.622	1	4
390.963	1	14
391.305	1	20
391.647	1	13
391.988	1	5
392.330	1	3
392.671	1	14
393.013	1	21
393.355	1	24
393.696	1	12
394.038	1	5
394.379	1	1
394.721	1	11
395.062	1	0
395.404	1	10
395.746	1	2
396.087	1	11
396.429	1	9
396.770	1	14
397.112	1	1
397.453	1	0
397.795	1	9
398.136	1	5
398.478	1	2
398.819	1	7
399.161	1	11
399.503	1	4
399.844	1	6
400.186	1	17
400.527	1	12
400.869	1	13
401.210	1	-5
401.552	1	10
401.893	1	6
402.235	1	19
402.576	1	23
402.918	1	-1
403.259	1	-6
403.601	1	0
403.942	1	16
404.284	1	6
404.625	1	11
404.967	1	11
405.308	1	9
405.649	1	3
405.991	1	7
406.332	1	8
406.674	1	12
407.015	1	-11
407.357	1	7
407.698	1	2
408.040	1	4
408.381	1	7
408.722	1	3
409.064	1	3
409.405	1	6
409.747	1	-4
410.088	1	-1
410.430	1	15
410.771	1	8
411.112	1	10
411.454	1	15
411.795	1	22
412.137	1	9
412.478	1	7
412.819	1	-4
413.161	1	-5
413.502	1	3
413.844	1	3
414.185	1	7
414.526	1	9
414.868	1	7
415.209	1	-1
415.550	1	1
415.892	1	3
416.233	1	5
416.575	1	4
416.916	1	-3
417.257	1	9
417.599	1	3
417.940	1	-3
418.281	1	9
418.623	1	0
418.964	1	7
419.305	1	-3
419.647	1	12
419.988	1	1
420.329	1	2
420.671	1	4
421.012	1	9
421.353	1	15
421.695	1	0
422.036	1	-2
422.377	1	0
422.718	1	-3
423.060	1	5
423.401	1	-3
423.742	1	-2
424.084	1	7
424.425	1	6
424.766	1	3
425.107	1	6
425.449	1	2
425.790	1	6
426.131	1	8
426.472	1	0
426.814	1	10
427.155	1	6
427.496	1	7
427.837	1	-8
428.179	1	3
428.520	1	5
428.861	1	4
429.202	1	7
429.544	1	8
429.885	1	-9
430.226	1	0
430.567	1	9
430.909	1	-12
431.250	1	-10
431.591	1	9
431.932	1	7
432.273	1	-3
432.615	1	4
432.956	1	8
433.297	1	11
433.638	1	0
433.979	1	9
434.320	1	-4
434.662	1	2
435.003	1	7
435.344	1	7
435.685	1	-1
436.026	1	3
436.368	1	-2
436.709	1	-1
437.050	1	5
437.391	1	8
437.732	1	2
438.073	1	12
438.414	1	5
438.756	1	2
439.097	1	10
439.438	1	6
439.779	1	-4
440.120	1	-2
440.461	1	-5
440.802	1	4
441.143	1	7
441.485	1	-3
441.826	1	0
442.167	1	6
442.508	1	5
442.849	1	2
443.190	1	-4
443.531	1	1
443.872	1	-1
444.213	1	-10
444.554	1	-3
444.895	1	5
445.237	1	3
445.578	1	7
445.919	1	-1
446.260	1	6
446.601	1	2
446.942	1	6
447.283	1	-4
447.624	1	7
447.965	1	-7
448.306	1	7
448.647	1	6
448.988	1	-15
449.329	1	-3
449.670	1	9
450.011	1	-2
450.352	1	3
450.693	1	13
451.034	1	1
451.375	1	10
451.716	1	12
452.057	1	5
452.398	1	6
452.739	1	2
453.080	1	17
453.421	1	6
453.762	1	6
454.103	1	6
454.444	1	11
454.785	1	-6
455.126	1	10
455.467	1	1
455.808	1	9
456.149	1	3
456.490	1	3
456.831	1	13
457.172	1	-3
457.513	1	0
457.854	1	3
458.195	1	7
458.536	1	5
458.877	1	-1
459.218	1	1
459.559	1	7
459.899	1	7
460.240	1	1
460.581	1	14
460.922	1	-1
461.263	1	10
461.604	1	2
461.945	1	11
462.286	1	14
462.627	1	-6
462.968	1	-1
463.309	1	-9
463.649	1	6
463.990	1	5
464.331	1	10
464.672	1	-4
465.013	1	-8
465.354	1	-2
465.695	1	6
466.036	1	10
466.376	1	1
466.717	1	-7
467.058	1	9
467.399	1	6
467.740	1	4
468.081	1	2
468.422	1	-2
468.762	1	-4
469.103	1	-10
469.444	1	-3
469.785	1	7
470.126	1	10
470.467	1	-1
470.807	1	0
471.148	1	0
471.489	1	2
471.830	1	18
472.171	1	1
472.511	1	9
472.852	1	-3
473.193	1	-8
473.534	1	3
473.875	1	15
474.215	1	2
474.556	1	-3
474.897	1	-1
475.238	1	0
475.578	1	4
475.919	1	-2
476.260	1	-6
476.601	1	-7
476.942	1	-7
477.282	1	0
477.623	1	-2
477.964	1	5
478.305	1	-3
478.645	1	-6
478.986	1	-4
479.327	1	-1
479.667	1	6
480.008	1	5
480.349	1	8
480.690	1	4
481.030	1	-3
481.371	1	3
481.712	1	3
482.053	1	2
482.393	1	-8
482.734	1	7
483.075	1	0
483.415	1	15
483.756	1	12
484.097	1	-2
484.437	1	-7
484.778	1	2
485.119	1	1
485.459	1	8
485.800	1	4
486.141	1	-8
486.481	1	7
486.822	1	8
487.163	1	-12
487.503	1	-11
487.844	1	1
488.185	1	1
488.525	1	-4
488.866	1	7
489.207	1	10
489.547	1	1
489.888	1	0
490.228	1	-7
490.569	1	17
490.910	1	-7
491.250	1	6
491.591	1	-9
491.932	1	13
492.272	1	7
492.613	1	2
492.953	1	5
493.294	1	6
493.635	1	1
493.975	1	9
494.316	1	12
494.656	1	8
494.997	1	4
495.337	1	5
495.678	1	13
496.019	1	6
496.359	1	3
496.700	1	1
497.040	1	6
497.381	1	-25
497.721	1	2
498.062	1	9
498.403	1	11
498.743	1	10
499.084	1	-8
499.424	1	16
499.765	1	2
500.105	1	6
500.446	1	13
500.786	1	5
501.127	1	10
501.467	1	-1
501.808	1	-10
502.148	1	10
502.489	1	3
502.829	1	1
503.170	1	-2
503.510	1	-3
503.851	1	-2
504.191	1	-6
504.532	1	-12
504.872	1	-1
505.213	1	3
505.553	1	1
505.894	1	7
506.234	1	15
506.575	1	2
506.915	1	11
507.256	1	-5
507.596	1	7
507.936	1	14
508.277	1	-3
508.617	1	14
508.958	1	22
509.298	1	16
509.639	1	13
509.979	1	8
510.319	1	-1
510.660	1	11
511.000	1	11
511.341	1	-1
511.681	1	9
512.022	1	-5
512.362	1	3
512.702	1	-9
513.043	1	6
513.383	1	3
513.724	1	14
514.064	1	4
514.404	1	-6
514.745	1	7
515.085	1	-1
515.425	1	3
515.766	1	10
516.106	1	-3
516.447	1	13
516.787	1	-2
517.127	1	2
517.468	1	13
517.808	1	3
518.148	1	2
518.489	1	5
518.829	1	-4
519.169	1	8
519.510	1	12
519.850	1	6
520.190	1	1
520.531	1	5
520.871	1	-2
521.211	1	11
521.552	1	10
521.892	1	-2
522.232	1	-4
522.573	1	2
522.913	1	4
523.253	1	3
523.593	1	-1
523.934	1	1
524.274	1	6
524.614	1	2
524.955	1	1
525.295	1	1
525.635	1	15
525.975	1	-4
526.316	1	-2
526.656	1	22
526.996	1	17
527.337	1	3
527.677	1	6
528.017	1	-4
528.357	1	10
528.698	1	-1
529.038	1	11
529.378	1	7
529.718	1	7
530.058	1	-3
530.399	1	9
530.739	1	3
531.079	1	9
531.419	1	9
531.760	1	5
532.100	1	14
532.440	1	2
532.780	1	-1
533.120	1	0
533.461	1	13
533.801	1	-1
534.141	1	11
534.481	1	0
534.821	1	16
535.162	1	18
535.502	1	11
535.842	1	-4
536.182	1	3
536.522	1	10
536.862	1	6
537.203	1	9
537.543	1	12
537.883	1	8
538.223	1	9
538.563	1	6
538.903	1	7
539.243	1	5
539.584	1	-1
539.924	1	7
540.264	1	1
540.604	1	9
540.944	1	4
541.284	1	8
541.624	1	1
541.964	1	6
542.305	1	5
542.645	1	1
542.985	1	2
543.325	1	-1
543.665	1	9
544.005	1	1
544.345	1	2
544.685	1	5
545.025	1	0
545.365	1	6
545.705	1	11
546.045	1	8
546.386	1	2
546.726	1	3
547.066	1	0
547.406	1	7
547.746	1	9
548.086	1	13
548.426	1	-9
548.766	1	3
549.106	1	17
549.446	1	4
549.786	1	6
550.126	1	1
550.466	1	1
550.806	1	4
551.146	1	0
551.486	1	8
551.826	1	11
552.166	1	2
552.506	1	-4
552.846	1	11
553.186	1	3
553.526	1	1
553.866	1	8
554.206	1	11
554.546	1	-1
554.886	1	5
555.226	1	-7
555.566	1	3
555.906	1	8
556.246	1	7
556.586	1	6
556.926	1	5
557.266	1	13
557.606	1	-7
557.946	1	15
558.286	1	10
558.626	1	6
558.966	1	7
559.306	1	3
559.646	1	-4
559.986	1	0
560.325	1	-3
560.665	1	8
561.005	1	9
561.345	1	4
561.685	1	1
562.025	1	-1
562.365	1	7
562.705	1	8
563.045	1	9
563.385	1	1
563.725	1	2
564.064	1	17
564.404	1	0
564.744	1	-5
565.084	1	2
565.424	1	1
565.764	1	10
566.104	1	2
566.444	1	3
566.783	1	-1
567.123	1	20
567.463	1	5
567.803	1	-1
568.143	1	-2
568.483	1	-7
568.823	1	10
569.162	1	11
569.502	1	1
569.842	1	-2
570.182	1	-6
570.522	1	13
570.862	1	13
571.201	1	1
571.541	1	-7
571.881	1	3
572.221	1	1
572.561	1	0
572.900	1	15
573.240	1	3
573.580	1	3
573.920	1	-3
574.260	1	11
574.599	1	-4
574.939	1	-3
575.279	1	11
575.619	1	5
575.959	1	-17
576.298	1	-2
576.638	1	0
576.978	1	5
577.318	1	7
577.657	1	-10
577.997	1	-3
578.337	1	-5
578.677	1	-2
579.016	1	7
579.356	1	6
579.696	1	0
580.036	1	4
580.375	1	1
580.715	1	12
581.055	1	4
581.394	1	-5
581.734	1	17
582.074	1	1
582.414	1	5
582.753	1	9
583.093	1	-7
583.433	1	-1
583.772	1	2
584.112	1	-1
584.452	1	0
584.791	1	3
585.131	1	1
585.471	1	3
585.811	1	-3
586.150	1	3
586.490	1	0
586.830	1	-2
587.169	1	1
587.509	1	3
587.849	1	8
588.188	1	8
588.528	1	-1
588.867	1	-1
589.207	1	-6
589.547	1	-3
589.886	1	-4
590.226	1	4
590.566	1	-2
590.905	1	5
591.245	1	5
591.585	1	3
591.924	1	-7
592.264	1	-2
592.603	1	-7
592.943	1	-4
593.283	1	13
593.622	1	4
593.962	1	5
594.301	1	7
594.641	1	2
594.981	1	8
595.320	1	1
595.660	1	-6
595.999	1	6
596.339	1	4
596.678	1	-7
597.018	1	7
597.358	1	-3
597.697	1	-3
598.037	1	-2
598.376	1	18
598.716	1	-4
599.055	1	10
599.395	1	6
599.734	1	3
600.074	1	1
600.413	1	4
600.753	1	3
601.092	1	-6
601.432	1	0
601.771	1	13
602.111	1	-2
602.451	1	-2
602.790	1	-7
603.130	1	3
603.469	1	5
603.809	1	6
604.148	1	3
604.487	1	3
604.827	1	-8
605.166	1	-3
605.506	1	5
605.845	1	-2
606.185	1	1
606.524	1	0
606.864	1	-6
607.203	1	12
607.543	1	-2
607.882	1	-11
608.222	1	6
608.561	1	11
608.901	1	8
609.240	1	2
609.579	1	7
609.919	1	-7
610.258	1	9
610.598	1	3
610.937	1	-7
611.277	1	1
611.616	1	-10
611.955	1	9
612.295	1	1
612.634	1	4
612.974	1	12
613.313	1	10
613.652	1	-4
613.992	1	1
614.331	1	3
614.671	1	4
615.010	1	1
615.349	1	1
615.689	1	2
616.028	1	-1
616.368	1	-5
616.707	1	-7
617.046	1	4
617.386	1	5
617.725	1	5
618.064	1	9
618.404	1	7
618.743	1	6
619.082	1	3
619.422	1	-6
619.761	1	2
620.100	1	0
620.440	1	3
620.779	1	3
621.118	1	4
621.458	1	6
621.797	1	-8
622.136	1	-1
622.476	1	8
622.815	1	-5
623.154	1	-6
623.494	1	0
623.833	1	-6
624.172	1	10
624.511	1	-5
624.851	1	-11
625.190	1	6
625.529	1	2
625.869	1	9
626.208	1	2
626.547	1	2
626.886	1	-1
627.226	1	5
627.565	1	11
627.904	1	6
628.243	1	-4
628.583	1	2
628.922	1	3
629.261	1	4
629.600	1	8
629.940	1	8
630.279	1	2
630.618	1	-7
630.957	1	-1
631.297	1	-1
631.636	1	4
631.975	1	-1
632.314	1	6
632.653	1	-4
632.993	1	8
633.332	1	6
633.671	1	9
634.010	1	-1
634.349	1	10
634.689	1	14
635.028	1	7
635.367	1	-6
635.706	1	-14
636.045	1	12
636.384	1	6
636.724	1	0
637.063	1	9
637.402	1	7
637.741	1	13
638.080	1	1
638.419	1	11
638.759	1	1
639.098	1	-5
639.437	1	-2
639.776	1	1
640.115	1	-7
640.454	1	4
640.793	1	8
641.132	1	-1
641.472	1	6
641.811	1	-5
642.150	1	0
642.489	1	-6
642.828	1	14
643.167	1	14
643.506	1	-9
643.845	1	-2
644.184	1	9
644.524	1	-3
644.863	1	-4
645.202	1	8
645.541	1	-10
645.880	1	4
646.219	1	-2
646.558	1	2
646.897	1	-3
647.236	1	0
647.575	1	7
647.914	1	-4
648.253	1	-7
648.592	1	3
648.931	1	7
649.270	1	16
649.610	1	11
649.949	1	-1
650.288	1	3
650.627	1	8
650.966	1	-5
651.305	1	-3
651.644	1	0
651.983	1	4
652.322	1	9
652.661	1	3
653.000	1	2
653.339	1	7
653.678	1	-1
654.017	1	-1
654.356	1	8
654.695	1	5
655.034	1	-5
655.373	1	-8
655.712	1	3
656.051	1	15
656.390	1	3
656.729	1	-1
657.068	1	-8
657.406	1	-6
657.745	1	1
658.084	1	15
658.423	1	-7
658.762	1	-16
659.101	1	5
659.440	1	12
659.779	1	3
660.118	1	-8
660.457	1	-1
660.796	1	4
661.135	1	7
661.474	1	2
661.813	1	0
662.152	1	5
662.491	1	0
662.829	1	-4
663.168	1	-9
663.507	1	-5
663.846	1	6
664.185	1	0
664.524	1	-4
664.863	1	4
665.202	1	-4
665.541	1	-6
665.879	1	3
666.218	1	-20
666.557	1	2
666.896	1	-1
667.235	1	0
667.574	1	7
667.913	1	-4
668.251	1	-4
668.590	1	-4
668.929	1	-4
669.268	1	-2
669.607	1	1
669.946	1	6
670.285	1	3
670.623	1	-3
670.962	1	2
671.301	1	-9
671.640	1	-15
671.979	1	5
672.317	1	1
672.656	1	0
672.995	1	-2
673.334	1	8
673.673	1	8
674.011	1	11
674.350	1	-10
674.689	1	3
675.028	1	1
675.367	1	-1
675.705	1	-8
676.044	1	-4
676.383	1	-3
676.722	1	3
677.060	1	3
677.399	1	-6
677.738	1	-7
678.077	1	4
678.416	1	4
678.754	1	3
679.093	1	-1
679.432	1	-6
679.771	1	-7
680.109	1	15
680.448	1	-2
680.787	1	2
681.125	1	11
681.464	1	-5
681.803	1	-15
682.142	1	17
682.480	1	-7
682.819	1	-4
683.158	1	-3
683.496	1	0
683.835	1	13
684.174	1	-3
684.512	1	5
684.851	1	1
685.190	1	9
685.529	1	-2
685.867	1	-1
686.206	1	2
686.545	1	7
686.883	1	-7
687.222	1	2
687.561	1	2
687.899	1	-2
688.238	1	0
688.577	1	-3
688.746	1	5