File: Analysis/GaN_68K_200ms/GaN_sample E_spot4_UVVIS_68 K_200um_200 ms 2x2mm1_125.txt
340.368	1	8
340.710	1	-5
341.052	1	1
341.394	1	-3
341.737	1	11
342.079	1	-9
342.421	1	-5
342.763	1	5
343.105	1	12
343.447	1	13
343.789	1	-3
344.131	1	6
344.473	1	6
344.815	1	11
345.157	1	8
345.499	1	7
345.841	1	8
346.183	1	3
346.526	1	13
346.868	1	10
347.210	1	8
347.552	1	9
347.894	1	8
348.236	1	9
348.578	1	14
348.920	1	15
349.262	1	5
349.604	1	18
349.946	1	14
350.288	1	4
350.630	1	8
350.972	1	1
351.314	1	4
351.656	1	3
351.998	1	1
352.340	1	5
352.682	1	9
353.024	1	6
353.366	1	13
353.708	1	16
354.050	1	18
354.392	1	20
354.734	1	12
355.076	1	10
355.418	1	7
355.760	1	16
356.102	1	15
356.444	1	23
356.785	1	29
357.127	1	13
357.469	1	16
357.811	1	38
358.153	1	28
358.495	1	36
358.837	1	26
359.179	1	31
359.521	1	35
359.863	1	33
360.205	1	40
360.547	1	44
360.889	1	56
361.231	1	63
361.572	1	68
361.914	1	66
362.256	1	90
362.598	1	107
362.940	1	112
363.282	1	124
363.624	1	139
363.966	1	157
364.308	1	183
364.649	1	219
364.991	1	233
365.333	1	266
365.675	1	278
366.017	1	288
366.359	1	299
366.701	1	313
367.042	1	333
367.384	1	321
367.726	1	304
368.068	1	307
368.410	1	281
368.752	1	255
369.093	1	242
369.435	1	238
369.777	1	225
370.119	1	205
370.461	1	195
370.803	1	178
371.144	1	166
371.486	1	160
371.828	1	141
372.170	1	147
372.512	1	114
372.853	1	142
373.195	1	121
373.537	1	123
373.879	1	123
374.220	1	113
374.562	1	109
374.904	1	108
375.246	1	102
375.588	1	88
375.929	1	88
376.271	1	79
376.613	1	87
376.955	1	75
377.296	1	84
377.638	1	76
377.980	1	85
378.321	1	80
378.663	1	69
379.005	1	83
379.347	1	68
379.688	1	64
380.030	1	78
380.372	1	69
380.714	1	93
381.055	1	99
381.397	1	83
381.739	1	132
382.080	1	127
382.422	1	151
382.764	1	156
383.105	1	186
383.447	1	207
383.789	1	239
384.130	1	251
384.472	1	286
384.814	1	311
385.156	1	355
385.497	1	381
385.839	1	385
386.180	1	410
386.522	1	445
386.864	1	436
387.205	1	434
387.547	1	448
387.889	1	431
388.230	1	426
388.572	1	426
388.914	1	425
389.255	1	425
389.597	1	409
389.939	1	412
390.280	1	417
390.622	1	397
390.963	1	398
391.305	1	402
391.647	1	379
391.988	1	387
392.330	1	367
392.671	1	371
393.013	1	351
393.355	1	360
393.696	1	351
394.038	1	338
394.379	1	337
394.721	1	330
395.062	1	333
395.404	1	355
395.746	1	337
396.087	1	377
396.429	1	372
396.770	1	389
397.112	1	386
397.453	1	389
397.795	1	405
398.136	1	395
398.478	1	403
398.819	1	400
399.161	1	398
399.503	1	388
399.844	1	354
400.186	1	377
400.527	1	357
400.869	1	332
401.210	1	309
401.552	1	324
401.893	1	309
402.235	1	297
402.576	1	283
402.918	1	273
403.259	1	255
403.601	1	263
403.942	1	276
404.284	1	270
404.625	1	252
404.967	1	261
405.308	1	259
405.649	1	244
405.991	1	259
406.332	1	244
406.674	1	256
407.015	1	238
407.357	1	237
407.698	1	223
408.040	1	231
408.381	1	230
408.722	1	232
409.064	1	230
409.405	1	232
409.747	1	215
410.088	1	212
410.430	1	224
410.771	1	204
411.112	1	215
411.454	1	213
411.795	1	202
412.137	1	204
412.478	1	180
412.819	1	186
413.161	1	184
413.502	1	171
413.844	1	173
414.185	1	170
414.526	1	162
414.868	1	170
415.209	1	151
415.550	1	139
415.892	1	136
416.233	1	137
416.575	1	142
416.916	1	134
417.257	1	157
417.599	1	132
417.940	1	134
418.281	1	131
418.623	1	126
418.964	1	130
419.305	1	129
419.647	1	137
419.988	1	122
420.329	1	134
420.671	1	133
421.012	1	130
421.353	1	141
421.695	1	119
422.036	1	112
422.377	1	115
422.718	1	108
423.060	1	97
423.401	1	107
423.742	1	86
424.084	1	101
424.425	1	95
424.766	1	98
425.107	1	89
425.449	1	100
425.790	1	91
426.131	1	87
426.472	1	86
426.814	1	102
427.155	1	91
427.496	1	86
427.837	1	72
428.179	1	73
428.520	1	75
428.861	1	74
429.202	1	81
429.544	1	77
429.885	1	72
430.226	1	82
430.567	1	84
430.909	1	63
431.250	1	63
431.591	1	71
431.932	1	72
432.273	1	52
432.615	1	71
432.956	1	63
433.297	1	78
433.638	1	64
433.979	1	63
434.320	1	52
434.662	1	55
435.003	1	66
435.344	1	63
435.685	1	63
436.026	1	49
436.368	1	56
436.709	1	45
437.050	1	58
437.391	1	54
437.732	1	49
438.073	1	59
438.414	1	41
438.756	1	49
439.097	1	49
439.438	1	57
439.779	1	44
440.120	1	48
440.461	1	43
440.802	1	50
441.143	1	56
441.485	1	46
441.826	1	33
442.167	1	41
442.508	1	36
442.849	1	51
443.190	1	27
443.531	1	36
443.872	1	33
444.213	1	37
444.554	1	39
444.895	1	30
445.237	1	29
445.578	1	51
445.919	1	37
446.260	1	44
446.601	1	34
446.942	1	35
447.283	1	36
447.624	1	47
447.965	1	22
448.306	1	46
448.647	1	51
448.988	1	34
449.329	1	45
449.670	1	43
450.011	1	45
450.352	1	39
450.693	1	31
451.034	1	35
451.375	1	41
451.716	1	37
452.057	1	33
452.398	1	29
452.739	1	21
453.080	1	31
453.421	1	26
453.762	1	26
454.103	1	29
454.444	1	36
454.785	1	15
455.126	1	21
455.467	1	34
455.808	1	25
456.149	1	23
456.490	1	28
456.831	1	34
457.172	1	24
457.513	1	29
457.854	1	18
458.195	1	22
458.536	1	29
458.877	1	16
459.218	1	21
459.559	1	31
459.899	1	39
460.240	1	29
460.581	1	35
460.922	1	25
461.263	1	25
461.604	1	25
461.945	1	24
462.286	1	22
462.627	1	24
462.968	1	18
463.309	1	21
463.649	1	28
463.990	1	21
464.331	1	21
464.672	1	17
465.013	1	11
465.354	1	29
465.695	1	21
466.036	1	24
466.376	1	18
466.717	1	22
467.058	1	43
467.399	1	22
467.740	1	20
468.081	1	27
468.422	1	20
468.762	1	17
469.103	1	24
469.444	1	23
469.785	1	25
470.126	1	29
470.467	1	17
470.807	1	18
471.148	1	19
471.489	1	16
471.830	1	37
472.171	1	21
472.511	1	34
472.852	1	15
473.193	1	8
473.534	1	19
473.875	1	16
474.215	1	19
474.556	1	20
474.897	1	18
475.238	1	30
475.578	1	22
475.919	1	25
476.260	1	34
476.601	1	25
476.942	1	16
477.282	1	13
477.623	1	23
477.964	1	29
478.305	1	24
478.645	1	13
478.986	1	14
479.327	1	16
479.667	1	16
480.008	1	23
480.349	1	26
480.690	1	29
481.030	1	9
481.371	1	16
481.712	1	28
482.053	1	32
482.393	1	21
482.734	1	21
483.075	1	27
483.415	1	23
483.756	1	33
484.097	1	15
484.437	1	8
484.778	1	24
485.119	1	30
485.459	1	30
485.800	1	23
486.141	1	21
486.481	1	28
486.822	1	31
487.163	1	36
487.503	1	27
487.844	1	25
488.185	1	20
488.525	1	28
488.866	1	35
489.207	1	51
489.547	1	40
489.888	1	27
490.228	1	31
490.569	1	39
490.910	1	36
491.250	1	49
491.591	1	31
491.932	1	44
492.272	1	51
492.613	1	46
492.953	1	49
493.294	1	52
493.635	1	45
493.975	1	44
494.316	1	60
494.656	1	41
494.997	1	47
495.337	1	54
495.678	1	51
496.019	1	54
496.359	1	56
496.700	1	59
497.040	1	59
497.381	1	37
497.721	1	50
498.062	1	53
498.403	1	61
498.743	1	58
499.084	1	59
499.424	1	68
499.765	1	64
500.105	1	73
500.446	1	71
500.786	1	72
501.127	1	73
501.467	1	61
501.808	1	59
502.148	1	79
502.489	1	81
502.829	1	77
503.170	1	73
503.510	1	80
503.851	1	71
504.191	1	83
504.532	1	72
504.872	1	76
505.213	1	83
505.553	1	91
505.894	1	86
506.234	1	85
506.575	1	93
506.915	1	97
507.256	1	89
507.596	1	97
507.936	1	104
508.277	1	92
508.617	1	104
508.958	1	106
509.298	1	98
509.639	1	108
509.979	1	102
510.319	1	109
510.660	1	114
511.000	1	112
511.341	1	101
511.681	1	105
512.022	1	115
512.362	1	109
512.702	1	106
513.043	1	118
513.383	1	98
513.724	1	123
514.064	1	127
514.404	1	110
514.745	1	138
515.085	1	112
515.425	1	125
515.766	1	135
516.106	1	122
516.447	1	131
516.787	1	120
517.127	1	134
517.468	1	124
517.808	1	142
518.148	1	137
518.489	1	137
518.829	1	125
519.169	1	141
519.510	1	135
519.850	1	142
520.190	1	135
520.531	1	155
520.871	1	137
521.211	1	154
521.552	1	162
521.892	1	140
522.232	1	139
522.573	1	149
522.913	1	148
523.253	1	149
523.593	1	150
523.934	1	154
524.274	1	148
524.614	1	150
524.955	1	155
525.295	1	140
525.635	1	144
525.975	1	143
526.316	1	152
526.656	1	167
526.996	1	170
527.337	1	149
527.677	1	160
528.017	1	165
528.357	1	165
528.698	1	162
529.038	1	167
529.378	1	170
529.718	1	156
530.058	1	171
530.399	1	170
530.739	1	157
531.079	1	182
531.419	1	184
531.760	1	183
532.100	1	184
532.440	1	180
532.780	1	164
533.120	1	159
533.461	1	168
533.801	1	171
534.141	1	176
534.481	1	157
534.821	1	178
535.162	1	178
535.502	1	189
535.842	1	175
536.182	1	153
536.522	1	167
536.862	1	159
537.203	1	187
537.543	1	168
537.883	1	175
538.223	1	146
538.563	1	165
538.903	1	160
539.243	1	149
539.584	1	157
539.924	1	150
540.264	1	157
540.604	1	136
540.944	1	151
541.284	1	141
541.624	1	154
541.964	1	151
542.305	1	132
542.645	1	150
542.985	1	152
543.325	1	142
543.665	1	147
544.005	1	140
544.345	1	133
544.685	1	145
545.025	1	142
545.365	1	134
545.705	1	139
546.045	1	140
546.386	1	133
546.726	1	144
547.066	1	134
547.406	1	147
547.746	1	133
548.086	1	141
548.426	1	139
548.766	1	138
549.106	1	145
549.446	1	140
549.786	1	134
550.126	1	139
550.466	1	136
550.806	1	142
551.146	1	121
551.486	1	140
551.826	1	140
552.166	1	132
552.506	1	126
552.846	1	146
553.186	1	136
553.526	1	125
553.866	1	132
554.206	1	117
554.546	1	108
554.886	1	125
555.226	1	120
555.566	1	116
555.906	1	121
556.246	1	123
556.586	1	130
556.926	1	119
557.266	1	125
557.606	1	116
557.946	1	117
558.286	1	113
558.626	1	103
558.966	1	109
559.306	1	104
559.646	1	106
559.986	1	101
560.325	1	102
560.665	1	104
561.005	1	110
561.345	1	108
561.685	1	100
562.025	1	98
562.365	1	101
562.705	1	107
563.045	1	103
563.385	1	92
563.725	1	93
564.064	1	99
564.404	1	84
564.744	1	100
565.084	1	88
565.424	1	97
565.764	1	99
566.104	1	86
566.444	1	96
566.783	1	87
567.123	1	105
567.463	1	79
567.803	1	73
568.143	1	82
568.483	1	77
568.823	1	91
569.162	1	87
569.502	1	77
569.842	1	88
570.182	1	79
570.522	1	91
570.862	1	95
571.201	1	84
571.541	1	68
571.881	1	78
572.221	1	81
572.561	1	65
572.900	1	80
573.240	1	58
573.580	1	76
573.920	1	62
574.260	1	64
574.599	1	66
574.939	1	68
575.279	1	76
575.619	1	64
575.959	1	68
576.298	1	60
576.638	1	66
576.978	1	71
577.318	1	71
577.657	1	49
577.997	1	51
578.337	1	58
578.677	1	57
579.016	1	72
579.356	1	60
579.696	1	65
580.036	1	57
580.375	1	60
580.715	1	66
581.055	1	67
581.394	1	50
581.734	1	68
582.074	1	47
582.414	1	66
582.753	1	59
583.093	1	55
583.433	1	50
583.772	1	60
584.112	1	59
584.452	1	56
584.791	1	46
585.131	1	57
585.471	1	54
585.811	1	55
586.150	1	65
586.490	1	42
586.830	1	42
587.169	1	54
587.509	1	62
587.849	1	59
588.188	1	47
588.528	1	55
588.867	1	58
589.207	1	43
589.547	1	39
589.886	1	35
590.226	1	55
590.566	1	48
590.905	1	48
591.245	1	39
591.585	1	49
591.924	1	40
592.264	1	41
592.603	1	35
592.943	1	32
593.283	1	55
593.622	1	47
593.962	1	48
594.301	1	53
594.641	1	34
594.981	1	36
595.320	1	39
595.660	1	31
595.999	1	37
596.339	1	50
596.678	1	32
597.018	1	41
597.358	1	32
597.697	1	33
598.037	1	38
598.376	1	45
598.716	1	33
599.055	1	32
599.395	1	35
599.734	1	37
600.074	1	36
600.413	1	41
600.753	1	39
601.092	1	15
601.432	1	33
601.771	1	47
602.111	1	25
602.451	1	29
602.790	1	32
603.130	1	41
603.469	1	33
603.809	1	32
604.148	1	28
604.487	1	40
604.827	1	19
605.166	1	18
605.506	1	34
605.845	1	33
606.185	1	37
606.524	1	22
606.864	1	38
607.203	1	46
607.543	1	22
607.882	1	25
608.222	1	38
608.561	1	30
608.901	1	40
609.240	1	39
609.579	1	29
609.919	1	28
610.258	1	44
610.598	1	32
610.937	1	14
611.277	1	40
611.616	1	12
611.955	1	26
612.295	1	31
612.634	1	34
612.974	1	28
613.313	1	30
613.652	1	27
613.992	1	34
614.331	1	23
614.671	1	16
615.010	1	11
615.349	1	23
615.689	1	28
616.028	1	27
616.368	1	17
616.707	1	24
617.046	1	26
617.386	1	16
617.725	1	19
618.064	1	22
618.404	1	24
618.743	1	21
619.082	1	26
619.422	1	20
619.761	1	20
620.100	1	31
620.440	1	31
620.779	1	14
621.118	1	24
621.458	1	27
621.797	1	17
622.136	1	25
622.476	1	30
622.815	1	20
623.154	1	25
623.494	1	25
623.833	1	19
624.172	1	30
624.511	1	22
624.851	1	7
625.190	1	17
625.529	1	22
625.869	1	21
626.208	1	11
626.547	1	22
626.886	1	20
627.226	1	14
627.565	1	34
627.904	1	18
628.243	1	19
628.583	1	17
628.922	1	19
629.261	1	26
629.600	1	27
629.940	1	28
630.279	1	7
630.618	1	16
630.957	1	11
631.297	1	9
631.636	1	18
631.975	1	11
632.314	1	18
632.653	1	7
632.993	1	25
633.332	1	32
633.671	1	21
634.010	1	13
634.349	1	18
634.689	1	24
635.028	1	23
635.367	1	12
635.706	1	14
636.045	1	23
636.384	1	19
636.724	1	20
637.063	1	23
637.402	1	17
637.741	1	22
638.080	1	26
638.419	1	23
638.759	1	14
639.098	1	21
639.437	1	7
639.776	1	20
640.115	1	15
640.454	1	28
640.793	1	20
641.132	1	26
641.472	1	3
641.811	1	16
642.150	1	14
642.489	1	14
642.828	1	17
643.167	1	23
643.506	1	9
643.845	1	18
644.184	1	23
644.524	1	3
644.863	1	12
645.202	1	14
645.541	1	12
645.880	1	24
646.219	1	11
646.558	1	8
646.897	1	9
647.236	1	18
647.575	1	17
647.914	1	9
648.253	1	17
648.592	1	12
648.931	1	23
649.270	1	15
649.610	1	18
649.949	1	12
650.288	1	11
650.627	1	10
650.966	1	5
651.305	1	9
651.644	1	10
651.983	1	23
652.322	1	13
652.661	1	24
653.000	1	10
653.339	1	15
653.678	1	16
654.017	1	11
654.356	1	13
654.695	1	16
655.034	1	14
655.373	1	10
655.712	1	2
656.051	1	15
656.390	1	8
656.729	1	18
657.068	1	15
657.406	1	13
657.745	1	4
658.084	1	11
658.423	1	5
658.762	1	13
659.101	1	12
659.440	1	22
659.779	1	11
660.118	1	14
660.457	1	14
660.796	1	3
661.135	1	19
661.474	1	12
661.813	1	10
662.152	1	13
662.491	1	12
662.829	1	1
663.168	1	5
663.507	1	13
663.846	1	15
664.185	1	4
664.524	1	2
664.863	1	7
665.202	1	10
665.541	1	1
665.879	1	10
666.218	1	8
666.557	1	21
666.896	1	12
667.235	1	17
667.574	1	12
667.913	1	7
668.251	1	8
668.590	1	4
668.929	1	13
669.268	1	11
669.607	1	2
669.946	1	19
670.285	1	12
670.623	1	18
670.962	1	14
671.301	1	7
671.640	1	-1
671.979	1	26
672.317	1	5
672.656	1	16
672.995	1	22
673.334	1	15
673.673	1	21
674.011	1	16
674.350	1	8
674.689	1	13
675.028	1	-1
675.367	1	13
675.705	1	11
676.044	1	5
676.383	1	7
676.722	1	10
677.060	1	9
677.399	1	6
677.738	1	10
678.077	1	20
678.416	1	11
678.754	1	8
679.093	1	16
679.432	1	5
679.771	1	2
680.109	1	18
680.448	1	12
680.787	1	15
681.125	1	11
681.464	1	14
681.803	1	3
682.142	1	19
682.480	1	14
682.819	1	16
683.158	1	9
683.496	1	9
683.835	1	15
684.174	1	12
684.512	1	13
684.851	1	10
685.190	1	20
685.529	1	3
685.867	1	15
686.206	1	12
686.545	1	33
686.883	1	5
687.222	1	21
687.561	1	20
687.899	1	11
688.238	1	23
688.577	1	15
688.746	1	17