File: Analysis/GaN_68K_200ms/GaN_sample E_spot4_UVVIS_68 K_200um_200 ms 2x2mm1_288.txt
340.368	1	3
340.710	1	-7
341.052	1	-2
341.394	1	3
341.737	1	5
342.079	1	8
342.421	1	1
342.763	1	-1
343.105	1	13
343.447	1	-4
343.789	1	3
344.131	1	-7
344.473	1	2
344.815	1	-1
345.157	1	5
345.499	1	5
345.841	1	5
346.183	1	0
346.526	1	5
346.868	1	7
347.210	1	3
347.552	1	3
347.894	1	-5
348.236	1	-6
348.578	1	10
348.920	1	13
349.262	1	-4
349.604	1	11
349.946	1	2
350.288	1	2
350.630	1	-5
350.972	1	-5
351.314	1	2
351.656	1	-2
351.998	1	4
352.340	1	7
352.682	1	1
353.024	1	-3
353.366	1	2
353.708	1	10
354.050	1	9
354.392	1	3
354.734	1	0
355.076	1	0
355.418	1	0
355.760	1	6
356.102	1	0
356.444	1	-2
356.785	1	7
357.127	1	4
357.469	1	3
357.811	1	8
358.153	1	7
358.495	1	5
358.837	1	7
359.179	1	5
359.521	1	0
359.863	1	-3
360.205	1	3
360.547	1	-1
360.889	1	8
361.231	1	9
361.572	1	3
361.914	1	1
362.256	1	2
362.598	1	4
362.940	1	6
363.282	1	4
363.624	1	6
363.966	1	6
364.308	1	3
364.649	1	16
364.991	1	6
365.333	1	8
365.675	1	6
366.017	1	6
366.359	1	10
366.701	1	7
367.042	1	14
367.384	1	12
367.726	1	16
368.068	1	15
368.410	1	12
368.752	1	6
369.093	1	8
369.435	1	3
369.777	1	3
370.119	1	6
370.461	1	5
370.803	1	-1
371.144	1	11
371.486	1	14
371.828	1	7
372.170	1	19
372.512	1	-2
372.853	1	9
373.195	1	4
373.537	1	17
373.879	1	14
374.220	1	2
374.562	1	10
374.904	1	4
375.246	1	7
375.588	1	6
375.929	1	0
376.271	1	-2
376.613	1	10
376.955	1	-7
377.296	1	10
377.638	1	5
377.980	1	10
378.321	1	8
378.663	1	8
379.005	1	9
379.347	1	5
379.688	1	-2
380.030	1	-2
380.372	1	10
380.714	1	9
381.055	1	11
381.397	1	5
381.739	1	7
382.080	1	1
382.422	1	12
382.764	1	0
383.105	1	6
383.447	1	15
383.789	1	9
384.130	1	-4
384.472	1	-2
384.814	1	7
385.156	1	18
385.497	1	20
385.839	1	15
386.180	1	11
386.522	1	13
386.864	1	5
387.205	1	7
387.547	1	-4
387.889	1	24
388.230	1	16
388.572	1	5
388.914	1	10
389.255	1	14
389.597	1	6
389.939	1	14
390.280	1	12
390.622	1	10
390.963	1	9
391.305	1	22
391.647	1	9
391.988	1	-4
392.330	1	23
392.671	1	13
393.013	1	19
393.355	1	16
393.696	1	18
394.038	1	4
394.379	1	0
394.721	1	5
395.062	1	1
395.404	1	11
395.746	1	3
396.087	1	12
396.429	1	21
396.770	1	15
397.112	1	4
397.453	1	-3
397.795	1	16
398.136	1	11
398.478	1	10
398.819	1	19
399.161	1	18
399.503	1	4
399.844	1	5
400.186	1	16
400.527	1	13
400.869	1	18
401.210	1	8
401.552	1	20
401.893	1	20
402.235	1	12
402.576	1	9
402.918	1	10
403.259	1	-5
403.601	1	-4
403.942	1	18
404.284	1	11
404.625	1	8
404.967	1	0
405.308	1	7
405.649	1	6
405.991	1	15
406.332	1	-2
406.674	1	4
407.015	1	-4
407.357	1	6
407.698	1	1
408.040	1	4
408.381	1	10
408.722	1	10
409.064	1	10
409.405	1	11
409.747	1	-6
410.088	1	6
410.430	1	16
410.771	1	4
411.112	1	17
411.454	1	16
411.795	1	15
412.137	1	11
412.478	1	14
412.819	1	5
413.161	1	-2
413.502	1	4
413.844	1	3
414.185	1	10
414.526	1	7
414.868	1	12
415.209	1	6
415.550	1	-4
415.892	1	-6
416.233	1	3
416.575	1	-1
416.916	1	0
417.257	1	-1
417.599	1	10
417.940	1	6
418.281	1	13
418.623	1	4
418.964	1	2
419.305	1	10
419.647	1	8
419.988	1	4
420.329	1	2
420.671	1	10
421.012	1	2
421.353	1	9
421.695	1	11
422.036	1	0
422.377	1	14
422.718	1	6
423.060	1	1
423.401	1	6
423.742	1	4
424.084	1	10
424.425	1	5
424.766	1	1
425.107	1	1
425.449	1	8
425.790	1	8
426.131	1	7
426.472	1	-5
426.814	1	12
427.155	1	8
427.496	1	9
427.837	1	6
428.179	1	-2
428.520	1	-3
428.861	1	0
429.202	1	14
429.544	1	3
429.885	1	13
430.226	1	1
430.567	1	6
430.909	1	-8
431.250	1	-5
431.591	1	9
431.932	1	7
432.273	1	3
432.615	1	4
432.956	1	8
433.297	1	18
433.638	1	4
433.979	1	-1
434.320	1	-5
434.662	1	2
435.003	1	14
435.344	1	2
435.685	1	12
436.026	1	5
436.368	1	5
436.709	1	-4
437.050	1	13
437.391	1	7
437.732	1	5
438.073	1	13
438.414	1	0
438.756	1	12
439.097	1	20
439.438	1	4
439.779	1	1
440.120	1	0
440.461	1	-5
440.802	1	6
441.143	1	2
441.485	1	2
441.826	1	-11
442.167	1	9
442.508	1	7
442.849	1	3
443.190	1	-1
443.531	1	5
443.872	1	6
444.213	1	-5
444.554	1	0
444.895	1	3
445.237	1	-4
445.578	1	18
445.919	1	-6
446.260	1	11
446.601	1	5
446.942	1	4
447.283	1	-6
447.624	1	5
447.965	1	1
448.306	1	4
448.647	1	13
448.988	1	-7
449.329	1	1
449.670	1	4
450.011	1	1
450.352	1	12
450.693	1	-1
451.034	1	10
451.375	1	6
451.716	1	2
452.057	1	16
452.398	1	0
452.739	1	4
453.080	1	13
453.421	1	-2
453.762	1	6
454.103	1	14
454.444	1	12
454.785	1	-2
455.126	1	-1
455.467	1	8
455.808	1	5
456.149	1	-2
456.490	1	2
456.831	1	22
457.172	1	4
457.513	1	6
457.854	1	2
458.195	1	-4
458.536	1	8
458.877	1	5
459.218	1	2
459.559	1	3
459.899	1	17
460.240	1	5
460.581	1	12
460.922	1	5
461.263	1	9
461.604	1	13
461.945	1	9
462.286	1	6
462.627	1	3
462.968	1	0
463.309	1	2
463.649	1	5
463.990	1	-3
464.331	1	2
464.672	1	3
465.013	1	-7
465.354	1	13
465.695	1	10
466.036	1	5
466.376	1	4
466.717	1	-2
467.058	1	17
467.399	1	5
467.740	1	6
468.081	1	3
468.422	1	7
468.762	1	-15
469.103	1	1
469.444	1	3
469.785	1	2
470.126	1	1
470.467	1	0
470.807	1	-3
471.148	1	-3
471.489	1	3
471.830	1	17
472.171	1	4
472.511	1	14
472.852	1	4
473.193	1	2
473.534	1	-1
473.875	1	4
474.215	1	0
474.556	1	-12
474.897	1	1
475.238	1	4
475.578	1	4
475.919	1	10
476.260	1	-5
476.601	1	-4
476.942	1	9
477.282	1	-12
477.623	1	7
477.964	1	12
478.305	1	5
478.645	1	-5
478.986	1	-2
479.327	1	-2
479.667	1	3
480.008	1	13
480.349	1	8
480.690	1	-1
481.030	1	3
481.371	1	4
481.712	1	-6
482.053	1	10
482.393	1	-3
482.734	1	6
483.075	1	2
483.415	1	10
483.756	1	13
484.097	1	4
484.437	1	-5
484.778	1	3
485.119	1	8
485.459	1	5
485.800	1	4
486.141	1	-4
486.481	1	11
486.822	1	12
487.163	1	-7
487.503	1	0
487.844	1	10
488.185	1	1
488.525	1	3
488.866	1	9
489.207	1	21
489.547	1	-4
489.888	1	2
490.228	1	-7
490.569	1	11
490.910	1	6
491.250	1	4
491.591	1	-1
491.932	1	5
492.272	1	7
492.613	1	5
492.953	1	9
493.294	1	14
493.635	1	-1
493.975	1	2
494.316	1	4
494.656	1	3
494.997	1	0
495.337	1	12
495.678	1	12
496.019	1	2
496.359	1	4
496.700	1	-5
497.040	1	0
497.381	1	-5
497.721	1	5
498.062	1	4
498.403	1	-1
498.743	1	0
499.084	1	-10
499.424	1	14
499.765	1	10
500.105	1	3
500.446	1	5
500.786	1	8
501.127	1	22
501.467	1	8
501.808	1	-5
502.148	1	10
502.489	1	8
502.829	1	17
503.170	1	11
503.510	1	8
503.851	1	-6
504.191	1	1
504.532	1	-1
504.872	1	3
505.213	1	-4
505.553	1	12
505.894	1	10
506.234	1	11
506.575	1	3
506.915	1	4
507.256	1	4
507.596	1	11
507.936	1	7
508.277	1	1
508.617	1	9
508.958	1	16
509.298	1	15
509.639	1	9
509.979	1	2
510.319	1	7
510.660	1	10
511.000	1	8
511.341	1	-2
511.681	1	8
512.022	1	-8
512.362	1	14
512.702	1	-4
513.043	1	9
513.383	1	-3
513.724	1	10
514.064	1	2
514.404	1	7
514.745	1	9
515.085	1	9
515.425	1	8
515.766	1	8
516.106	1	13
516.447	1	10
516.787	1	6
517.127	1	7
517.468	1	0
517.808	1	2
518.148	1	10
518.489	1	5
518.829	1	0
519.169	1	18
519.510	1	7
519.850	1	0
520.190	1	-1
520.531	1	4
520.871	1	2
521.211	1	11
521.552	1	7
521.892	1	-4
522.232	1	-2
522.573	1	12
522.913	1	2
523.253	1	2
523.593	1	-9
523.934	1	13
524.274	1	-6
524.614	1	5
524.955	1	7
525.295	1	6
525.635	1	13
525.975	1	0
526.316	1	0
526.656	1	24
526.996	1	13
527.337	1	8
527.677	1	14
528.017	1	1
528.357	1	9
528.698	1	7
529.038	1	16
529.378	1	5
529.718	1	8
530.058	1	9
530.399	1	12
530.739	1	6
531.079	1	18
531.419	1	16
531.760	1	12
532.100	1	15
532.440	1	13
532.780	1	8
533.120	1	1
533.461	1	21
533.801	1	12
534.141	1	6
534.481	1	2
534.821	1	9
535.162	1	7
535.502	1	9
535.842	1	4
536.182	1	-1
536.522	1	9
536.862	1	2
537.203	1	11
537.543	1	13
537.883	1	14
538.223	1	8
538.563	1	5
538.903	1	2
539.243	1	4
539.584	1	6
539.924	1	7
540.264	1	6
540.604	1	6
540.944	1	0
541.284	1	5
541.624	1	12
541.964	1	3
542.305	1	0
542.645	1	4
542.985	1	3
543.325	1	7
543.665	1	17
544.005	1	0
544.345	1	2
544.685	1	11
545.025	1	1
545.365	1	8
545.705	1	11
546.045	1	7
546.386	1	9
546.726	1	5
547.066	1	-4
547.406	1	15
547.746	1	16
548.086	1	20
548.426	1	3
548.766	1	1
549.106	1	15
549.446	1	7
549.786	1	7
550.126	1	3
550.466	1	-6
550.806	1	15
551.146	1	4
551.486	1	13
551.826	1	13
552.166	1	5
552.506	1	1
552.846	1	10
553.186	1	16
553.526	1	-3
553.866	1	5
554.206	1	11
554.546	1	-11
554.886	1	8
555.226	1	-4
555.566	1	9
555.906	1	6
556.246	1	6
556.586	1	9
556.926	1	3
557.266	1	7
557.606	1	-9
557.946	1	8
558.286	1	9
558.626	1	7
558.966	1	7
559.306	1	-9
559.646	1	7
559.986	1	11
560.325	1	-5
560.665	1	7
561.005	1	5
561.345	1	9
561.685	1	2
562.025	1	3
562.365	1	10
562.705	1	16
563.045	1	4
563.385	1	8
563.725	1	1
564.064	1	13
564.404	1	3
564.744	1	7
565.084	1	-6
565.424	1	11
565.764	1	10
566.104	1	-3
566.444	1	6
566.783	1	-2
567.123	1	14
567.463	1	11
567.803	1	0
568.143	1	4
568.483	1	6
568.823	1	5
569.162	1	9
569.502	1	0
569.842	1	3
570.182	1	0
570.522	1	8
570.862	1	4
571.201	1	6
571.541	1	-5
571.881	1	7
572.221	1	3
572.561	1	-4
572.900	1	8
573.240	1	-2
573.580	1	7
573.920	1	5
574.260	1	-9
574.599	1	-1
574.939	1	4
575.279	1	2
575.619	1	10
575.959	1	5
576.298	1	-2
576.638	1	9
576.978	1	2
577.318	1	4
577.657	1	-16
577.997	1	-4
578.337	1	3
578.677	1	-4
579.016	1	8
579.356	1	2
579.696	1	10
580.036	1	1
580.375	1	5
580.715	1	9
581.055	1	-1
581.394	1	0
581.734	1	9
582.074	1	3
582.414	1	4
582.753	1	14
583.093	1	-2
583.433	1	2
583.772	1	4
584.112	1	4
584.452	1	9
584.791	1	4
585.131	1	-4
585.471	1	6
585.811	1	3
586.150	1	11
586.490	1	2
586.830	1	-4
587.169	1	-2
587.509	1	5
587.849	1	3
588.188	1	1
588.528	1	8
588.867	1	2
589.207	1	-2
589.547	1	-8
589.886	1	-2
590.226	1	7
590.566	1	2
590.905	1	4
591.245	1	7
591.585	1	-3
591.924	1	4
592.264	1	15
592.603	1	-8
592.943	1	-2
593.283	1	4
593.622	1	-1
593.962	1	11
594.301	1	18
594.641	1	-11
594.981	1	3
595.320	1	3
595.660	1	-3
595.999	1	3
596.339	1	6
596.678	1	-1
597.018	1	3
597.358	1	13
597.697	1	-6
598.037	1	8
598.376	1	18
598.716	1	0
599.055	1	4
599.395	1	11
599.734	1	5
600.074	1	-1
600.413	1	-4
600.753	1	0
601.092	1	-7
601.432	1	2
601.771	1	10
602.111	1	-9
602.451	1	4
602.790	1	4
603.130	1	9
603.469	1	3
603.809	1	9
604.148	1	6
604.487	1	6
604.827	1	-17
605.166	1	5
605.506	1	6
605.845	1	5
606.185	1	5
606.524	1	0
606.864	1	-4
607.203	1	9
607.543	1	-9
607.882	1	-1
608.222	1	0
608.561	1	11
608.901	1	11
609.240	1	-3
609.579	1	1
609.919	1	5
610.258	1	10
610.598	1	10
610.937	1	-4
611.277	1	10
611.616	1	-17
611.955	1	10
612.295	1	-2
612.634	1	0
612.974	1	3
613.313	1	10
613.652	1	-3
613.992	1	-2
614.331	1	3
614.671	1	10
615.010	1	-2
615.349	1	4
615.689	1	4
616.028	1	0
616.368	1	1
616.707	1	-3
617.046	1	7
617.386	1	10
617.725	1	7
618.064	1	3
618.404	1	1
618.743	1	-1
619.082	1	1
619.422	1	4
619.761	1	4
620.100	1	0
620.440	1	2
620.779	1	3
621.118	1	3
621.458	1	-2
621.797	1	3
622.136	1	-4
622.476	1	9
622.815	1	-2
623.154	1	3
623.494	1	-4
623.833	1	5
624.172	1	7
624.511	1	6
624.851	1	-3
625.190	1	6
625.529	1	10
625.869	1	7
626.208	1	-2
626.547	1	6
626.886	1	-1
627.226	1	2
627.565	1	5
627.904	1	-3
628.243	1	-6
628.583	1	-3
628.922	1	3
629.261	1	15
629.600	1	10
629.940	1	10
630.279	1	0
630.618	1	-2
630.957	1	-5
631.297	1	2
631.636	1	8
631.975	1	13
632.314	1	12
632.653	1	-6
632.993	1	4
633.332	1	6
633.671	1	4
634.010	1	-11
634.349	1	3
634.689	1	9
635.028	1	6
635.367	1	6
635.706	1	-5
636.045	1	7
636.384	1	11
636.724	1	11
637.063	1	-4
637.402	1	17
637.741	1	5
638.080	1	0
638.419	1	6
638.759	1	1
639.098	1	1
639.437	1	-10
639.776	1	-1
640.115	1	-3
640.454	1	17
640.793	1	9
641.132	1	12
641.472	1	4
641.811	1	3
642.150	1	-4
642.489	1	-6
642.828	1	3
643.167	1	10
643.506	1	-14
643.845	1	6
644.184	1	5
644.524	1	-6
644.863	1	-13
645.202	1	-3
645.541	1	-15
645.880	1	7
646.219	1	3
646.558	1	3
646.897	1	0
647.236	1	8
647.575	1	6
647.914	1	-10
648.253	1	7
648.592	1	3
648.931	1	9
649.270	1	11
649.610	1	14
649.949	1	-5
650.288	1	6
650.627	1	1
650.966	1	3
651.305	1	-1
651.644	1	2
651.983	1	4
652.322	1	5
652.661	1	1
653.000	1	0
653.339	1	6
653.678	1	-4
654.017	1	0
654.356	1	3
654.695	1	2
655.034	1	12
655.373	1	6
655.712	1	-7
656.051	1	16
656.390	1	3
656.729	1	7
657.068	1	-4
657.406	1	-3
657.745	1	-1
658.084	1	12
658.423	1	2
658.762	1	-14
659.101	1	-5
659.440	1	12
659.779	1	-2
660.118	1	1
660.457	1	5
660.796	1	-6
661.135	1	3
661.474	1	-7
661.813	1	8
662.152	1	4
662.491	1	-4
662.829	1	3
663.168	1	7
663.507	1	3
663.846	1	0
664.185	1	6
664.524	1	-4
664.863	1	11
665.202	1	-5
665.541	1	-7
665.879	1	-6
666.218	1	-1
666.557	1	11
666.896	1	-1
667.235	1	11
667.574	1	1
667.913	1	6
668.251	1	1
668.590	1	2
668.929	1	10
669.268	1	7
669.607	1	-6
669.946	1	13
670.285	1	5
670.623	1	14
670.962	1	-4
671.301	1	2
671.640	1	-7
671.979	1	14
672.317	1	-5
672.656	1	6
672.995	1	-2
673.334	1	14
673.673	1	20
674.011	1	6
674.350	1	4
674.689	1	4
675.028	1	9
675.367	1	8
675.705	1	-11
676.044	1	1
676.383	1	1
676.722	1	0
677.060	1	1
677.399	1	6
677.738	1	-6
678.077	1	8
678.416	1	3
678.754	1	-3
679.093	1	6
679.432	1	-2
679.771	1	-10
680.109	1	1
680.448	1	8
680.787	1	-2
681.125	1	2
681.464	1	-4
681.803	1	-10
682.142	1	12
682.480	1	-2
682.819	1	7
683.158	1	0
683.496	1	0
683.835	1	4
684.174	1	7
684.512	1	-1
684.851	1	-6
685.190	1	4
685.529	1	2
685.867	1	-4
686.206	1	3
686.545	1	11
686.883	1	-8
687.222	1	-1
687.561	1	5
687.899	1	3
688.238	1	-1
688.577	1	-9
688.746	1	1