File: Analysis/GaN_68K_200ms/GaN_sample E_spot4_UVVIS_68 K_200um_200 ms 2x2mm1_436.txt
340.368	1	4
340.710	1	-11
341.052	1	7
341.394	1	-6
341.737	1	16
342.079	1	-7
342.421	1	3
342.763	1	0
343.105	1	7
343.447	1	5
343.789	1	-6
344.131	1	0
344.473	1	-8
344.815	1	1
345.157	1	3
345.499	1	2
345.841	1	2
346.183	1	-1
346.526	1	8
346.868	1	1
347.210	1	-1
347.552	1	8
347.894	1	-3
348.236	1	0
348.578	1	5
348.920	1	4
349.262	1	-4
349.604	1	3
349.946	1	-1
350.288	1	2
350.630	1	1
350.972	1	0
351.314	1	-4
351.656	1	-3
351.998	1	-4
352.340	1	-1
352.682	1	-1
353.024	1	-18
353.366	1	8
353.708	1	2
354.050	1	7
354.392	1	8
354.734	1	0
355.076	1	0
355.418	1	-2
355.760	1	10
356.102	1	-2
356.444	1	9
356.785	1	14
357.127	1	7
357.469	1	-8
357.811	1	11
358.153	1	8
358.495	1	8
358.837	1	-2
359.179	1	7
359.521	1	-3
359.863	1	-5
360.205	1	-4
360.547	1	-3
360.889	1	2
361.231	1	2
361.572	1	1
361.914	1	-6
362.256	1	5
362.598	1	1
362.940	1	-7
363.282	1	5
363.624	1	-2
363.966	1	10
364.308	1	-6
364.649	1	-1
364.991	1	17
365.333	1	13
365.675	1	8
366.017	1	2
366.359	1	5
366.701	1	-2
367.042	1	5
367.384	1	7
367.726	1	7
368.068	1	0
368.410	1	3
368.752	1	-2
369.093	1	2
369.435	1	7
369.777	1	9
370.119	1	9
370.461	1	5
370.803	1	-2
371.144	1	9
371.486	1	12
371.828	1	13
372.170	1	4
372.512	1	-1
372.853	1	0
373.195	1	-11
373.537	1	5
373.879	1	15
374.220	1	12
374.562	1	-2
374.904	1	11
375.246	1	-1
375.588	1	1
375.929	1	-9
376.271	1	1
376.613	1	4
376.955	1	-6
377.296	1	3
377.638	1	-4
377.980	1	3
378.321	1	5
378.663	1	-4
379.005	1	10
379.347	1	8
379.688	1	2
380.030	1	-5
380.372	1	5
380.714	1	-1
381.055	1	-3
381.397	1	9
381.739	1	14
382.080	1	-11
382.422	1	5
382.764	1	-6
383.105	1	3
383.447	1	8
383.789	1	2
384.130	1	-1
384.472	1	-8
384.814	1	4
385.156	1	14
385.497	1	8
385.839	1	4
386.180	1	2
386.522	1	8
386.864	1	-6
387.205	1	6
387.547	1	6
387.889	1	9
388.230	1	7
388.572	1	5
388.914	1	13
389.255	1	20
389.597	1	-3
389.939	1	4
390.280	1	13
390.622	1	2
390.963	1	11
391.305	1	10
391.647	1	7
391.988	1	3
392.330	1	8
392.671	1	12
393.013	1	9
393.355	1	17
393.696	1	3
394.038	1	8
394.379	1	-3
394.721	1	12
395.062	1	-2
395.404	1	6
395.746	1	1
396.087	1	8
396.429	1	4
396.770	1	12
397.112	1	3
397.453	1	3
397.795	1	6
398.136	1	5
398.478	1	8
398.819	1	9
399.161	1	5
399.503	1	10
399.844	1	9
400.186	1	11
400.527	1	10
400.869	1	15
401.210	1	2
401.552	1	19
401.893	1	8
402.235	1	11
402.576	1	20
402.918	1	1
403.259	1	-1
403.601	1	1
403.942	1	8
404.284	1	1
404.625	1	15
404.967	1	6
405.308	1	6
405.649	1	1
405.991	1	14
406.332	1	1
406.674	1	9
407.015	1	-12
407.357	1	2
407.698	1	-2
408.040	1	-7
408.381	1	1
408.722	1	-8
409.064	1	8
409.405	1	4
409.747	1	-5
410.088	1	5
410.430	1	3
410.771	1	9
411.112	1	2
411.454	1	15
411.795	1	13
412.137	1	23
412.478	1	3
412.819	1	3
413.161	1	-4
413.502	1	0
413.844	1	2
414.185	1	7
414.526	1	2
414.868	1	13
415.209	1	-1
415.550	1	4
415.892	1	3
416.233	1	0
416.575	1	0
416.916	1	0
417.257	1	11
417.599	1	9
417.940	1	4
418.281	1	0
418.623	1	-1
418.964	1	-1
419.305	1	3
419.647	1	5
419.988	1	-4
420.329	1	3
420.671	1	-1
421.012	1	0
421.353	1	8
421.695	1	5
422.036	1	-6
422.377	1	5
422.718	1	2
423.060	1	-3
423.401	1	2
423.742	1	6
424.084	1	-1
424.425	1	7
424.766	1	2
425.107	1	-1
425.449	1	3
425.790	1	3
426.131	1	0
426.472	1	-6
426.814	1	7
427.155	1	3
427.496	1	0
427.837	1	-5
428.179	1	-3
428.520	1	-2
428.861	1	-2
429.202	1	12
429.544	1	3
429.885	1	-2
430.226	1	-6
430.567	1	5
430.909	1	3
431.250	1	-13
431.591	1	8
431.932	1	1
432.273	1	-8
432.615	1	9
432.956	1	-9
433.297	1	8
433.638	1	2
433.979	1	-7
434.320	1	6
434.662	1	-7
435.003	1	10
435.344	1	4
435.685	1	10
436.026	1	6
436.368	1	-3
436.709	1	3
437.050	1	0
437.391	1	5
437.732	1	0
438.073	1	5
438.414	1	3
438.756	1	-7
439.097	1	11
439.438	1	9
439.779	1	3
440.120	1	0
440.461	1	3
440.802	1	1
441.143	1	10
441.485	1	-4
441.826	1	-8
442.167	1	0
442.508	1	5
442.849	1	6
443.190	1	-9
443.531	1	-2
443.872	1	-3
444.213	1	-8
444.554	1	-4
444.895	1	5
445.237	1	-11
445.578	1	10
445.919	1	9
446.260	1	1
446.601	1	-7
446.942	1	8
447.283	1	3
447.624	1	3
447.965	1	2
448.306	1	10
448.647	1	11
448.988	1	-10
449.329	1	6
449.670	1	5
450.011	1	1
450.352	1	13
450.693	1	0
451.034	1	6
451.375	1	11
451.716	1	9
452.057	1	9
452.398	1	-9
452.739	1	-2
453.080	1	15
453.421	1	0
453.762	1	11
454.103	1	2
454.444	1	23
454.785	1	-3
455.126	1	-4
455.467	1	2
455.808	1	1
456.149	1	-8
456.490	1	8
456.831	1	9
457.172	1	-1
457.513	1	11
457.854	1	-1
458.195	1	7
458.536	1	15
458.877	1	-1
459.218	1	8
459.559	1	1
459.899	1	14
460.240	1	2
460.581	1	9
460.922	1	6
461.263	1	10
461.604	1	-1
461.945	1	6
462.286	1	9
462.627	1	0
462.968	1	2
463.309	1	10
463.649	1	4
463.990	1	-1
464.331	1	7
464.672	1	-4
465.013	1	-13
465.354	1	15
465.695	1	12
466.036	1	6
466.376	1	1
466.717	1	-1
467.058	1	10
467.399	1	7
467.740	1	5
468.081	1	7
468.422	1	7
468.762	1	-10
469.103	1	-5
469.444	1	-1
469.785	1	3
470.126	1	7
470.467	1	-6
470.807	1	0
471.148	1	-4
471.489	1	2
471.830	1	15
472.171	1	3
472.511	1	11
472.852	1	-3
473.193	1	-3
473.534	1	3
473.875	1	6
474.215	1	-7
474.556	1	-4
474.897	1	-4
475.238	1	-6
475.578	1	-2
475.919	1	0
476.260	1	1
476.601	1	-2
476.942	1	-4
477.282	1	-4
477.623	1	9
477.964	1	3
478.305	1	3
478.645	1	-4
478.986	1	3
479.327	1	-6
479.667	1	-7
480.008	1	6
480.349	1	3
480.690	1	0
481.030	1	-2
481.371	1	3
481.712	1	2
482.053	1	4
482.393	1	-10
482.734	1	2
483.075	1	8
483.415	1	-1
483.756	1	9
484.097	1	1
484.437	1	-7
484.778	1	-1
485.119	1	5
485.459	1	3
485.800	1	0
486.141	1	-7
486.481	1	8
486.822	1	2
487.163	1	-3
487.503	1	-12
487.844	1	4
488.185	1	-10
488.525	1	-1
488.866	1	8
489.207	1	7
489.547	1	-10
489.888	1	-4
490.228	1	-5
490.569	1	5
490.910	1	-2
491.250	1	1
491.591	1	-1
491.932	1	16
492.272	1	2
492.613	1	1
492.953	1	9
493.294	1	4
493.635	1	4
493.975	1	-2
494.316	1	9
494.656	1	4
494.997	1	-5
495.337	1	10
495.678	1	1
496.019	1	1
496.359	1	4
496.700	1	1
497.040	1	3
497.381	1	-10
497.721	1	4
498.062	1	-4
498.403	1	11
498.743	1	-4
499.084	1	-11
499.424	1	14
499.765	1	8
500.105	1	10
500.446	1	8
500.786	1	-2
501.127	1	15
501.467	1	8
501.808	1	-5
502.148	1	-1
502.489	1	-1
502.829	1	2
503.170	1	-2
503.510	1	5
503.851	1	-4
504.191	1	3
504.532	1	0
504.872	1	-8
505.213	1	1
505.553	1	11
505.894	1	11
506.234	1	16
506.575	1	-2
506.915	1	7
507.256	1	-6
507.596	1	5
507.936	1	1
508.277	1	4
508.617	1	15
508.958	1	15
509.298	1	19
509.639	1	6
509.979	1	-3
510.319	1	0
510.660	1	2
511.000	1	7
511.341	1	-1
511.681	1	0
512.022	1	-9
512.362	1	6
512.702	1	-9
513.043	1	-6
513.383	1	-1
513.724	1	9
514.064	1	1
514.404	1	-1
514.745	1	1
515.085	1	-3
515.425	1	0
515.766	1	-5
516.106	1	-6
516.447	1	13
516.787	1	3
517.127	1	-5
517.468	1	10
517.808	1	0
518.148	1	7
518.489	1	-3
518.829	1	-9
519.169	1	8
519.510	1	6
519.850	1	2
520.190	1	0
520.531	1	2
520.871	1	-8
521.211	1	1
521.552	1	7
521.892	1	-2
522.232	1	-4
522.573	1	2
522.913	1	0
523.253	1	-7
523.593	1	-9
523.934	1	2
524.274	1	-10
524.614	1	-5
524.955	1	1
525.295	1	-1
525.635	1	18
525.975	1	-7
526.316	1	-1
526.656	1	8
526.996	1	8
527.337	1	3
527.677	1	14
528.017	1	-8
528.357	1	1
528.698	1	-3
529.038	1	1
529.378	1	8
529.718	1	5
530.058	1	-3
530.399	1	7
530.739	1	-1
531.079	1	12
531.419	1	12
531.760	1	9
532.100	1	6
532.440	1	2
532.780	1	6
533.120	1	0
533.461	1	20
533.801	1	0
534.141	1	10
534.481	1	-5
534.821	1	0
535.162	1	8
535.502	1	9
535.842	1	1
536.182	1	4
536.522	1	8
536.862	1	3
537.203	1	2
537.543	1	-3
537.883	1	9
538.223	1	8
538.563	1	2
538.903	1	7
539.243	1	0
539.584	1	1
539.924	1	8
540.264	1	8
540.604	1	-4
540.944	1	3
541.284	1	-1
541.624	1	10
541.964	1	9
542.305	1	-4
542.645	1	-1
542.985	1	-2
543.325	1	-3
543.665	1	16
544.005	1	-1
544.345	1	-1
544.685	1	10
545.025	1	0
545.365	1	0
545.705	1	5
546.045	1	3
546.386	1	4
546.726	1	-1
547.066	1	-3
547.406	1	15
547.746	1	12
548.086	1	14
548.426	1	-2
548.766	1	9
549.106	1	8
549.446	1	4
549.786	1	12
550.126	1	-1
550.466	1	-4
550.806	1	14
551.146	1	5
551.486	1	10
551.826	1	9
552.166	1	-1
552.506	1	-3
552.846	1	4
553.186	1	-3
553.526	1	-9
553.866	1	2
554.206	1	5
554.546	1	-5
554.886	1	9
555.226	1	-8
555.566	1	10
555.906	1	0
556.246	1	1
556.586	1	17
556.926	1	-2
557.266	1	9
557.606	1	1
557.946	1	13
558.286	1	8
558.626	1	8
558.966	1	6
559.306	1	-3
559.646	1	-6
559.986	1	-5
560.325	1	-8
560.665	1	2
561.005	1	8
561.345	1	4
561.685	1	-6
562.025	1	1
562.365	1	4
562.705	1	8
563.045	1	14
563.385	1	-2
563.725	1	7
564.064	1	-1
564.404	1	5
564.744	1	10
565.084	1	-3
565.424	1	3
565.764	1	8
566.104	1	4
566.444	1	8
566.783	1	4
567.123	1	7
567.463	1	0
567.803	1	-1
568.143	1	-8
568.483	1	-15
568.823	1	16
569.162	1	7
569.502	1	6
569.842	1	1
570.182	1	-6
570.522	1	0
570.862	1	1
571.201	1	6
571.541	1	-10
571.881	1	9
572.221	1	6
572.561	1	-9
572.900	1	12
573.240	1	0
573.580	1	10
573.920	1	0
574.260	1	1
574.599	1	-5
574.939	1	4
575.279	1	7
575.619	1	12
575.959	1	2
576.298	1	-3
576.638	1	-4
576.978	1	3
577.318	1	8
577.657	1	-16
577.997	1	-8
578.337	1	2
578.677	1	5
579.016	1	16
579.356	1	-1
579.696	1	-1
580.036	1	1
580.375	1	4
580.715	1	-4
581.055	1	4
581.394	1	1
581.734	1	5
582.074	1	-3
582.414	1	3
582.753	1	6
583.093	1	-6
583.433	1	-6
583.772	1	5
584.112	1	13
584.452	1	-4
584.791	1	-10
585.131	1	-2
585.471	1	-2
585.811	1	-2
586.150	1	3
586.490	1	-7
586.830	1	-5
587.169	1	-3
587.509	1	7
587.849	1	6
588.188	1	3
588.528	1	7
588.867	1	7
589.207	1	-3
589.547	1	-7
589.886	1	-9
590.226	1	15
590.566	1	0
590.905	1	0
591.245	1	6
591.585	1	0
591.924	1	-1
592.264	1	0
592.603	1	-8
592.943	1	-6
593.283	1	10
593.622	1	1
593.962	1	7
594.301	1	16
594.641	1	-3
594.981	1	-2
595.320	1	0
595.660	1	3
595.999	1	1
596.339	1	3
596.678	1	6
597.018	1	3
597.358	1	2
597.697	1	-3
598.037	1	9
598.376	1	12
598.716	1	-8
599.055	1	-3
599.395	1	10
599.734	1	10
600.074	1	-5
600.413	1	-5
600.753	1	-2
601.092	1	3
601.432	1	-5
601.771	1	12
602.111	1	-1
602.451	1	1
602.790	1	7
603.130	1	10
603.469	1	3
603.809	1	12
604.148	1	3
604.487	1	3
604.827	1	-3
605.166	1	-11
605.506	1	6
605.845	1	-1
606.185	1	0
606.524	1	4
606.864	1	2
607.203	1	8
607.543	1	-7
607.882	1	1
608.222	1	5
608.561	1	2
608.901	1	-1
609.240	1	-2
609.579	1	5
609.919	1	0
610.258	1	7
610.598	1	2
610.937	1	-8
611.277	1	0
611.616	1	-8
611.955	1	8
612.295	1	7
612.634	1	-1
612.974	1	11
613.313	1	-3
613.652	1	-1
613.992	1	5
614.331	1	5
614.671	1	5
615.010	1	2
615.349	1	4
615.689	1	10
616.028	1	-1
616.368	1	-4
616.707	1	-3
617.046	1	12
617.386	1	3
617.725	1	-2
618.064	1	3
618.404	1	7
618.743	1	5
619.082	1	-5
619.422	1	3
619.761	1	3
620.100	1	6
620.440	1	0
620.779	1	-8
621.118	1	2
621.458	1	-3
621.797	1	-5
622.136	1	1
622.476	1	2
622.815	1	-1
623.154	1	12
623.494	1	3
623.833	1	0
624.172	1	15
624.511	1	0
624.851	1	1
625.190	1	8
625.529	1	7
625.869	1	10
626.208	1	0
626.547	1	4
626.886	1	1
627.226	1	0
627.565	1	5
627.904	1	6
628.243	1	-12
628.583	1	8
628.922	1	-2
629.261	1	6
629.600	1	8
629.940	1	3
630.279	1	-1
630.618	1	-2
630.957	1	3
631.297	1	-1
631.636	1	-1
631.975	1	6
632.314	1	15
632.653	1	-2
632.993	1	-1
633.332	1	2
633.671	1	5
634.010	1	-1
634.349	1	4
634.689	1	11
635.028	1	2
635.367	1	-4
635.706	1	6
636.045	1	-3
636.384	1	8
636.724	1	8
637.063	1	4
637.402	1	10
637.741	1	8
638.080	1	2
638.419	1	7
638.759	1	-5
639.098	1	3
639.437	1	-3
639.776	1	-1
640.115	1	-7
640.454	1	11
640.793	1	2
641.132	1	0
641.472	1	0
641.811	1	-1
642.150	1	1
642.489	1	3
642.828	1	5
643.167	1	9
643.506	1	0
643.845	1	9
644.184	1	3
644.524	1	-10
644.863	1	10
645.202	1	-1
645.541	1	3
645.880	1	8
646.219	1	-5
646.558	1	-2
646.897	1	-4
647.236	1	-6
647.575	1	0
647.914	1	4
648.253	1	1
648.592	1	-3
648.931	1	11
649.270	1	10
649.610	1	12
649.949	1	4
650.288	1	-9
650.627	1	-8
650.966	1	0
651.305	1	1
651.644	1	0
651.983	1	-1
652.322	1	2
652.661	1	4
653.000	1	1
653.339	1	5
653.678	1	-5
654.017	1	4
654.356	1	7
654.695	1	13
655.034	1	-4
655.373	1	2
655.712	1	2
656.051	1	-2
656.390	1	0
656.729	1	0
657.068	1	-5
657.406	1	-1
657.745	1	-9
658.084	1	12
658.423	1	-13
658.762	1	0
659.101	1	-2
659.440	1	13
659.779	1	-5
660.118	1	4
660.457	1	3
660.796	1	-8
661.135	1	0
661.474	1	4
661.813	1	3
662.152	1	0
662.491	1	0
662.829	1	-2
663.168	1	-9
663.507	1	-7
663.846	1	6
664.185	1	1
664.524	1	-14
664.863	1	3
665.202	1	-12
665.541	1	3
665.879	1	-10
666.218	1	-6
666.557	1	1
666.896	1	4
667.235	1	3
667.574	1	5
667.913	1	-6
668.251	1	-4
668.590	1	1
668.929	1	5
669.268	1	0
669.607	1	-13
669.946	1	8
670.285	1	8
670.623	1	6
670.962	1	5
671.301	1	-3
671.640	1	-12
671.979	1	9
672.317	1	-1
672.656	1	2
672.995	1	-9
673.334	1	4
673.673	1	8
674.011	1	6
674.350	1	-1
674.689	1	-7
675.028	1	7
675.367	1	4
675.705	1	-12
676.044	1	-2
676.383	1	-2
676.722	1	1
677.060	1	-3
677.399	1	5
677.738	1	3
678.077	1	8
678.416	1	4
678.754	1	-6
679.093	1	-1
679.432	1	5
679.771	1	-2
680.109	1	14
680.448	1	-2
680.787	1	4
681.125	1	-1
681.464	1	1
681.803	1	1
682.142	1	15
682.480	1	-1
682.819	1	1
683.158	1	4
683.496	1	-4
683.835	1	5
684.174	1	4
684.512	1	1
684.851	1	-1
685.190	1	1
685.529	1	9
685.867	1	9
686.206	1	7
686.545	1	-1
686.883	1	4
687.222	1	-6
687.561	1	8
687.899	1	0
688.238	1	0
688.577	1	-1
688.746	1	5