File: Analysis/GaN_68K_200ms/GaN_sample E_spot4_UVVIS_68 K_200um_200 ms 2x2mm1_204.txt
340.368	1	-2
340.710	1	-4
341.052	1	5
341.394	1	3
341.737	1	19
342.079	1	-1
342.421	1	-4
342.763	1	-1
343.105	1	15
343.447	1	6
343.789	1	2
344.131	1	7
344.473	1	0
344.815	1	-6
345.157	1	1
345.499	1	8
345.841	1	5
346.183	1	6
346.526	1	5
346.868	1	7
347.210	1	8
347.552	1	6
347.894	1	4
348.236	1	14
348.578	1	3
348.920	1	15
349.262	1	-4
349.604	1	4
349.946	1	12
350.288	1	4
350.630	1	3
350.972	1	3
351.314	1	8
351.656	1	8
351.998	1	4
352.340	1	0
352.682	1	-3
353.024	1	-6
353.366	1	8
353.708	1	10
354.050	1	13
354.392	1	15
354.734	1	7
355.076	1	-2
355.418	1	3
355.760	1	7
356.102	1	7
356.444	1	10
356.785	1	14
357.127	1	1
357.469	1	0
357.811	1	17
358.153	1	9
358.495	1	9
358.837	1	8
359.179	1	10
359.521	1	5
359.863	1	6
360.205	1	9
360.547	1	11
360.889	1	15
361.231	1	6
361.572	1	17
361.914	1	5
362.256	1	12
362.598	1	6
362.940	1	8
363.282	1	12
363.624	1	12
363.966	1	20
364.308	1	4
364.649	1	15
364.991	1	21
365.333	1	32
365.675	1	23
366.017	1	17
366.359	1	15
366.701	1	14
367.042	1	44
367.384	1	28
367.726	1	29
368.068	1	18
368.410	1	24
368.752	1	16
369.093	1	16
369.435	1	21
369.777	1	16
370.119	1	19
370.461	1	20
370.803	1	13
371.144	1	15
371.486	1	12
371.828	1	22
372.170	1	19
372.512	1	7
372.853	1	15
373.195	1	2
373.537	1	14
373.879	1	24
374.220	1	8
374.562	1	9
374.904	1	17
375.246	1	10
375.588	1	12
375.929	1	17
376.271	1	4
376.613	1	7
376.955	1	6
377.296	1	8
377.638	1	9
377.980	1	9
378.321	1	10
378.663	1	5
379.005	1	20
379.347	1	5
379.688	1	6
380.030	1	-3
380.372	1	17
380.714	1	15
381.055	1	11
381.397	1	-4
381.739	1	17
382.080	1	-4
382.422	1	25
382.764	1	18
383.105	1	15
383.447	1	23
383.789	1	18
384.130	1	12
384.472	1	6
384.814	1	19
385.156	1	33
385.497	1	31
385.839	1	28
386.180	1	31
386.522	1	29
386.864	1	20
387.205	1	21
387.547	1	18
387.889	1	27
388.230	1	19
388.572	1	20
388.914	1	33
389.255	1	35
389.597	1	10
389.939	1	35
390.280	1	32
390.622	1	17
390.963	1	28
391.305	1	19
391.647	1	21
391.988	1	13
392.330	1	25
392.671	1	31
393.013	1	29
393.355	1	29
393.696	1	18
394.038	1	17
394.379	1	19
394.721	1	32
395.062	1	9
395.404	1	23
395.746	1	12
396.087	1	16
396.429	1	28
396.770	1	18
397.112	1	11
397.453	1	11
397.795	1	20
398.136	1	25
398.478	1	16
398.819	1	30
399.161	1	21
399.503	1	28
399.844	1	16
400.186	1	34
400.527	1	21
400.869	1	27
401.210	1	19
401.552	1	25
401.893	1	21
402.235	1	21
402.576	1	27
402.918	1	17
403.259	1	3
403.601	1	17
403.942	1	16
404.284	1	16
404.625	1	15
404.967	1	22
405.308	1	25
405.649	1	14
405.991	1	19
406.332	1	19
406.674	1	15
407.015	1	13
407.357	1	19
407.698	1	9
408.040	1	5
408.381	1	17
408.722	1	6
409.064	1	14
409.405	1	32
409.747	1	11
410.088	1	21
410.430	1	22
410.771	1	16
411.112	1	22
411.454	1	22
411.795	1	16
412.137	1	17
412.478	1	13
412.819	1	12
413.161	1	9
413.502	1	7
413.844	1	9
414.185	1	18
414.526	1	15
414.868	1	26
415.209	1	12
415.550	1	-2
415.892	1	10
416.233	1	11
416.575	1	8
416.916	1	5
417.257	1	11
417.599	1	8
417.940	1	3
418.281	1	17
418.623	1	14
418.964	1	22
419.305	1	4
419.647	1	15
419.988	1	2
420.329	1	18
420.671	1	13
421.012	1	21
421.353	1	20
421.695	1	20
422.036	1	11
422.377	1	11
422.718	1	4
423.060	1	15
423.401	1	12
423.742	1	20
424.084	1	11
424.425	1	8
424.766	1	14
425.107	1	8
425.449	1	6
425.790	1	8
426.131	1	12
426.472	1	1
426.814	1	12
427.155	1	4
427.496	1	20
427.837	1	7
428.179	1	6
428.520	1	11
428.861	1	10
429.202	1	16
429.544	1	10
429.885	1	8
430.226	1	9
430.567	1	22
430.909	1	2
431.250	1	1
431.591	1	15
431.932	1	21
432.273	1	5
432.615	1	6
432.956	1	6
433.297	1	18
433.638	1	5
433.979	1	4
434.320	1	5
434.662	1	-1
435.003	1	11
435.344	1	10
435.685	1	16
436.026	1	12
436.368	1	4
436.709	1	0
437.050	1	15
437.391	1	3
437.732	1	9
438.073	1	8
438.414	1	16
438.756	1	5
439.097	1	15
439.438	1	13
439.779	1	6
440.120	1	10
440.461	1	-4
440.802	1	0
441.143	1	23
441.485	1	-1
441.826	1	-3
442.167	1	1
442.508	1	-1
442.849	1	14
443.190	1	-10
443.531	1	12
443.872	1	11
444.213	1	10
444.554	1	0
444.895	1	10
445.237	1	-4
445.578	1	18
445.919	1	14
446.260	1	8
446.601	1	4
446.942	1	11
447.283	1	2
447.624	1	16
447.965	1	-6
448.306	1	4
448.647	1	9
448.988	1	-6
449.329	1	9
449.670	1	17
450.011	1	12
450.352	1	14
450.693	1	10
451.034	1	16
451.375	1	7
451.716	1	14
452.057	1	10
452.398	1	11
452.739	1	4
453.080	1	22
453.421	1	13
453.762	1	8
454.103	1	11
454.444	1	18
454.785	1	1
455.126	1	12
455.467	1	12
455.808	1	6
456.149	1	1
456.490	1	10
456.831	1	6
457.172	1	8
457.513	1	16
457.854	1	5
458.195	1	5
458.536	1	10
458.877	1	7
459.218	1	7
459.559	1	8
459.899	1	19
460.240	1	3
460.581	1	12
460.922	1	9
461.263	1	13
461.604	1	9
461.945	1	16
462.286	1	16
462.627	1	8
462.968	1	-6
463.309	1	0
463.649	1	3
463.990	1	2
464.331	1	4
464.672	1	4
465.013	1	-8
465.354	1	6
465.695	1	12
466.036	1	7
466.376	1	-1
466.717	1	5
467.058	1	15
467.399	1	2
467.740	1	4
468.081	1	10
468.422	1	10
468.762	1	6
469.103	1	0
469.444	1	-4
469.785	1	9
470.126	1	3
470.467	1	6
470.807	1	3
471.148	1	2
471.489	1	3
471.830	1	13
472.171	1	2
472.511	1	11
472.852	1	-2
473.193	1	0
473.534	1	8
473.875	1	7
474.215	1	5
474.556	1	-6
474.897	1	11
475.238	1	-5
475.578	1	5
475.919	1	-8
476.260	1	2
476.601	1	6
476.942	1	0
477.282	1	-13
477.623	1	12
477.964	1	10
478.305	1	8
478.645	1	-2
478.986	1	7
479.327	1	5
479.667	1	1
480.008	1	18
480.349	1	3
480.690	1	3
481.030	1	-1
481.371	1	15
481.712	1	9
482.053	1	10
482.393	1	-9
482.734	1	4
483.075	1	6
483.415	1	17
483.756	1	24
484.097	1	2
484.437	1	-11
484.778	1	1
485.119	1	7
485.459	1	13
485.800	1	2
486.141	1	-1
486.481	1	3
486.822	1	4
487.163	1	5
487.503	1	-2
487.844	1	5
488.185	1	3
488.525	1	12
488.866	1	8
489.207	1	18
489.547	1	1
489.888	1	1
490.228	1	-2
490.569	1	19
490.910	1	4
491.250	1	2
491.591	1	-1
491.932	1	7
492.272	1	13
492.613	1	1
492.953	1	8
493.294	1	11
493.635	1	11
493.975	1	5
494.316	1	13
494.656	1	10
494.997	1	11
495.337	1	5
495.678	1	20
496.019	1	-1
496.359	1	9
496.700	1	5
497.040	1	3
497.381	1	-14
497.721	1	-5
498.062	1	9
498.403	1	8
498.743	1	4
499.084	1	-2
499.424	1	22
499.765	1	9
500.105	1	10
500.446	1	19
500.786	1	9
501.127	1	20
501.467	1	14
501.808	1	1
502.148	1	11
502.489	1	9
502.829	1	14
503.170	1	13
503.510	1	13
503.851	1	-4
504.191	1	16
504.532	1	1
504.872	1	9
505.213	1	9
505.553	1	12
505.894	1	10
506.234	1	13
506.575	1	16
506.915	1	5
507.256	1	12
507.596	1	14
507.936	1	13
508.277	1	3
508.617	1	11
508.958	1	23
509.298	1	21
509.639	1	17
509.979	1	19
510.319	1	3
510.660	1	21
511.000	1	22
511.341	1	11
511.681	1	14
512.022	1	8
512.362	1	7
512.702	1	3
513.043	1	0
513.383	1	7
513.724	1	25
514.064	1	13
514.404	1	6
514.745	1	10
515.085	1	7
515.425	1	14
515.766	1	5
516.106	1	9
516.447	1	17
516.787	1	11
517.127	1	17
517.468	1	11
517.808	1	21
518.148	1	14
518.489	1	17
518.829	1	2
519.169	1	23
519.510	1	21
519.850	1	10
520.190	1	12
520.531	1	18
520.871	1	14
521.211	1	9
521.552	1	17
521.892	1	6
522.232	1	8
522.573	1	24
522.913	1	10
523.253	1	18
523.593	1	0
523.934	1	16
524.274	1	11
524.614	1	19
524.955	1	6
525.295	1	1
525.635	1	30
525.975	1	7
526.316	1	12
526.656	1	27
526.996	1	16
527.337	1	16
527.677	1	36
528.017	1	21
528.357	1	15
528.698	1	10
529.038	1	20
529.378	1	15
529.718	1	20
530.058	1	14
530.399	1	25
530.739	1	17
531.079	1	25
531.419	1	30
531.760	1	19
532.100	1	22
532.440	1	12
532.780	1	6
533.120	1	12
533.461	1	29
533.801	1	21
534.141	1	23
534.481	1	20
534.821	1	16
535.162	1	12
535.502	1	22
535.842	1	25
536.182	1	20
536.522	1	20
536.862	1	23
537.203	1	14
537.543	1	27
537.883	1	26
538.223	1	26
538.563	1	11
538.903	1	10
539.243	1	9
539.584	1	19
539.924	1	21
540.264	1	9
540.604	1	17
540.944	1	12
541.284	1	16
541.624	1	26
541.964	1	12
542.305	1	1
542.645	1	13
542.985	1	9
543.325	1	15
543.665	1	18
544.005	1	16
544.345	1	16
544.685	1	10
545.025	1	14
545.365	1	16
545.705	1	19
546.045	1	19
546.386	1	14
546.726	1	12
547.066	1	4
547.406	1	13
547.746	1	21
548.086	1	20
548.426	1	9
548.766	1	14
549.106	1	25
549.446	1	18
549.786	1	16
550.126	1	10
550.466	1	6
550.806	1	24
551.146	1	10
551.486	1	19
551.826	1	14
552.166	1	24
552.506	1	15
552.846	1	13
553.186	1	7
553.526	1	15
553.866	1	15
554.206	1	5
554.546	1	4
554.886	1	13
555.226	1	2
555.566	1	13
555.906	1	15
556.246	1	10
556.586	1	27
556.926	1	16
557.266	1	18
557.606	1	1
557.946	1	17
558.286	1	11
558.626	1	18
558.966	1	11
559.306	1	8
559.646	1	6
559.986	1	13
560.325	1	-1
560.665	1	16
561.005	1	15
561.345	1	13
561.685	1	6
562.025	1	5
562.365	1	10
562.705	1	21
563.045	1	16
563.385	1	11
563.725	1	9
564.064	1	13
564.404	1	12
564.744	1	12
565.084	1	8
565.424	1	13
565.764	1	19
566.104	1	9
566.444	1	14
566.783	1	9
567.123	1	18
567.463	1	8
567.803	1	7
568.143	1	9
568.483	1	-5
568.823	1	10
569.162	1	10
569.502	1	8
569.842	1	16
570.182	1	0
570.522	1	11
570.862	1	15
571.201	1	9
571.541	1	2
571.881	1	6
572.221	1	20
572.561	1	6
572.900	1	16
573.240	1	1
573.580	1	2
573.920	1	6
574.260	1	6
574.599	1	10
574.939	1	4
575.279	1	4
575.619	1	10
575.959	1	7
576.298	1	-1
576.638	1	12
576.978	1	7
577.318	1	9
577.657	1	-1
577.997	1	-3
578.337	1	7
578.677	1	1
579.016	1	21
579.356	1	-2
579.696	1	1
580.036	1	11
580.375	1	11
580.715	1	13
581.055	1	3
581.394	1	-6
581.734	1	13
582.074	1	8
582.414	1	17
582.753	1	12
583.093	1	2
583.433	1	-4
583.772	1	9
584.112	1	7
584.452	1	10
584.791	1	7
585.131	1	0
585.471	1	7
585.811	1	0
586.150	1	10
586.490	1	-2
586.830	1	1
587.169	1	8
587.509	1	13
587.849	1	16
588.188	1	3
588.528	1	14
588.867	1	23
589.207	1	7
589.547	1	-10
589.886	1	3
590.226	1	15
590.566	1	0
590.905	1	2
591.245	1	2
591.585	1	8
591.924	1	6
592.264	1	8
592.603	1	0
592.943	1	5
593.283	1	9
593.622	1	7
593.962	1	11
594.301	1	18
594.641	1	-1
594.981	1	8
595.320	1	22
595.660	1	0
595.999	1	8
596.339	1	6
596.678	1	4
597.018	1	2
597.358	1	1
597.697	1	5
598.037	1	-1
598.376	1	5
598.716	1	2
599.055	1	5
599.395	1	7
599.734	1	9
600.074	1	-8
600.413	1	12
600.753	1	1
601.092	1	5
601.432	1	8
601.771	1	17
602.111	1	-7
602.451	1	2
602.790	1	2
603.130	1	5
603.469	1	4
603.809	1	13
604.148	1	9
604.487	1	4
604.827	1	-5
605.166	1	-3
605.506	1	7
605.845	1	1
606.185	1	7
606.524	1	1
606.864	1	2
607.203	1	17
607.543	1	1
607.882	1	1
608.222	1	7
608.561	1	-2
608.901	1	3
609.240	1	13
609.579	1	13
609.919	1	4
610.258	1	10
610.598	1	4
610.937	1	0
611.277	1	6
611.616	1	-6
611.955	1	12
612.295	1	1
612.634	1	10
612.974	1	11
613.313	1	1
613.652	1	2
613.992	1	5
614.331	1	0
614.671	1	13
615.010	1	8
615.349	1	-1
615.689	1	2
616.028	1	8
616.368	1	8
616.707	1	9
617.046	1	5
617.386	1	4
617.725	1	7
618.064	1	0
618.404	1	14
618.743	1	3
619.082	1	7
619.422	1	4
619.761	1	1
620.100	1	3
620.440	1	5
620.779	1	0
621.118	1	6
621.458	1	6
621.797	1	9
622.136	1	10
622.476	1	9
622.815	1	2
623.154	1	13
623.494	1	1
623.833	1	1
624.172	1	16
624.511	1	-2
624.851	1	-4
625.190	1	7
625.529	1	12
625.869	1	-2
626.208	1	6
626.547	1	3
626.886	1	-1
627.226	1	3
627.565	1	11
627.904	1	7
628.243	1	-2
628.583	1	6
628.922	1	2
629.261	1	7
629.600	1	5
629.940	1	12
630.279	1	7
630.618	1	-5
630.957	1	-9
631.297	1	5
631.636	1	-1
631.975	1	13
632.314	1	14
632.653	1	1
632.993	1	7
633.332	1	5
633.671	1	1
634.010	1	2
634.349	1	11
634.689	1	19
635.028	1	1
635.367	1	6
635.706	1	-2
636.045	1	4
636.384	1	4
636.724	1	6
637.063	1	9
637.402	1	0
637.741	1	9
638.080	1	4
638.419	1	13
638.759	1	5
639.098	1	3
639.437	1	-14
639.776	1	-3
640.115	1	3
640.454	1	19
640.793	1	14
641.132	1	10
641.472	1	-5
641.811	1	-3
642.150	1	10
642.489	1	-5
642.828	1	0
643.167	1	11
643.506	1	-2
643.845	1	1
644.184	1	14
644.524	1	1
644.863	1	0
645.202	1	5
645.541	1	1
645.880	1	1
646.219	1	2
646.558	1	3
646.897	1	4
647.236	1	6
647.575	1	9
647.914	1	1
648.253	1	14
648.592	1	4
648.931	1	6
649.270	1	8
649.610	1	14
649.949	1	7
650.288	1	1
650.627	1	1
650.966	1	4
651.305	1	-11
651.644	1	-3
651.983	1	3
652.322	1	4
652.661	1	6
653.000	1	2
653.339	1	8
653.678	1	5
654.017	1	6
654.356	1	9
654.695	1	7
655.034	1	6
655.373	1	3
655.712	1	7
656.051	1	19
656.390	1	-1
656.729	1	12
657.068	1	6
657.406	1	11
657.745	1	3
658.084	1	7
658.423	1	0
658.762	1	-4
659.101	1	3
659.440	1	20
659.779	1	-2
660.118	1	7
660.457	1	5
660.796	1	5
661.135	1	15
661.474	1	3
661.813	1	5
662.152	1	10
662.491	1	0
662.829	1	0
663.168	1	0
663.507	1	10
663.846	1	12
664.185	1	3
664.524	1	-7
664.863	1	-2
665.202	1	-2
665.541	1	-7
665.879	1	-4
666.218	1	-10
666.557	1	0
666.896	1	5
667.235	1	10
667.574	1	1
667.913	1	10
668.251	1	7
668.590	1	-3
668.929	1	-3
669.268	1	6
669.607	1	-5
669.946	1	15
670.285	1	1
670.623	1	2
670.962	1	7
671.301	1	0
671.640	1	-3
671.979	1	20
672.317	1	-1
672.656	1	4
672.995	1	1
673.334	1	9
673.673	1	19
674.011	1	4
674.350	1	-6
674.689	1	2
675.028	1	9
675.367	1	9
675.705	1	-11
676.044	1	-3
676.383	1	0
676.722	1	10
677.060	1	4
677.399	1	8
677.738	1	0
678.077	1	2
678.416	1	0
678.754	1	-1
679.093	1	15
679.432	1	-4
679.771	1	3
680.109	1	9
680.448	1	3
680.787	1	0
681.125	1	4
681.464	1	5
681.803	1	-14
682.142	1	18
682.480	1	-1
682.819	1	1
683.158	1	3
683.496	1	0
683.835	1	5
684.174	1	7
684.512	1	-3
684.851	1	-2
685.190	1	16
685.529	1	2
685.867	1	3
686.206	1	7
686.545	1	12
686.883	1	-7
687.222	1	1
687.561	1	7
687.899	1	-4
688.238	1	8
688.577	1	-7
688.746	1	6