File: Analysis/GaN_68K_200ms/GaN_sample E_spot4_UVVIS_68 K_200um_200 ms 2x2mm1_176.txt
340.368	1	2
340.710	1	-2
341.052	1	0
341.394	1	-4
341.737	1	8
342.079	1	6
342.421	1	-10
342.763	1	1
343.105	1	12
343.447	1	5
343.789	1	-2
344.131	1	-1
344.473	1	12
344.815	1	3
345.157	1	-3
345.499	1	2
345.841	1	6
346.183	1	-3
346.526	1	11
346.868	1	5
347.210	1	-3
347.552	1	5
347.894	1	4
348.236	1	-1
348.578	1	15
348.920	1	12
349.262	1	-5
349.604	1	12
349.946	1	13
350.288	1	10
350.630	1	1
350.972	1	4
351.314	1	3
351.656	1	14
351.998	1	3
352.340	1	4
352.682	1	5
353.024	1	-2
353.366	1	7
353.708	1	13
354.050	1	15
354.392	1	9
354.734	1	7
355.076	1	9
355.418	1	10
355.760	1	13
356.102	1	4
356.444	1	12
356.785	1	15
357.127	1	12
357.469	1	4
357.811	1	21
358.153	1	10
358.495	1	10
358.837	1	9
359.179	1	15
359.521	1	15
359.863	1	8
360.205	1	19
360.547	1	18
360.889	1	19
361.231	1	14
361.572	1	10
361.914	1	21
362.256	1	15
362.598	1	17
362.940	1	25
363.282	1	17
363.624	1	18
363.966	1	24
364.308	1	12
364.649	1	23
364.991	1	33
365.333	1	25
365.675	1	28
366.017	1	39
366.359	1	27
366.701	1	10
367.042	1	37
367.384	1	45
367.726	1	49
368.068	1	31
368.410	1	30
368.752	1	31
369.093	1	34
369.435	1	25
369.777	1	21
370.119	1	35
370.461	1	31
370.803	1	15
371.144	1	26
371.486	1	27
371.828	1	24
372.170	1	31
372.512	1	15
372.853	1	19
373.195	1	7
373.537	1	19
373.879	1	28
374.220	1	27
374.562	1	12
374.904	1	14
375.246	1	12
375.588	1	8
375.929	1	25
376.271	1	10
376.613	1	14
376.955	1	-3
377.296	1	15
377.638	1	6
377.980	1	22
378.321	1	18
378.663	1	8
379.005	1	18
379.347	1	28
379.688	1	6
380.030	1	9
380.372	1	14
380.714	1	20
381.055	1	21
381.397	1	6
381.739	1	28
382.080	1	9
382.422	1	31
382.764	1	12
383.105	1	18
383.447	1	22
383.789	1	33
384.130	1	20
384.472	1	26
384.814	1	36
385.156	1	45
385.497	1	43
385.839	1	40
386.180	1	42
386.522	1	46
386.864	1	40
387.205	1	36
387.547	1	40
387.889	1	49
388.230	1	34
388.572	1	45
388.914	1	46
389.255	1	49
389.597	1	38
389.939	1	37
390.280	1	47
390.622	1	35
390.963	1	42
391.305	1	48
391.647	1	32
391.988	1	23
392.330	1	42
392.671	1	36
393.013	1	49
393.355	1	49
393.696	1	35
394.038	1	23
394.379	1	29
394.721	1	35
395.062	1	24
395.404	1	39
395.746	1	31
396.087	1	42
396.429	1	45
396.770	1	48
397.112	1	44
397.453	1	38
397.795	1	39
398.136	1	43
398.478	1	40
398.819	1	46
399.161	1	49
399.503	1	35
399.844	1	31
400.186	1	45
400.527	1	41
400.869	1	46
401.210	1	40
401.552	1	43
401.893	1	34
402.235	1	36
402.576	1	36
402.918	1	25
403.259	1	24
403.601	1	23
403.942	1	23
404.284	1	29
404.625	1	23
404.967	1	37
405.308	1	16
405.649	1	27
405.991	1	28
406.332	1	17
406.674	1	28
407.015	1	30
407.357	1	25
407.698	1	13
408.040	1	17
408.381	1	38
408.722	1	25
409.064	1	22
409.405	1	28
409.747	1	15
410.088	1	28
410.430	1	25
410.771	1	26
411.112	1	29
411.454	1	30
411.795	1	33
412.137	1	25
412.478	1	31
412.819	1	20
413.161	1	10
413.502	1	12
413.844	1	10
414.185	1	25
414.526	1	20
414.868	1	22
415.209	1	16
415.550	1	13
415.892	1	25
416.233	1	17
416.575	1	12
416.916	1	17
417.257	1	25
417.599	1	11
417.940	1	10
418.281	1	10
418.623	1	20
418.964	1	23
419.305	1	24
419.647	1	15
419.988	1	16
420.329	1	22
420.671	1	20
421.012	1	8
421.353	1	22
421.695	1	10
422.036	1	10
422.377	1	24
422.718	1	12
423.060	1	11
423.401	1	13
423.742	1	10
424.084	1	22
424.425	1	14
424.766	1	22
425.107	1	16
425.449	1	16
425.790	1	4
426.131	1	21
426.472	1	8
426.814	1	19
427.155	1	7
427.496	1	15
427.837	1	6
428.179	1	10
428.520	1	4
428.861	1	16
429.202	1	17
429.544	1	7
429.885	1	15
430.226	1	10
430.567	1	20
430.909	1	2
431.250	1	-1
431.591	1	11
431.932	1	20
432.273	1	15
432.615	1	8
432.956	1	6
433.297	1	16
433.638	1	6
433.979	1	11
434.320	1	10
434.662	1	1
435.003	1	9
435.344	1	9
435.685	1	16
436.026	1	16
436.368	1	9
436.709	1	3
437.050	1	16
437.391	1	12
437.732	1	13
438.073	1	16
438.414	1	20
438.756	1	17
439.097	1	9
439.438	1	17
439.779	1	9
440.120	1	9
440.461	1	5
440.802	1	8
441.143	1	14
441.485	1	13
441.826	1	1
442.167	1	2
442.508	1	3
442.849	1	17
443.190	1	2
443.531	1	4
443.872	1	11
444.213	1	2
444.554	1	9
444.895	1	8
445.237	1	4
445.578	1	17
445.919	1	-1
446.260	1	15
446.601	1	5
446.942	1	8
447.283	1	-3
447.624	1	12
447.965	1	0
448.306	1	6
448.647	1	16
448.988	1	-7
449.329	1	14
449.670	1	12
450.011	1	2
450.352	1	13
450.693	1	11
451.034	1	21
451.375	1	15
451.716	1	19
452.057	1	14
452.398	1	3
452.739	1	8
453.080	1	22
453.421	1	6
453.762	1	16
454.103	1	8
454.444	1	13
454.785	1	3
455.126	1	13
455.467	1	15
455.808	1	11
456.149	1	3
456.490	1	5
456.831	1	13
457.172	1	10
457.513	1	20
457.854	1	-4
458.195	1	-1
458.536	1	6
458.877	1	5
459.218	1	8
459.559	1	10
459.899	1	11
460.240	1	3
460.581	1	14
460.922	1	10
461.263	1	7
461.604	1	6
461.945	1	19
462.286	1	8
462.627	1	8
462.968	1	0
463.309	1	3
463.649	1	3
463.990	1	2
464.331	1	15
464.672	1	6
465.013	1	2
465.354	1	8
465.695	1	-1
466.036	1	8
466.376	1	5
466.717	1	0
467.058	1	7
467.399	1	4
467.740	1	9
468.081	1	5
468.422	1	7
468.762	1	-2
469.103	1	3
469.444	1	2
469.785	1	7
470.126	1	6
470.467	1	-3
470.807	1	6
471.148	1	6
471.489	1	3
471.830	1	22
472.171	1	6
472.511	1	14
472.852	1	-1
473.193	1	1
473.534	1	-2
473.875	1	18
474.215	1	-2
474.556	1	-8
474.897	1	7
475.238	1	8
475.578	1	10
475.919	1	12
476.260	1	-1
476.601	1	6
476.942	1	7
477.282	1	-6
477.623	1	13
477.964	1	15
478.305	1	15
478.645	1	2
478.986	1	0
479.327	1	0
479.667	1	2
480.008	1	12
480.349	1	14
480.690	1	8
481.030	1	0
481.371	1	12
481.712	1	3
482.053	1	12
482.393	1	-9
482.734	1	6
483.075	1	16
483.415	1	16
483.756	1	18
484.097	1	-2
484.437	1	-6
484.778	1	7
485.119	1	8
485.459	1	11
485.800	1	-5
486.141	1	-5
486.481	1	6
486.822	1	4
487.163	1	7
487.503	1	-1
487.844	1	7
488.185	1	0
488.525	1	8
488.866	1	13
489.207	1	19
489.547	1	3
489.888	1	5
490.228	1	4
490.569	1	13
490.910	1	6
491.250	1	5
491.591	1	6
491.932	1	9
492.272	1	20
492.613	1	10
492.953	1	8
493.294	1	9
493.635	1	6
493.975	1	17
494.316	1	17
494.656	1	3
494.997	1	9
495.337	1	20
495.678	1	19
496.019	1	8
496.359	1	17
496.700	1	10
497.040	1	9
497.381	1	-8
497.721	1	10
498.062	1	12
498.403	1	18
498.743	1	17
499.084	1	5
499.424	1	18
499.765	1	11
500.105	1	10
500.446	1	20
500.786	1	12
501.127	1	18
501.467	1	19
501.808	1	7
502.148	1	8
502.489	1	15
502.829	1	13
503.170	1	10
503.510	1	13
503.851	1	7
504.191	1	11
504.532	1	4
504.872	1	14
505.213	1	15
505.553	1	14
505.894	1	19
506.234	1	27
506.575	1	18
506.915	1	18
507.256	1	11
507.596	1	16
507.936	1	18
508.277	1	18
508.617	1	27
508.958	1	28
509.298	1	26
509.639	1	22
509.979	1	15
510.319	1	15
510.660	1	25
511.000	1	29
511.341	1	19
511.681	1	27
512.022	1	8
512.362	1	13
512.702	1	4
513.043	1	16
513.383	1	13
513.724	1	20
514.064	1	13
514.404	1	20
514.745	1	16
515.085	1	22
515.425	1	23
515.766	1	16
516.106	1	16
516.447	1	25
516.787	1	16
517.127	1	26
517.468	1	22
517.808	1	26
518.148	1	29
518.489	1	26
518.829	1	14
519.169	1	33
519.510	1	18
519.850	1	8
520.190	1	16
520.531	1	33
520.871	1	11
521.211	1	30
521.552	1	34
521.892	1	11
522.232	1	16
522.573	1	29
522.913	1	28
523.253	1	26
523.593	1	14
523.934	1	29
524.274	1	5
524.614	1	24
524.955	1	20
525.295	1	15
525.635	1	26
525.975	1	13
526.316	1	30
526.656	1	41
526.996	1	40
527.337	1	24
527.677	1	36
528.017	1	20
528.357	1	19
528.698	1	30
529.038	1	32
529.378	1	22
529.718	1	30
530.058	1	22
530.399	1	37
530.739	1	31
531.079	1	34
531.419	1	31
531.760	1	35
532.100	1	28
532.440	1	23
532.780	1	24
533.120	1	28
533.461	1	39
533.801	1	14
534.141	1	38
534.481	1	29
534.821	1	30
535.162	1	22
535.502	1	30
535.842	1	33
536.182	1	32
536.522	1	30
536.862	1	37
537.203	1	34
537.543	1	24
537.883	1	30
538.223	1	32
538.563	1	15
538.903	1	24
539.243	1	25
539.584	1	20
539.924	1	26
540.264	1	18
540.604	1	31
540.944	1	20
541.284	1	22
541.624	1	27
541.964	1	20
542.305	1	14
542.645	1	23
542.985	1	18
543.325	1	19
543.665	1	26
544.005	1	13
544.345	1	22
544.685	1	35
545.025	1	13
545.365	1	21
545.705	1	25
546.045	1	28
546.386	1	19
546.726	1	24
547.066	1	10
547.406	1	35
547.746	1	23
548.086	1	27
548.426	1	20
548.766	1	27
549.106	1	32
549.446	1	23
549.786	1	22
550.126	1	23
550.466	1	16
550.806	1	27
551.146	1	30
551.486	1	25
551.826	1	20
552.166	1	22
552.506	1	14
552.846	1	26
553.186	1	25
553.526	1	19
553.866	1	17
554.206	1	20
554.546	1	17
554.886	1	23
555.226	1	10
555.566	1	26
555.906	1	22
556.246	1	17
556.586	1	22
556.926	1	22
557.266	1	23
557.606	1	9
557.946	1	36
558.286	1	22
558.626	1	15
558.966	1	15
559.306	1	11
559.646	1	13
559.986	1	13
560.325	1	5
560.665	1	17
561.005	1	14
561.345	1	22
561.685	1	19
562.025	1	6
562.365	1	9
562.705	1	19
563.045	1	21
563.385	1	15
563.725	1	16
564.064	1	17
564.404	1	11
564.744	1	24
565.084	1	10
565.424	1	19
565.764	1	17
566.104	1	9
566.444	1	24
566.783	1	19
567.123	1	23
567.463	1	17
567.803	1	6
568.143	1	7
568.483	1	16
568.823	1	25
569.162	1	22
569.502	1	15
569.842	1	16
570.182	1	13
570.522	1	23
570.862	1	18
571.201	1	10
571.541	1	5
571.881	1	11
572.221	1	13
572.561	1	3
572.900	1	21
573.240	1	12
573.580	1	20
573.920	1	14
574.260	1	9
574.599	1	6
574.939	1	4
575.279	1	15
575.619	1	17
575.959	1	-5
576.298	1	9
576.638	1	15
576.978	1	15
577.318	1	19
577.657	1	-8
577.997	1	-2
578.337	1	14
578.677	1	9
579.016	1	19
579.356	1	8
579.696	1	10
580.036	1	9
580.375	1	18
580.715	1	20
581.055	1	2
581.394	1	13
581.734	1	22
582.074	1	0
582.414	1	6
582.753	1	11
583.093	1	11
583.433	1	-5
583.772	1	14
584.112	1	11
584.452	1	10
584.791	1	2
585.131	1	6
585.471	1	1
585.811	1	7
586.150	1	8
586.490	1	-3
586.830	1	10
587.169	1	11
587.509	1	10
587.849	1	17
588.188	1	6
588.528	1	15
588.867	1	22
589.207	1	7
589.547	1	11
589.886	1	2
590.226	1	6
590.566	1	-3
590.905	1	17
591.245	1	5
591.585	1	0
591.924	1	0
592.264	1	4
592.603	1	8
592.943	1	5
593.283	1	11
593.622	1	9
593.962	1	13
594.301	1	12
594.641	1	-1
594.981	1	9
595.320	1	16
595.660	1	7
595.999	1	14
596.339	1	13
596.678	1	4
597.018	1	8
597.358	1	7
597.697	1	-9
598.037	1	5
598.376	1	7
598.716	1	0
599.055	1	11
599.395	1	17
599.734	1	7
600.074	1	4
600.413	1	8
600.753	1	9
601.092	1	-3
601.432	1	6
601.771	1	19
602.111	1	-2
602.451	1	2
602.790	1	6
603.130	1	13
603.469	1	10
603.809	1	7
604.148	1	11
604.487	1	14
604.827	1	-6
605.166	1	-2
605.506	1	9
605.845	1	16
606.185	1	14
606.524	1	2
606.864	1	4
607.203	1	16
607.543	1	-3
607.882	1	0
608.222	1	5
608.561	1	13
608.901	1	8
609.240	1	6
609.579	1	12
609.919	1	5
610.258	1	22
610.598	1	6
610.937	1	4
611.277	1	12
611.616	1	1
611.955	1	8
612.295	1	3
612.634	1	1
612.974	1	9
613.313	1	0
613.652	1	1
613.992	1	10
614.331	1	9
614.671	1	13
615.010	1	8
615.349	1	11
615.689	1	14
616.028	1	13
616.368	1	4
616.707	1	5
617.046	1	8
617.386	1	3
617.725	1	5
618.064	1	3
618.404	1	8
618.743	1	3
619.082	1	4
619.422	1	7
619.761	1	10
620.100	1	6
620.440	1	11
620.779	1	16
621.118	1	5
621.458	1	17
621.797	1	0
622.136	1	8
622.476	1	11
622.815	1	5
623.154	1	8
623.494	1	16
623.833	1	10
624.172	1	13
624.511	1	3
624.851	1	-6
625.190	1	6
625.529	1	6
625.869	1	-1
626.208	1	4
626.547	1	9
626.886	1	1
627.226	1	7
627.565	1	13
627.904	1	6
628.243	1	-9
628.583	1	2
628.922	1	7
629.261	1	10
629.600	1	6
629.940	1	8
630.279	1	-1
630.618	1	8
630.957	1	-6
631.297	1	-1
631.636	1	-1
631.975	1	14
632.314	1	8
632.653	1	7
632.993	1	7
633.332	1	7
633.671	1	5
634.010	1	6
634.349	1	8
634.689	1	10
635.028	1	4
635.367	1	12
635.706	1	-1
636.045	1	5
636.384	1	19
636.724	1	11
637.063	1	10
637.402	1	17
637.741	1	11
638.080	1	10
638.419	1	10
638.759	1	9
639.098	1	9
639.437	1	-7
639.776	1	7
640.115	1	2
640.454	1	17
640.793	1	7
641.132	1	10
641.472	1	-5
641.811	1	-3
642.150	1	1
642.489	1	10
642.828	1	14
643.167	1	8
643.506	1	0
643.845	1	5
644.184	1	9
644.524	1	5
644.863	1	-3
645.202	1	-2
645.541	1	-1
645.880	1	-3
646.219	1	6
646.558	1	2
646.897	1	0
647.236	1	8
647.575	1	7
647.914	1	-1
648.253	1	5
648.592	1	-1
648.931	1	-3
649.270	1	15
649.610	1	12
649.949	1	11
650.288	1	-3
650.627	1	3
650.966	1	6
651.305	1	8
651.644	1	2
651.983	1	5
652.322	1	13
652.661	1	9
653.000	1	6
653.339	1	3
653.678	1	3
654.017	1	8
654.356	1	9
654.695	1	6
655.034	1	9
655.373	1	5
655.712	1	9
656.051	1	16
656.390	1	1
656.729	1	16
657.068	1	0
657.406	1	4
657.745	1	-1
658.084	1	10
658.423	1	-5
658.762	1	2
659.101	1	4
659.440	1	18
659.779	1	-1
660.118	1	7
660.457	1	2
660.796	1	-1
661.135	1	4
661.474	1	5
661.813	1	7
662.152	1	5
662.491	1	9
662.829	1	7
663.168	1	-4
663.507	1	5
663.846	1	12
664.185	1	5
664.524	1	5
664.863	1	10
665.202	1	-1
665.541	1	1
665.879	1	2
666.218	1	-3
666.557	1	8
666.896	1	5
667.235	1	-5
667.574	1	14
667.913	1	5
668.251	1	13
668.590	1	3
668.929	1	-5
669.268	1	-2
669.607	1	-8
669.946	1	13
670.285	1	12
670.623	1	10
670.962	1	6
671.301	1	-1
671.640	1	-13
671.979	1	8
672.317	1	5
672.656	1	16
672.995	1	8
673.334	1	12
673.673	1	13
674.011	1	2
674.350	1	0
674.689	1	-1
675.028	1	9
675.367	1	12
675.705	1	2
676.044	1	-4
676.383	1	6
676.722	1	-1
677.060	1	4
677.399	1	7
677.738	1	-8
678.077	1	11
678.416	1	11
678.754	1	4
679.093	1	13
679.432	1	0
679.771	1	2
680.109	1	6
680.448	1	-2
680.787	1	5
681.125	1	10
681.464	1	7
681.803	1	-5
682.142	1	16
682.480	1	-1
682.819	1	0
683.158	1	8
683.496	1	-7
683.835	1	11
684.174	1	7
684.512	1	5
684.851	1	0
685.190	1	15
685.529	1	3
685.867	1	1
686.206	1	8
686.545	1	5
686.883	1	-1
687.222	1	11
687.561	1	7
687.899	1	2
688.238	1	5
688.577	1	0
688.746	1	9