File: Analysis/GaN_68K_200ms/GaN_sample E_spot4_UVVIS_68 K_200um_200 ms 2x2mm1_443.txt
340.368	1	1
340.710	1	-4
341.052	1	6
341.394	1	1
341.737	1	13
342.079	1	2
342.421	1	-5
342.763	1	1
343.105	1	10
343.447	1	3
343.789	1	-1
344.131	1	-1
344.473	1	-3
344.815	1	3
345.157	1	4
345.499	1	8
345.841	1	10
346.183	1	-2
346.526	1	0
346.868	1	8
347.210	1	2
347.552	1	7
347.894	1	2
348.236	1	5
348.578	1	4
348.920	1	-2
349.262	1	-4
349.604	1	11
349.946	1	-2
350.288	1	3
350.630	1	-8
350.972	1	2
351.314	1	-11
351.656	1	0
351.998	1	-10
352.340	1	1
352.682	1	-2
353.024	1	0
353.366	1	-1
353.708	1	3
354.050	1	10
354.392	1	11
354.734	1	2
355.076	1	3
355.418	1	1
355.760	1	3
356.102	1	-4
356.444	1	7
356.785	1	17
357.127	1	-7
357.469	1	7
357.811	1	12
358.153	1	7
358.495	1	10
358.837	1	6
359.179	1	5
359.521	1	4
359.863	1	-1
360.205	1	-5
360.547	1	-1
360.889	1	4
361.231	1	-6
361.572	1	-8
361.914	1	4
362.256	1	5
362.598	1	5
362.940	1	6
363.282	1	0
363.624	1	-2
363.966	1	5
364.308	1	5
364.649	1	-2
364.991	1	7
365.333	1	13
365.675	1	-1
366.017	1	12
366.359	1	12
366.701	1	1
367.042	1	6
367.384	1	8
367.726	1	15
368.068	1	6
368.410	1	3
368.752	1	4
369.093	1	6
369.435	1	-2
369.777	1	-2
370.119	1	5
370.461	1	0
370.803	1	-5
371.144	1	12
371.486	1	13
371.828	1	3
372.170	1	6
372.512	1	5
372.853	1	8
373.195	1	-7
373.537	1	4
373.879	1	9
374.220	1	7
374.562	1	-1
374.904	1	6
375.246	1	3
375.588	1	-3
375.929	1	5
376.271	1	2
376.613	1	-1
376.955	1	-7
377.296	1	4
377.638	1	2
377.980	1	11
378.321	1	0
378.663	1	1
379.005	1	11
379.347	1	4
379.688	1	-3
380.030	1	1
380.372	1	7
380.714	1	4
381.055	1	-2
381.397	1	-1
381.739	1	14
382.080	1	-14
382.422	1	5
382.764	1	1
383.105	1	10
383.447	1	11
383.789	1	-2
384.130	1	-6
384.472	1	-7
384.814	1	12
385.156	1	8
385.497	1	4
385.839	1	9
386.180	1	2
386.522	1	11
386.864	1	-4
387.205	1	2
387.547	1	-5
387.889	1	15
388.230	1	9
388.572	1	2
388.914	1	18
389.255	1	7
389.597	1	-2
389.939	1	11
390.280	1	6
390.622	1	-2
390.963	1	7
391.305	1	1
391.647	1	0
391.988	1	0
392.330	1	0
392.671	1	6
393.013	1	9
393.355	1	10
393.696	1	10
394.038	1	-4
394.379	1	3
394.721	1	-1
395.062	1	3
395.404	1	5
395.746	1	2
396.087	1	-2
396.429	1	11
396.770	1	7
397.112	1	5
397.453	1	-8
397.795	1	1
398.136	1	5
398.478	1	-7
398.819	1	8
399.161	1	8
399.503	1	8
399.844	1	2
400.186	1	12
400.527	1	14
400.869	1	11
401.210	1	4
401.552	1	12
401.893	1	4
402.235	1	15
402.576	1	10
402.918	1	-4
403.259	1	-8
403.601	1	-4
403.942	1	12
404.284	1	-2
404.625	1	4
404.967	1	12
405.308	1	4
405.649	1	2
405.991	1	18
406.332	1	4
406.674	1	6
407.015	1	-8
407.357	1	7
407.698	1	2
408.040	1	-8
408.381	1	0
408.722	1	-7
409.064	1	6
409.405	1	3
409.747	1	-4
410.088	1	5
410.430	1	17
410.771	1	0
411.112	1	11
411.454	1	9
411.795	1	0
412.137	1	9
412.478	1	14
412.819	1	-7
413.161	1	-4
413.502	1	10
413.844	1	11
414.185	1	10
414.526	1	6
414.868	1	5
415.209	1	3
415.550	1	6
415.892	1	2
416.233	1	-3
416.575	1	-9
416.916	1	2
417.257	1	1
417.599	1	15
417.940	1	5
418.281	1	2
418.623	1	-1
418.964	1	1
419.305	1	-1
419.647	1	5
419.988	1	-9
420.329	1	11
420.671	1	8
421.012	1	8
421.353	1	6
421.695	1	2
422.036	1	3
422.377	1	3
422.718	1	2
423.060	1	-2
423.401	1	-1
423.742	1	-1
424.084	1	0
424.425	1	1
424.766	1	7
425.107	1	3
425.449	1	-1
425.790	1	2
426.131	1	-4
426.472	1	2
426.814	1	2
427.155	1	-3
427.496	1	11
427.837	1	0
428.179	1	-7
428.520	1	-3
428.861	1	0
429.202	1	8
429.544	1	6
429.885	1	-8
430.226	1	-6
430.567	1	16
430.909	1	-10
431.250	1	-17
431.591	1	-2
431.932	1	9
432.273	1	0
432.615	1	8
432.956	1	1
433.297	1	17
433.638	1	4
433.979	1	10
434.320	1	3
434.662	1	-8
435.003	1	5
435.344	1	9
435.685	1	7
436.026	1	1
436.368	1	-2
436.709	1	-8
437.050	1	6
437.391	1	6
437.732	1	12
438.073	1	9
438.414	1	2
438.756	1	5
439.097	1	7
439.438	1	17
439.779	1	-5
440.120	1	-5
440.461	1	-6
440.802	1	-4
441.143	1	17
441.485	1	0
441.826	1	1
442.167	1	1
442.508	1	0
442.849	1	2
443.190	1	-2
443.531	1	4
443.872	1	-6
444.213	1	-2
444.554	1	-1
444.895	1	-6
445.237	1	-7
445.578	1	14
445.919	1	-1
446.260	1	4
446.601	1	-10
446.942	1	13
447.283	1	-2
447.624	1	8
447.965	1	-12
448.306	1	-2
448.647	1	14
448.988	1	-12
449.329	1	-1
449.670	1	2
450.011	1	7
450.352	1	12
450.693	1	6
451.034	1	7
451.375	1	10
451.716	1	5
452.057	1	13
452.398	1	4
452.739	1	0
453.080	1	15
453.421	1	-7
453.762	1	12
454.103	1	-3
454.444	1	7
454.785	1	-9
455.126	1	4
455.467	1	1
455.808	1	-4
456.149	1	3
456.490	1	2
456.831	1	5
457.172	1	6
457.513	1	12
457.854	1	13
458.195	1	-8
458.536	1	-2
458.877	1	2
459.218	1	8
459.559	1	4
459.899	1	16
460.240	1	3
460.581	1	1
460.922	1	5
461.263	1	6
461.604	1	-1
461.945	1	13
462.286	1	9
462.627	1	2
462.968	1	-1
463.309	1	-2
463.649	1	8
463.990	1	-1
464.331	1	10
464.672	1	1
465.013	1	-12
465.354	1	1
465.695	1	9
466.036	1	2
466.376	1	-6
466.717	1	2
467.058	1	11
467.399	1	3
467.740	1	1
468.081	1	-1
468.422	1	8
468.762	1	-8
469.103	1	1
469.444	1	2
469.785	1	3
470.126	1	1
470.467	1	-5
470.807	1	4
471.148	1	-7
471.489	1	-4
471.830	1	11
472.171	1	2
472.511	1	7
472.852	1	-8
473.193	1	-1
473.534	1	-6
473.875	1	-1
474.215	1	-1
474.556	1	-11
474.897	1	8
475.238	1	1
475.578	1	1
475.919	1	7
476.260	1	-6
476.601	1	3
476.942	1	2
477.282	1	-7
477.623	1	0
477.964	1	12
478.305	1	2
478.645	1	-1
478.986	1	0
479.327	1	2
479.667	1	3
480.008	1	7
480.349	1	1
480.690	1	4
481.030	1	-6
481.371	1	0
481.712	1	15
482.053	1	2
482.393	1	-10
482.734	1	11
483.075	1	8
483.415	1	11
483.756	1	3
484.097	1	-12
484.437	1	-13
484.778	1	2
485.119	1	13
485.459	1	12
485.800	1	2
486.141	1	-7
486.481	1	-1
486.822	1	6
487.163	1	-1
487.503	1	-8
487.844	1	5
488.185	1	1
488.525	1	2
488.866	1	6
489.207	1	16
489.547	1	2
489.888	1	-1
490.228	1	-6
490.569	1	4
490.910	1	-2
491.250	1	-5
491.591	1	2
491.932	1	12
492.272	1	6
492.613	1	0
492.953	1	7
493.294	1	9
493.635	1	-2
493.975	1	6
494.316	1	14
494.656	1	2
494.997	1	-5
495.337	1	1
495.678	1	15
496.019	1	-4
496.359	1	-1
496.700	1	0
497.040	1	4
497.381	1	-16
497.721	1	7
498.062	1	-4
498.403	1	4
498.743	1	10
499.084	1	-5
499.424	1	8
499.765	1	-5
500.105	1	6
500.446	1	9
500.786	1	6
501.127	1	5
501.467	1	5
501.808	1	-12
502.148	1	2
502.489	1	3
502.829	1	4
503.170	1	5
503.510	1	2
503.851	1	-12
504.191	1	-1
504.532	1	-5
504.872	1	5
505.213	1	-7
505.553	1	9
505.894	1	4
506.234	1	7
506.575	1	-6
506.915	1	0
507.256	1	-2
507.596	1	9
507.936	1	5
508.277	1	2
508.617	1	12
508.958	1	12
509.298	1	15
509.639	1	3
509.979	1	-7
510.319	1	0
510.660	1	4
511.000	1	9
511.341	1	2
511.681	1	3
512.022	1	-9
512.362	1	3
512.702	1	-1
513.043	1	-1
513.383	1	-6
513.724	1	13
514.064	1	5
514.404	1	9
514.745	1	3
515.085	1	3
515.425	1	-8
515.766	1	-6
516.106	1	-1
516.447	1	9
516.787	1	4
517.127	1	6
517.468	1	2
517.808	1	-2
518.148	1	-1
518.489	1	2
518.829	1	-2
519.169	1	15
519.510	1	-5
519.850	1	-5
520.190	1	5
520.531	1	4
520.871	1	-5
521.211	1	7
521.552	1	9
521.892	1	0
522.232	1	2
522.573	1	2
522.913	1	6
523.253	1	-3
523.593	1	-10
523.934	1	10
524.274	1	0
524.614	1	4
524.955	1	0
525.295	1	-7
525.635	1	13
525.975	1	1
526.316	1	-4
526.656	1	11
526.996	1	14
527.337	1	3
527.677	1	16
528.017	1	-2
528.357	1	7
528.698	1	-6
529.038	1	6
529.378	1	7
529.718	1	10
530.058	1	-4
530.399	1	14
530.739	1	3
531.079	1	14
531.419	1	8
531.760	1	9
532.100	1	5
532.440	1	-3
532.780	1	-1
533.120	1	-7
533.461	1	17
533.801	1	5
534.141	1	8
534.481	1	5
534.821	1	11
535.162	1	7
535.502	1	8
535.842	1	-5
536.182	1	4
536.522	1	10
536.862	1	4
537.203	1	12
537.543	1	5
537.883	1	9
538.223	1	9
538.563	1	4
538.903	1	-5
539.243	1	2
539.584	1	7
539.924	1	6
540.264	1	-5
540.604	1	8
540.944	1	-7
541.284	1	1
541.624	1	11
541.964	1	12
542.305	1	-6
542.645	1	0
542.985	1	-4
543.325	1	-5
543.665	1	10
544.005	1	3
544.345	1	-14
544.685	1	13
545.025	1	1
545.365	1	4
545.705	1	-2
546.045	1	5
546.386	1	5
546.726	1	8
547.066	1	-8
547.406	1	10
547.746	1	8
548.086	1	8
548.426	1	2
548.766	1	7
549.106	1	-1
549.446	1	3
549.786	1	6
550.126	1	0
550.466	1	0
550.806	1	11
551.146	1	1
551.486	1	4
551.826	1	7
552.166	1	2
552.506	1	2
552.846	1	4
553.186	1	-1
553.526	1	-1
553.866	1	0
554.206	1	4
554.546	1	-9
554.886	1	10
555.226	1	-4
555.566	1	8
555.906	1	0
556.246	1	3
556.586	1	7
556.926	1	9
557.266	1	9
557.606	1	-5
557.946	1	5
558.286	1	5
558.626	1	9
558.966	1	-2
559.306	1	-1
559.646	1	2
559.986	1	-6
560.325	1	1
560.665	1	6
561.005	1	8
561.345	1	1
561.685	1	-3
562.025	1	-1
562.365	1	6
562.705	1	1
563.045	1	4
563.385	1	5
563.725	1	13
564.064	1	11
564.404	1	-6
564.744	1	0
565.084	1	-8
565.424	1	8
565.764	1	20
566.104	1	6
566.444	1	1
566.783	1	3
567.123	1	14
567.463	1	-2
567.803	1	-11
568.143	1	-3
568.483	1	4
568.823	1	13
569.162	1	6
569.502	1	3
569.842	1	-4
570.182	1	-3
570.522	1	5
570.862	1	3
571.201	1	6
571.541	1	-5
571.881	1	5
572.221	1	6
572.561	1	2
572.900	1	9
573.240	1	-4
573.580	1	5
573.920	1	-3
574.260	1	-1
574.599	1	-2
574.939	1	-4
575.279	1	3
575.619	1	10
575.959	1	-6
576.298	1	2
576.638	1	4
576.978	1	-6
577.318	1	7
577.657	1	-12
577.997	1	-1
578.337	1	-7
578.677	1	-11
579.016	1	11
579.356	1	-13
579.696	1	11
580.036	1	2
580.375	1	3
580.715	1	0
581.055	1	7
581.394	1	-12
581.734	1	12
582.074	1	1
582.414	1	5
582.753	1	3
583.093	1	-3
583.433	1	-4
583.772	1	7
584.112	1	2
584.452	1	0
584.791	1	9
585.131	1	5
585.471	1	0
585.811	1	8
586.150	1	-1
586.490	1	-9
586.830	1	-7
587.169	1	-2
587.509	1	2
587.849	1	10
588.188	1	-6
588.528	1	1
588.867	1	8
589.207	1	-5
589.547	1	2
589.886	1	-5
590.226	1	-3
590.566	1	-2
590.905	1	5
591.245	1	-3
591.585	1	-4
591.924	1	-7
592.264	1	-2
592.603	1	-8
592.943	1	2
593.283	1	7
593.622	1	-2
593.962	1	8
594.301	1	8
594.641	1	-9
594.981	1	-1
595.320	1	6
595.660	1	-2
595.999	1	-1
596.339	1	5
596.678	1	1
597.018	1	-2
597.358	1	-4
597.697	1	4
598.037	1	3
598.376	1	1
598.716	1	-2
599.055	1	-4
599.395	1	3
599.734	1	5
600.074	1	-2
600.413	1	1
600.753	1	2
601.092	1	-4
601.432	1	-2
601.771	1	1
602.111	1	-11
602.451	1	3
602.790	1	-1
603.130	1	6
603.469	1	-3
603.809	1	4
604.148	1	6
604.487	1	2
604.827	1	-6
605.166	1	-6
605.506	1	9
605.845	1	1
606.185	1	13
606.524	1	-10
606.864	1	-9
607.203	1	9
607.543	1	0
607.882	1	-4
608.222	1	10
608.561	1	8
608.901	1	0
609.240	1	5
609.579	1	10
609.919	1	-5
610.258	1	10
610.598	1	11
610.937	1	1
611.277	1	7
611.616	1	-12
611.955	1	9
612.295	1	-6
612.634	1	-2
612.974	1	7
613.313	1	10
613.652	1	-9
613.992	1	10
614.331	1	3
614.671	1	5
615.010	1	5
615.349	1	1
615.689	1	10
616.028	1	5
616.368	1	-5
616.707	1	-1
617.046	1	1
617.386	1	-5
617.725	1	8
618.064	1	7
618.404	1	5
618.743	1	0
619.082	1	2
619.422	1	10
619.761	1	8
620.100	1	8
620.440	1	-5
620.779	1	-4
621.118	1	6
621.458	1	6
621.797	1	2
622.136	1	-1
622.476	1	10
622.815	1	0
623.154	1	8
623.494	1	4
623.833	1	0
624.172	1	1
624.511	1	3
624.851	1	-1
625.190	1	3
625.529	1	11
625.869	1	3
626.208	1	-2
626.547	1	8
626.886	1	4
627.226	1	-2
627.565	1	5
627.904	1	9
628.243	1	-4
628.583	1	2
628.922	1	-7
629.261	1	4
629.600	1	6
629.940	1	4
630.279	1	-11
630.618	1	0
630.957	1	0
631.297	1	-2
631.636	1	1
631.975	1	6
632.314	1	2
632.653	1	-11
632.993	1	13
633.332	1	11
633.671	1	0
634.010	1	8
634.349	1	0
634.689	1	3
635.028	1	9
635.367	1	1
635.706	1	-12
636.045	1	9
636.384	1	7
636.724	1	2
637.063	1	7
637.402	1	8
637.741	1	12
638.080	1	1
638.419	1	13
638.759	1	3
639.098	1	4
639.437	1	-7
639.776	1	2
640.115	1	-4
640.454	1	12
640.793	1	8
641.132	1	-8
641.472	1	0
641.811	1	10
642.150	1	11
642.489	1	-1
642.828	1	4
643.167	1	8
643.506	1	-3
643.845	1	3
644.184	1	7
644.524	1	-2
644.863	1	-1
645.202	1	0
645.541	1	-5
645.880	1	6
646.219	1	2
646.558	1	6
646.897	1	-8
647.236	1	6
647.575	1	10
647.914	1	-1
648.253	1	10
648.592	1	6
648.931	1	14
649.270	1	5
649.610	1	4
649.949	1	1
650.288	1	-4
650.627	1	-1
650.966	1	-2
651.305	1	2
651.644	1	0
651.983	1	8
652.322	1	4
652.661	1	10
653.000	1	-9
653.339	1	3
653.678	1	3
654.017	1	-1
654.356	1	9
654.695	1	1
655.034	1	-3
655.373	1	2
655.712	1	-3
656.051	1	6
656.390	1	0
656.729	1	3
657.068	1	9
657.406	1	10
657.745	1	1
658.084	1	14
658.423	1	-2
658.762	1	-8
659.101	1	-1
659.440	1	8
659.779	1	-1
660.118	1	-2
660.457	1	-4
660.796	1	-3
661.135	1	6
661.474	1	8
661.813	1	-1
662.152	1	9
662.491	1	-1
662.829	1	-11
663.168	1	-5
663.507	1	2
663.846	1	11
664.185	1	2
664.524	1	-15
664.863	1	5
665.202	1	-7
665.541	1	-1
665.879	1	-2
666.218	1	0
666.557	1	7
666.896	1	2
667.235	1	8
667.574	1	7
667.913	1	2
668.251	1	0
668.590	1	0
668.929	1	14
669.268	1	6
669.607	1	-2
669.946	1	10
670.285	1	0
670.623	1	1
670.962	1	-5
671.301	1	-5
671.640	1	-6
671.979	1	10
672.317	1	-4
672.656	1	1
672.995	1	-5
673.334	1	2
673.673	1	15
674.011	1	5
674.350	1	-10
674.689	1	-1
675.028	1	13
675.367	1	8
675.705	1	-2
676.044	1	-12
676.383	1	4
676.722	1	3
677.060	1	-7
677.399	1	8
677.738	1	5
678.077	1	4
678.416	1	-6
678.754	1	-4
679.093	1	8
679.432	1	-18
679.771	1	-6
680.109	1	2
680.448	1	-3
680.787	1	1
681.125	1	8
681.464	1	6
681.803	1	-4
682.142	1	12
682.480	1	2
682.819	1	3
683.158	1	3
683.496	1	1
683.835	1	3
684.174	1	-1
684.512	1	5
684.851	1	0
685.190	1	-2
685.529	1	-4
685.867	1	7
686.206	1	3
686.545	1	6
686.883	1	-6
687.222	1	-2
687.561	1	7
687.899	1	4
688.238	1	3
688.577	1	-10
688.746	1	14