File: Analysis/GaN_68K_200ms/GaN_sample E_spot4_UVVIS_68 K_200um_200 ms 2x2mm1_532.txt
340.368	1	-5
340.710	1	1
341.052	1	4
341.394	1	-5
341.737	1	10
342.079	1	0
342.421	1	-5
342.763	1	-5
343.105	1	11
343.447	1	9
343.789	1	-5
344.131	1	3
344.473	1	6
344.815	1	1
345.157	1	-2
345.499	1	3
345.841	1	-2
346.183	1	-3
346.526	1	3
346.868	1	4
347.210	1	3
347.552	1	-2
347.894	1	4
348.236	1	5
348.578	1	3
348.920	1	5
349.262	1	-7
349.604	1	3
349.946	1	6
350.288	1	7
350.630	1	-2
350.972	1	-3
351.314	1	1
351.656	1	-4
351.998	1	0
352.340	1	1
352.682	1	-14
353.024	1	3
353.366	1	5
353.708	1	5
354.050	1	2
354.392	1	6
354.734	1	-1
355.076	1	4
355.418	1	-11
355.760	1	3
356.102	1	-1
356.444	1	0
356.785	1	6
357.127	1	1
357.469	1	-5
357.811	1	12
358.153	1	2
358.495	1	9
358.837	1	-3
359.179	1	10
359.521	1	4
359.863	1	-6
360.205	1	2
360.547	1	-3
360.889	1	3
361.231	1	-3
361.572	1	-2
361.914	1	-3
362.256	1	4
362.598	1	0
362.940	1	3
363.282	1	0
363.624	1	-6
363.966	1	1
364.308	1	-2
364.649	1	-1
364.991	1	-4
365.333	1	18
365.675	1	5
366.017	1	6
366.359	1	-3
366.701	1	-3
367.042	1	6
367.384	1	5
367.726	1	17
368.068	1	-6
368.410	1	-4
368.752	1	2
369.093	1	0
369.435	1	1
369.777	1	1
370.119	1	1
370.461	1	1
370.803	1	-14
371.144	1	9
371.486	1	14
371.828	1	1
372.170	1	11
372.512	1	-18
372.853	1	5
373.195	1	-3
373.537	1	2
373.879	1	9
374.220	1	-7
374.562	1	3
374.904	1	13
375.246	1	-10
375.588	1	3
375.929	1	-2
376.271	1	7
376.613	1	-1
376.955	1	-9
377.296	1	13
377.638	1	-5
377.980	1	12
378.321	1	4
378.663	1	-4
379.005	1	11
379.347	1	2
379.688	1	-4
380.030	1	-1
380.372	1	6
380.714	1	10
381.055	1	-4
381.397	1	-9
381.739	1	9
382.080	1	-13
382.422	1	8
382.764	1	3
383.105	1	-2
383.447	1	7
383.789	1	4
384.130	1	7
384.472	1	-11
384.814	1	2
385.156	1	10
385.497	1	13
385.839	1	-2
386.180	1	7
386.522	1	1
386.864	1	4
387.205	1	2
387.547	1	-1
387.889	1	5
388.230	1	3
388.572	1	-1
388.914	1	11
389.255	1	6
389.597	1	0
389.939	1	7
390.280	1	13
390.622	1	5
390.963	1	6
391.305	1	13
391.647	1	3
391.988	1	-6
392.330	1	12
392.671	1	8
393.013	1	9
393.355	1	13
393.696	1	-2
394.038	1	-2
394.379	1	8
394.721	1	4
395.062	1	-1
395.404	1	-4
395.746	1	2
396.087	1	0
396.429	1	9
396.770	1	3
397.112	1	-5
397.453	1	-10
397.795	1	0
398.136	1	1
398.478	1	2
398.819	1	8
399.161	1	3
399.503	1	1
399.844	1	1
400.186	1	9
400.527	1	-1
400.869	1	3
401.210	1	-8
401.552	1	17
401.893	1	-1
402.235	1	7
402.576	1	3
402.918	1	0
403.259	1	-6
403.601	1	-8
403.942	1	5
404.284	1	0
404.625	1	-2
404.967	1	-3
405.308	1	1
405.649	1	2
405.991	1	14
406.332	1	5
406.674	1	7
407.015	1	-3
407.357	1	-7
407.698	1	-3
408.040	1	-6
408.381	1	6
408.722	1	-2
409.064	1	-3
409.405	1	6
409.747	1	-8
410.088	1	9
410.430	1	7
410.771	1	0
411.112	1	11
411.454	1	12
411.795	1	9
412.137	1	14
412.478	1	1
412.819	1	-3
413.161	1	-13
413.502	1	4
413.844	1	1
414.185	1	0
414.526	1	6
414.868	1	5
415.209	1	0
415.550	1	-8
415.892	1	-3
416.233	1	-6
416.575	1	10
416.916	1	-8
417.257	1	4
417.599	1	4
417.940	1	1
418.281	1	1
418.623	1	2
418.964	1	1
419.305	1	4
419.647	1	7
419.988	1	-4
420.329	1	4
420.671	1	3
421.012	1	4
421.353	1	1
421.695	1	11
422.036	1	-9
422.377	1	1
422.718	1	1
423.060	1	-5
423.401	1	8
423.742	1	1
424.084	1	-2
424.425	1	-1
424.766	1	4
425.107	1	0
425.449	1	5
425.790	1	-5
426.131	1	-9
426.472	1	-14
426.814	1	2
427.155	1	-3
427.496	1	12
427.837	1	0
428.179	1	-8
428.520	1	-4
428.861	1	2
429.202	1	5
429.544	1	-4
429.885	1	-5
430.226	1	1
430.567	1	6
430.909	1	-12
431.250	1	-7
431.591	1	4
431.932	1	10
432.273	1	-5
432.615	1	3
432.956	1	-4
433.297	1	12
433.638	1	-5
433.979	1	0
434.320	1	5
434.662	1	-3
435.003	1	8
435.344	1	4
435.685	1	2
436.026	1	3
436.368	1	0
436.709	1	0
437.050	1	0
437.391	1	6
437.732	1	-8
438.073	1	6
438.414	1	4
438.756	1	12
439.097	1	3
439.438	1	6
439.779	1	-2
440.120	1	6
440.461	1	-7
440.802	1	6
441.143	1	14
441.485	1	-1
441.826	1	-11
442.167	1	4
442.508	1	5
442.849	1	10
443.190	1	-5
443.531	1	-4
443.872	1	-1
444.213	1	-7
444.554	1	-2
444.895	1	-8
445.237	1	-2
445.578	1	9
445.919	1	1
446.260	1	6
446.601	1	-2
446.942	1	0
447.283	1	-6
447.624	1	12
447.965	1	-14
448.306	1	-5
448.647	1	11
448.988	1	-18
449.329	1	6
449.670	1	-1
450.011	1	-4
450.352	1	9
450.693	1	7
451.034	1	5
451.375	1	2
451.716	1	10
452.057	1	16
452.398	1	-5
452.739	1	-2
453.080	1	6
453.421	1	-3
453.762	1	5
454.103	1	10
454.444	1	10
454.785	1	-1
455.126	1	3
455.467	1	7
455.808	1	-6
456.149	1	1
456.490	1	-4
456.831	1	11
457.172	1	3
457.513	1	4
457.854	1	4
458.195	1	-2
458.536	1	4
458.877	1	2
459.218	1	8
459.559	1	6
459.899	1	11
460.240	1	1
460.581	1	7
460.922	1	-2
461.263	1	3
461.604	1	0
461.945	1	5
462.286	1	2
462.627	1	-4
462.968	1	-3
463.309	1	-1
463.649	1	0
463.990	1	11
464.331	1	3
464.672	1	1
465.013	1	0
465.354	1	4
465.695	1	-2
466.036	1	5
466.376	1	-5
466.717	1	-1
467.058	1	6
467.399	1	9
467.740	1	2
468.081	1	10
468.422	1	9
468.762	1	-8
469.103	1	-8
469.444	1	0
469.785	1	-1
470.126	1	2
470.467	1	-4
470.807	1	0
471.148	1	-2
471.489	1	0
471.830	1	6
472.171	1	12
472.511	1	2
472.852	1	-8
473.193	1	-5
473.534	1	5
473.875	1	6
474.215	1	1
474.556	1	-9
474.897	1	8
475.238	1	7
475.578	1	10
475.919	1	7
476.260	1	9
476.601	1	-8
476.942	1	0
477.282	1	-14
477.623	1	-5
477.964	1	14
478.305	1	4
478.645	1	-2
478.986	1	-4
479.327	1	2
479.667	1	6
480.008	1	5
480.349	1	-7
480.690	1	7
481.030	1	-5
481.371	1	0
481.712	1	7
482.053	1	10
482.393	1	-12
482.734	1	-1
483.075	1	9
483.415	1	7
483.756	1	9
484.097	1	-8
484.437	1	-7
484.778	1	6
485.119	1	7
485.459	1	5
485.800	1	-2
486.141	1	-3
486.481	1	-6
486.822	1	1
487.163	1	-6
487.503	1	-13
487.844	1	0
488.185	1	-3
488.525	1	6
488.866	1	6
489.207	1	13
489.547	1	-16
489.888	1	0
490.228	1	2
490.569	1	-5
490.910	1	-8
491.250	1	-5
491.591	1	-13
491.932	1	5
492.272	1	7
492.613	1	-10
492.953	1	4
493.294	1	6
493.635	1	-1
493.975	1	5
494.316	1	10
494.656	1	2
494.997	1	-4
495.337	1	6
495.678	1	6
496.019	1	-6
496.359	1	8
496.700	1	4
497.040	1	1
497.381	1	-17
497.721	1	-5
498.062	1	1
498.403	1	3
498.743	1	4
499.084	1	-6
499.424	1	10
499.765	1	0
500.105	1	12
500.446	1	6
500.786	1	6
501.127	1	18
501.467	1	-2
501.808	1	-10
502.148	1	1
502.489	1	4
502.829	1	0
503.170	1	10
503.510	1	-5
503.851	1	-19
504.191	1	2
504.532	1	-10
504.872	1	4
505.213	1	-4
505.553	1	8
505.894	1	2
506.234	1	13
506.575	1	-2
506.915	1	4
507.256	1	-2
507.596	1	-1
507.936	1	4
508.277	1	0
508.617	1	10
508.958	1	11
509.298	1	11
509.639	1	1
509.979	1	11
510.319	1	-5
510.660	1	3
511.000	1	5
511.341	1	-8
511.681	1	-3
512.022	1	-2
512.362	1	8
512.702	1	-5
513.043	1	6
513.383	1	-6
513.724	1	10
514.064	1	2
514.404	1	5
514.745	1	3
515.085	1	1
515.425	1	-11
515.766	1	1
516.106	1	-6
516.447	1	4
516.787	1	-5
517.127	1	-1
517.468	1	3
517.808	1	1
518.148	1	8
518.489	1	5
518.829	1	-6
519.169	1	10
519.510	1	6
519.850	1	-1
520.190	1	10
520.531	1	7
520.871	1	-8
521.211	1	5
521.552	1	-1
521.892	1	-2
522.232	1	-8
522.573	1	1
522.913	1	-10
523.253	1	5
523.593	1	-5
523.934	1	-4
524.274	1	-7
524.614	1	-1
524.955	1	-5
525.295	1	-4
525.635	1	14
525.975	1	-3
526.316	1	1
526.656	1	17
526.996	1	13
527.337	1	8
527.677	1	8
528.017	1	-10
528.357	1	10
528.698	1	-4
529.038	1	3
529.378	1	6
529.718	1	10
530.058	1	-2
530.399	1	14
530.739	1	1
531.079	1	8
531.419	1	9
531.760	1	3
532.100	1	8
532.440	1	9
532.780	1	4
533.120	1	-8
533.461	1	15
533.801	1	0
534.141	1	7
534.481	1	2
534.821	1	10
535.162	1	-3
535.502	1	8
535.842	1	8
536.182	1	-3
536.522	1	12
536.862	1	2
537.203	1	4
537.543	1	7
537.883	1	4
538.223	1	8
538.563	1	5
538.903	1	2
539.243	1	-1
539.584	1	2
539.924	1	15
540.264	1	1
540.604	1	5
540.944	1	-2
541.284	1	4
541.624	1	4
541.964	1	8
542.305	1	-2
542.645	1	-7
542.985	1	-10
543.325	1	-4
543.665	1	12
544.005	1	1
544.345	1	-3
544.685	1	6
545.025	1	-2
545.365	1	11
545.705	1	8
546.045	1	13
546.386	1	-1
546.726	1	3
547.066	1	-5
547.406	1	1
547.746	1	9
548.086	1	7
548.426	1	10
548.766	1	4
549.106	1	3
549.446	1	3
549.786	1	9
550.126	1	2
550.466	1	-9
550.806	1	4
551.146	1	3
551.486	1	-3
551.826	1	9
552.166	1	-1
552.506	1	2
552.846	1	4
553.186	1	10
553.526	1	2
553.866	1	9
554.206	1	2
554.546	1	-6
554.886	1	0
555.226	1	-2
555.566	1	4
555.906	1	-2
556.246	1	-1
556.586	1	3
556.926	1	4
557.266	1	12
557.606	1	3
557.946	1	13
558.286	1	-3
558.626	1	-1
558.966	1	-1
559.306	1	-8
559.646	1	-5
559.986	1	-4
560.325	1	-1
560.665	1	4
561.005	1	2
561.345	1	3
561.685	1	-1
562.025	1	2
562.365	1	5
562.705	1	0
563.045	1	7
563.385	1	-5
563.725	1	-2
564.064	1	2
564.404	1	4
564.744	1	3
565.084	1	-6
565.424	1	-2
565.764	1	13
566.104	1	-1
566.444	1	6
566.783	1	0
567.123	1	11
567.463	1	-6
567.803	1	-4
568.143	1	-5
568.483	1	-11
568.823	1	10
569.162	1	2
569.502	1	2
569.842	1	1
570.182	1	-7
570.522	1	11
570.862	1	-7
571.201	1	-1
571.541	1	-6
571.881	1	6
572.221	1	12
572.561	1	-5
572.900	1	5
573.240	1	-10
573.580	1	9
573.920	1	3
574.260	1	1
574.599	1	-3
574.939	1	12
575.279	1	10
575.619	1	-5
575.959	1	-6
576.298	1	2
576.638	1	1
576.978	1	5
577.318	1	0
577.657	1	-15
577.997	1	-5
578.337	1	0
578.677	1	-5
579.016	1	15
579.356	1	-2
579.696	1	4
580.036	1	0
580.375	1	-4
580.715	1	10
581.055	1	10
581.394	1	-7
581.734	1	5
582.074	1	-1
582.414	1	8
582.753	1	-4
583.093	1	-5
583.433	1	-17
583.772	1	1
584.112	1	-9
584.452	1	5
584.791	1	1
585.131	1	-5
585.471	1	-8
585.811	1	-4
586.150	1	4
586.490	1	-2
586.830	1	-18
587.169	1	-1
587.509	1	-1
587.849	1	5
588.188	1	-2
588.528	1	-6
588.867	1	0
589.207	1	-13
589.547	1	3
589.886	1	-11
590.226	1	6
590.566	1	0
590.905	1	1
591.245	1	2
591.585	1	-4
591.924	1	0
592.264	1	1
592.603	1	-1
592.943	1	3
593.283	1	-4
593.622	1	-1
593.962	1	10
594.301	1	4
594.641	1	-9
594.981	1	-5
595.320	1	7
595.660	1	0
595.999	1	0
596.339	1	-1
596.678	1	-2
597.018	1	-3
597.358	1	9
597.697	1	-1
598.037	1	0
598.376	1	0
598.716	1	-6
599.055	1	6
599.395	1	5
599.734	1	-1
600.074	1	-2
600.413	1	1
600.753	1	5
601.092	1	-2
601.432	1	-7
601.771	1	8
602.111	1	-4
602.451	1	0
602.790	1	-1
603.130	1	6
603.469	1	-4
603.809	1	7
604.148	1	-3
604.487	1	8
604.827	1	-10
605.166	1	-6
605.506	1	6
605.845	1	-1
606.185	1	4
606.524	1	-8
606.864	1	-1
607.203	1	9
607.543	1	-7
607.882	1	-1
608.222	1	6
608.561	1	5
608.901	1	-1
609.240	1	-3
609.579	1	3
609.919	1	-2
610.258	1	17
610.598	1	1
610.937	1	2
611.277	1	0
611.616	1	-6
611.955	1	5
612.295	1	-5
612.634	1	4
612.974	1	10
613.313	1	2
613.652	1	-3
613.992	1	-6
614.331	1	1
614.671	1	-7
615.010	1	-1
615.349	1	-2
615.689	1	1
616.028	1	-2
616.368	1	1
616.707	1	-3
617.046	1	-6
617.386	1	-7
617.725	1	5
618.064	1	8
618.404	1	18
618.743	1	-5
619.082	1	-1
619.422	1	-3
619.761	1	0
620.100	1	-2
620.440	1	2
620.779	1	-12
621.118	1	3
621.458	1	4
621.797	1	4
622.136	1	4
622.476	1	5
622.815	1	4
623.154	1	-1
623.494	1	1
623.833	1	-11
624.172	1	17
624.511	1	1
624.851	1	-12
625.190	1	-9
625.529	1	6
625.869	1	-3
626.208	1	-3
626.547	1	6
626.886	1	-5
627.226	1	5
627.565	1	14
627.904	1	6
628.243	1	-3
628.583	1	-1
628.922	1	0
629.261	1	3
629.600	1	6
629.940	1	11
630.279	1	-14
630.618	1	7
630.957	1	-3
631.297	1	1
631.636	1	-6
631.975	1	9
632.314	1	9
632.653	1	-7
632.993	1	6
633.332	1	7
633.671	1	-9
634.010	1	2
634.349	1	8
634.689	1	7
635.028	1	2
635.367	1	0
635.706	1	-1
636.045	1	-2
636.384	1	7
636.724	1	0
637.063	1	9
637.402	1	9
637.741	1	10
638.080	1	5
638.419	1	-2
638.759	1	3
639.098	1	-2
639.437	1	4
639.776	1	-4
640.115	1	-2
640.454	1	21
640.793	1	7
641.132	1	4
641.472	1	-3
641.811	1	0
642.150	1	-4
642.489	1	-3
642.828	1	4
643.167	1	8
643.506	1	-8
643.845	1	-4
644.184	1	16
644.524	1	-10
644.863	1	-7
645.202	1	3
645.541	1	-6
645.880	1	4
646.219	1	0
646.558	1	4
646.897	1	-5
647.236	1	4
647.575	1	5
647.914	1	-4
648.253	1	5
648.592	1	3
648.931	1	12
649.270	1	6
649.610	1	6
649.949	1	-1
650.288	1	-7
650.627	1	3
650.966	1	1
651.305	1	2
651.644	1	-4
651.983	1	3
652.322	1	4
652.661	1	1
653.000	1	-2
653.339	1	2
653.678	1	-1
654.017	1	-7
654.356	1	1
654.695	1	9
655.034	1	-5
655.373	1	-3
655.712	1	11
656.051	1	4
656.390	1	6
656.729	1	5
657.068	1	-5
657.406	1	4
657.745	1	-10
658.084	1	6
658.423	1	-6
658.762	1	3
659.101	1	1
659.440	1	3
659.779	1	-6
660.118	1	0
660.457	1	-6
660.796	1	-6
661.135	1	6
661.474	1	-3
661.813	1	-3
662.152	1	-4
662.491	1	-5
662.829	1	-2
663.168	1	0
663.507	1	0
663.846	1	3
664.185	1	2
664.524	1	-8
664.863	1	0
665.202	1	-11
665.541	1	-2
665.879	1	6
666.218	1	0
666.557	1	4
666.896	1	-16
667.235	1	2
667.574	1	9
667.913	1	-6
668.251	1	1
668.590	1	2
668.929	1	1
669.268	1	3
669.607	1	-5
669.946	1	12
670.285	1	1
670.623	1	1
670.962	1	8
671.301	1	-5
671.640	1	-11
671.979	1	8
672.317	1	-7
672.656	1	7
672.995	1	11
673.334	1	1
673.673	1	13
674.011	1	5
674.350	1	-5
674.689	1	-11
675.028	1	6
675.367	1	5
675.705	1	-4
676.044	1	-8
676.383	1	-11
676.722	1	3
677.060	1	4
677.399	1	3
677.738	1	-4
678.077	1	-6
678.416	1	-1
678.754	1	-4
679.093	1	-1
679.432	1	-7
679.771	1	-4
680.109	1	9
680.448	1	-3
680.787	1	8
681.125	1	16
681.464	1	-9
681.803	1	-16
682.142	1	14
682.480	1	2
682.819	1	-2
683.158	1	-2
683.496	1	-8
683.835	1	-1
684.174	1	4
684.512	1	6
684.851	1	-10
685.190	1	14
685.529	1	-6
685.867	1	6
686.206	1	-3
686.545	1	6
686.883	1	-1
687.222	1	-6
687.561	1	-3
687.899	1	1
688.238	1	4
688.577	1	-3
688.746	1	3