File: Analysis/GaN_68K_200ms/GaN_sample E_spot4_UVVIS_68 K_200um_200 ms 2x2mm1_538.txt
340.368	1	-6
340.710	1	-2
341.052	1	6
341.394	1	5
341.737	1	10
342.079	1	0
342.421	1	-8
342.763	1	-14
343.105	1	4
343.447	1	0
343.789	1	-1
344.131	1	-1
344.473	1	-11
344.815	1	12
345.157	1	1
345.499	1	5
345.841	1	-8
346.183	1	0
346.526	1	8
346.868	1	5
347.210	1	5
347.552	1	4
347.894	1	-4
348.236	1	3
348.578	1	1
348.920	1	0
349.262	1	-5
349.604	1	7
349.946	1	3
350.288	1	2
350.630	1	-6
350.972	1	-3
351.314	1	-2
351.656	1	4
351.998	1	-1
352.340	1	0
352.682	1	-7
353.024	1	-1
353.366	1	3
353.708	1	-4
354.050	1	1
354.392	1	0
354.734	1	0
355.076	1	-2
355.418	1	-4
355.760	1	8
356.102	1	-4
356.444	1	-9
356.785	1	14
357.127	1	-3
357.469	1	-1
357.811	1	9
358.153	1	6
358.495	1	11
358.837	1	3
359.179	1	9
359.521	1	5
359.863	1	-13
360.205	1	-5
360.547	1	0
360.889	1	10
361.231	1	0
361.572	1	-8
361.914	1	3
362.256	1	7
362.598	1	0
362.940	1	-2
363.282	1	3
363.624	1	2
363.966	1	2
364.308	1	0
364.649	1	-5
364.991	1	2
365.333	1	5
365.675	1	-1
366.017	1	2
366.359	1	0
366.701	1	-7
367.042	1	10
367.384	1	9
367.726	1	10
368.068	1	-2
368.410	1	6
368.752	1	-10
369.093	1	14
369.435	1	-7
369.777	1	0
370.119	1	5
370.461	1	0
370.803	1	-6
371.144	1	7
371.486	1	4
371.828	1	-1
372.170	1	5
372.512	1	-7
372.853	1	3
373.195	1	4
373.537	1	8
373.879	1	1
374.220	1	-1
374.562	1	-8
374.904	1	2
375.246	1	0
375.588	1	5
375.929	1	14
376.271	1	-4
376.613	1	-2
376.955	1	-5
377.296	1	1
377.638	1	1
377.980	1	6
378.321	1	4
378.663	1	-5
379.005	1	1
379.347	1	3
379.688	1	-5
380.030	1	3
380.372	1	-1
380.714	1	4
381.055	1	0
381.397	1	-6
381.739	1	13
382.080	1	-12
382.422	1	7
382.764	1	4
383.105	1	7
383.447	1	11
383.789	1	5
384.130	1	6
384.472	1	0
384.814	1	3
385.156	1	17
385.497	1	16
385.839	1	7
386.180	1	3
386.522	1	6
386.864	1	5
387.205	1	-1
387.547	1	-12
387.889	1	11
388.230	1	-3
388.572	1	1
388.914	1	14
389.255	1	5
389.597	1	6
389.939	1	7
390.280	1	10
390.622	1	0
390.963	1	5
391.305	1	8
391.647	1	1
391.988	1	-2
392.330	1	5
392.671	1	10
393.013	1	7
393.355	1	12
393.696	1	-4
394.038	1	-4
394.379	1	-7
394.721	1	5
395.062	1	-3
395.404	1	1
395.746	1	-7
396.087	1	5
396.429	1	9
396.770	1	5
397.112	1	-5
397.453	1	0
397.795	1	9
398.136	1	1
398.478	1	2
398.819	1	7
399.161	1	3
399.503	1	5
399.844	1	-2
400.186	1	17
400.527	1	8
400.869	1	9
401.210	1	-3
401.552	1	17
401.893	1	11
402.235	1	3
402.576	1	12
402.918	1	-12
403.259	1	-8
403.601	1	-7
403.942	1	12
404.284	1	-1
404.625	1	6
404.967	1	0
405.308	1	1
405.649	1	10
405.991	1	18
406.332	1	-7
406.674	1	-6
407.015	1	-5
407.357	1	8
407.698	1	-14
408.040	1	1
408.381	1	0
408.722	1	1
409.064	1	-6
409.405	1	-1
409.747	1	-1
410.088	1	8
410.430	1	10
410.771	1	4
411.112	1	0
411.454	1	16
411.795	1	9
412.137	1	8
412.478	1	8
412.819	1	-7
413.161	1	1
413.502	1	2
413.844	1	-1
414.185	1	6
414.526	1	1
414.868	1	9
415.209	1	-3
415.550	1	-1
415.892	1	2
416.233	1	1
416.575	1	2
416.916	1	-2
417.257	1	12
417.599	1	7
417.940	1	-2
418.281	1	-4
418.623	1	-1
418.964	1	7
419.305	1	-5
419.647	1	7
419.988	1	-6
420.329	1	-2
420.671	1	3
421.012	1	4
421.353	1	-3
421.695	1	7
422.036	1	-5
422.377	1	-3
422.718	1	-1
423.060	1	0
423.401	1	7
423.742	1	-7
424.084	1	-1
424.425	1	-4
424.766	1	7
425.107	1	3
425.449	1	3
425.790	1	0
426.131	1	-4
426.472	1	3
426.814	1	5
427.155	1	2
427.496	1	10
427.837	1	-6
428.179	1	0
428.520	1	-8
428.861	1	9
429.202	1	10
429.544	1	-1
429.885	1	-5
430.226	1	-1
430.567	1	4
430.909	1	-6
431.250	1	-6
431.591	1	1
431.932	1	5
432.273	1	-2
432.615	1	5
432.956	1	-5
433.297	1	10
433.638	1	-2
433.979	1	3
434.320	1	-2
434.662	1	0
435.003	1	8
435.344	1	16
435.685	1	6
436.026	1	6
436.368	1	-5
436.709	1	-1
437.050	1	4
437.391	1	4
437.732	1	-2
438.073	1	8
438.414	1	-1
438.756	1	6
439.097	1	5
439.438	1	6
439.779	1	-3
440.120	1	5
440.461	1	2
440.802	1	6
441.143	1	14
441.485	1	4
441.826	1	-10
442.167	1	0
442.508	1	3
442.849	1	12
443.190	1	1
443.531	1	-4
443.872	1	5
444.213	1	2
444.554	1	1
444.895	1	2
445.237	1	-3
445.578	1	6
445.919	1	0
446.260	1	6
446.601	1	-6
446.942	1	-6
447.283	1	-5
447.624	1	0
447.965	1	-4
448.306	1	2
448.647	1	11
448.988	1	-21
449.329	1	-1
449.670	1	4
450.011	1	5
450.352	1	7
450.693	1	7
451.034	1	1
451.375	1	4
451.716	1	7
452.057	1	9
452.398	1	7
452.739	1	1
453.080	1	7
453.421	1	-4
453.762	1	10
454.103	1	8
454.444	1	2
454.785	1	-5
455.126	1	-1
455.467	1	12
455.808	1	4
456.149	1	-2
456.490	1	-4
456.831	1	10
457.172	1	2
457.513	1	11
457.854	1	2
458.195	1	-9
458.536	1	5
458.877	1	-9
459.218	1	8
459.559	1	6
459.899	1	11
460.240	1	0
460.581	1	11
460.922	1	1
461.263	1	6
461.604	1	-10
461.945	1	5
462.286	1	14
462.627	1	-6
462.968	1	-4
463.309	1	1
463.649	1	0
463.990	1	7
464.331	1	4
464.672	1	1
465.013	1	-9
465.354	1	9
465.695	1	1
466.036	1	0
466.376	1	-10
466.717	1	-5
467.058	1	17
467.399	1	-5
467.740	1	5
468.081	1	7
468.422	1	7
468.762	1	-4
469.103	1	-7
469.444	1	-1
469.785	1	-2
470.126	1	7
470.467	1	-1
470.807	1	3
471.148	1	-12
471.489	1	-2
471.830	1	7
472.171	1	5
472.511	1	12
472.852	1	-7
473.193	1	-13
473.534	1	-2
473.875	1	12
474.215	1	-6
474.556	1	5
474.897	1	1
475.238	1	-8
475.578	1	-6
475.919	1	-2
476.260	1	5
476.601	1	-6
476.942	1	0
477.282	1	-10
477.623	1	2
477.964	1	5
478.305	1	-4
478.645	1	-12
478.986	1	1
479.327	1	-4
479.667	1	-1
480.008	1	10
480.349	1	0
480.690	1	4
481.030	1	2
481.371	1	-9
481.712	1	0
482.053	1	13
482.393	1	-9
482.734	1	9
483.075	1	1
483.415	1	6
483.756	1	13
484.097	1	-6
484.437	1	-13
484.778	1	6
485.119	1	3
485.459	1	8
485.800	1	-2
486.141	1	-12
486.481	1	3
486.822	1	-3
487.163	1	-6
487.503	1	-10
487.844	1	10
488.185	1	5
488.525	1	5
488.866	1	6
489.207	1	6
489.547	1	-1
489.888	1	-3
490.228	1	-6
490.569	1	8
490.910	1	-6
491.250	1	-1
491.591	1	-9
491.932	1	10
492.272	1	13
492.613	1	9
492.953	1	2
493.294	1	-1
493.635	1	1
493.975	1	-7
494.316	1	6
494.656	1	2
494.997	1	4
495.337	1	-4
495.678	1	14
496.019	1	-5
496.359	1	-2
496.700	1	-7
497.040	1	-3
497.381	1	-13
497.721	1	-7
498.062	1	-2
498.403	1	-1
498.743	1	7
499.084	1	-12
499.424	1	16
499.765	1	5
500.105	1	4
500.446	1	4
500.786	1	3
501.127	1	9
501.467	1	7
501.808	1	-21
502.148	1	9
502.489	1	5
502.829	1	5
503.170	1	-7
503.510	1	1
503.851	1	-16
504.191	1	-3
504.532	1	2
504.872	1	-8
505.213	1	-7
505.553	1	5
505.894	1	5
506.234	1	8
506.575	1	-4
506.915	1	0
507.256	1	4
507.596	1	7
507.936	1	3
508.277	1	5
508.617	1	4
508.958	1	5
509.298	1	10
509.639	1	4
509.979	1	5
510.319	1	-5
510.660	1	7
511.000	1	9
511.341	1	2
511.681	1	-1
512.022	1	-7
512.362	1	-4
512.702	1	-1
513.043	1	6
513.383	1	2
513.724	1	12
514.064	1	-2
514.404	1	4
514.745	1	5
515.085	1	8
515.425	1	-1
515.766	1	5
516.106	1	2
516.447	1	2
516.787	1	-4
517.127	1	11
517.468	1	-12
517.808	1	-2
518.148	1	2
518.489	1	6
518.829	1	-1
519.169	1	11
519.510	1	7
519.850	1	0
520.190	1	-3
520.531	1	3
520.871	1	-2
521.211	1	2
521.552	1	2
521.892	1	-14
522.232	1	-3
522.573	1	3
522.913	1	10
523.253	1	6
523.593	1	-12
523.934	1	1
524.274	1	-3
524.614	1	-5
524.955	1	8
525.295	1	-7
525.635	1	6
525.975	1	0
526.316	1	5
526.656	1	13
526.996	1	10
527.337	1	6
527.677	1	8
528.017	1	0
528.357	1	7
528.698	1	-7
529.038	1	5
529.378	1	9
529.718	1	11
530.058	1	1
530.399	1	17
530.739	1	-3
531.079	1	9
531.419	1	9
531.760	1	5
532.100	1	5
532.440	1	-4
532.780	1	1
533.120	1	-6
533.461	1	13
533.801	1	7
534.141	1	7
534.481	1	1
534.821	1	6
535.162	1	2
535.502	1	6
535.842	1	3
536.182	1	-2
536.522	1	6
536.862	1	9
537.203	1	1
537.543	1	-1
537.883	1	5
538.223	1	0
538.563	1	-4
538.903	1	3
539.243	1	12
539.584	1	1
539.924	1	-3
540.264	1	-1
540.604	1	2
540.944	1	5
541.284	1	-1
541.624	1	10
541.964	1	1
542.305	1	-6
542.645	1	3
542.985	1	-4
543.325	1	-7
543.665	1	1
544.005	1	1
544.345	1	-4
544.685	1	5
545.025	1	-13
545.365	1	2
545.705	1	7
546.045	1	11
546.386	1	6
546.726	1	9
547.066	1	-10
547.406	1	13
547.746	1	3
548.086	1	11
548.426	1	-5
548.766	1	3
549.106	1	9
549.446	1	1
549.786	1	6
550.126	1	-1
550.466	1	2
550.806	1	18
551.146	1	-7
551.486	1	10
551.826	1	11
552.166	1	1
552.506	1	-5
552.846	1	5
553.186	1	2
553.526	1	0
553.866	1	3
554.206	1	2
554.546	1	-3
554.886	1	-6
555.226	1	-7
555.566	1	-1
555.906	1	11
556.246	1	0
556.586	1	10
556.926	1	3
557.266	1	9
557.606	1	-6
557.946	1	-1
558.286	1	3
558.626	1	6
558.966	1	10
559.306	1	-5
559.646	1	2
559.986	1	0
560.325	1	-5
560.665	1	3
561.005	1	15
561.345	1	1
561.685	1	4
562.025	1	-4
562.365	1	3
562.705	1	10
563.045	1	8
563.385	1	0
563.725	1	4
564.064	1	4
564.404	1	0
564.744	1	2
565.084	1	-6
565.424	1	3
565.764	1	7
566.104	1	-6
566.444	1	-1
566.783	1	-7
567.123	1	9
567.463	1	-4
567.803	1	-4
568.143	1	-2
568.483	1	-7
568.823	1	3
569.162	1	15
569.502	1	2
569.842	1	1
570.182	1	-11
570.522	1	-10
570.862	1	4
571.201	1	4
571.541	1	-4
571.881	1	5
572.221	1	7
572.561	1	-13
572.900	1	16
573.240	1	-7
573.580	1	3
573.920	1	-4
574.260	1	-2
574.599	1	-2
574.939	1	3
575.279	1	3
575.619	1	7
575.959	1	-3
576.298	1	3
576.638	1	0
576.978	1	4
577.318	1	7
577.657	1	-22
577.997	1	-12
578.337	1	-9
578.677	1	0
579.016	1	11
579.356	1	-4
579.696	1	6
580.036	1	0
580.375	1	4
580.715	1	5
581.055	1	11
581.394	1	2
581.734	1	2
582.074	1	1
582.414	1	-7
582.753	1	5
583.093	1	-6
583.433	1	-2
583.772	1	5
584.112	1	8
584.452	1	-2
584.791	1	-4
585.131	1	-4
585.471	1	-1
585.811	1	-4
586.150	1	6
586.490	1	-6
586.830	1	-1
587.169	1	-5
587.509	1	-3
587.849	1	4
588.188	1	2
588.528	1	3
588.867	1	5
589.207	1	-5
589.547	1	4
589.886	1	-1
590.226	1	-6
590.566	1	4
590.905	1	1
591.245	1	1
591.585	1	-10
591.924	1	-2
592.264	1	6
592.603	1	0
592.943	1	0
593.283	1	-1
593.622	1	-3
593.962	1	-1
594.301	1	15
594.641	1	-8
594.981	1	3
595.320	1	3
595.660	1	-3
595.999	1	-1
596.339	1	10
596.678	1	-7
597.018	1	5
597.358	1	6
597.697	1	-1
598.037	1	8
598.376	1	0
598.716	1	-6
599.055	1	5
599.395	1	6
599.734	1	3
600.074	1	-3
600.413	1	-6
600.753	1	-4
601.092	1	-16
601.432	1	-1
601.771	1	-2
602.111	1	-7
602.451	1	-5
602.790	1	8
603.130	1	3
603.469	1	-5
603.809	1	8
604.148	1	3
604.487	1	1
604.827	1	-10
605.166	1	-10
605.506	1	6
605.845	1	10
606.185	1	3
606.524	1	-1
606.864	1	-9
607.203	1	0
607.543	1	-10
607.882	1	-6
608.222	1	2
608.561	1	-1
608.901	1	4
609.240	1	-6
609.579	1	5
609.919	1	-6
610.258	1	7
610.598	1	1
610.937	1	-2
611.277	1	4
611.616	1	-4
611.955	1	8
612.295	1	-2
612.634	1	-15
612.974	1	15
613.313	1	0
613.652	1	-5
613.992	1	9
614.331	1	7
614.671	1	8
615.010	1	5
615.349	1	-2
615.689	1	-3
616.028	1	1
616.368	1	-1
616.707	1	3
617.046	1	-7
617.386	1	-3
617.725	1	3
618.064	1	1
618.404	1	8
618.743	1	0
619.082	1	-4
619.422	1	-5
619.761	1	2
620.100	1	9
620.440	1	2
620.779	1	-3
621.118	1	1
621.458	1	5
621.797	1	0
622.136	1	11
622.476	1	5
622.815	1	-3
623.154	1	6
623.494	1	-1
623.833	1	2
624.172	1	14
624.511	1	0
624.851	1	-9
625.190	1	-4
625.529	1	7
625.869	1	9
626.208	1	-5
626.547	1	-2
626.886	1	-9
627.226	1	7
627.565	1	12
627.904	1	9
628.243	1	-8
628.583	1	4
628.922	1	-4
629.261	1	5
629.600	1	9
629.940	1	0
630.279	1	-1
630.618	1	0
630.957	1	-6
631.297	1	-5
631.636	1	-5
631.975	1	-4
632.314	1	12
632.653	1	-5
632.993	1	5
633.332	1	4
633.671	1	1
634.010	1	-11
634.349	1	-5
634.689	1	7
635.028	1	2
635.367	1	-5
635.706	1	-10
636.045	1	8
636.384	1	5
636.724	1	4
637.063	1	1
637.402	1	13
637.741	1	6
638.080	1	1
638.419	1	2
638.759	1	3
639.098	1	3
639.437	1	-10
639.776	1	3
640.115	1	-5
640.454	1	7
640.793	1	13
641.132	1	4
641.472	1	4
641.811	1	3
642.150	1	5
642.489	1	-4
642.828	1	0
643.167	1	8
643.506	1	2
643.845	1	2
644.184	1	3
644.524	1	-6
644.863	1	-8
645.202	1	7
645.541	1	-14
645.880	1	5
646.219	1	5
646.558	1	-3
646.897	1	-3
647.236	1	9
647.575	1	4
647.914	1	-5
648.253	1	6
648.592	1	6
648.931	1	3
649.270	1	4
649.610	1	6
649.949	1	1
650.288	1	-3
650.627	1	-7
650.966	1	-9
651.305	1	-14
651.644	1	-5
651.983	1	0
652.322	1	8
652.661	1	3
653.000	1	0
653.339	1	6
653.678	1	0
654.017	1	-3
654.356	1	6
654.695	1	-1
655.034	1	-4
655.373	1	-6
655.712	1	-2
656.051	1	6
656.390	1	-1
656.729	1	11
657.068	1	1
657.406	1	0
657.745	1	7
658.084	1	12
658.423	1	-9
658.762	1	-2
659.101	1	-8
659.440	1	5
659.779	1	4
660.118	1	10
660.457	1	-13
660.796	1	-2
661.135	1	4
661.474	1	11
661.813	1	-3
662.152	1	6
662.491	1	6
662.829	1	-10
663.168	1	-3
663.507	1	-3
663.846	1	8
664.185	1	13
664.524	1	-8
664.863	1	-2
665.202	1	1
665.541	1	-1
665.879	1	-2
666.218	1	-9
666.557	1	3
666.896	1	-2
667.235	1	0
667.574	1	7
667.913	1	6
668.251	1	-5
668.590	1	-5
668.929	1	-1
669.268	1	3
669.607	1	-7
669.946	1	5
670.285	1	5
670.623	1	-9
670.962	1	-5
671.301	1	-2
671.640	1	-15
671.979	1	15
672.317	1	0
672.656	1	-1
672.995	1	1
673.334	1	5
673.673	1	21
674.011	1	2
674.350	1	-6
674.689	1	3
675.028	1	-4
675.367	1	3
675.705	1	-6
676.044	1	-10
676.383	1	1
676.722	1	-2
677.060	1	7
677.399	1	6
677.738	1	-8
678.077	1	-1
678.416	1	-3
678.754	1	6
679.093	1	7
679.432	1	6
679.771	1	-3
680.109	1	7
680.448	1	-2
680.787	1	7
681.125	1	-1
681.464	1	-7
681.803	1	-11
682.142	1	10
682.480	1	0
682.819	1	0
683.158	1	4
683.496	1	-13
683.835	1	1
684.174	1	-1
684.512	1	-7
684.851	1	4
685.190	1	10
685.529	1	4
685.867	1	-1
686.206	1	2
686.545	1	11
686.883	1	0
687.222	1	-4
687.561	1	5
687.899	1	8
688.238	1	7
688.577	1	8
688.746	1	5