File: Analysis/GaN_68K_200ms/GaN_sample E_spot4_UVVIS_68 K_200um_200 ms 2x2mm1_122.txt
340.368	1	3
340.710	1	1
341.052	1	4
341.394	1	4
341.737	1	12
342.079	1	-2
342.421	1	5
342.763	1	5
343.105	1	16
343.447	1	7
343.789	1	5
344.131	1	1
344.473	1	1
344.815	1	7
345.157	1	5
345.499	1	13
345.841	1	11
346.183	1	14
346.526	1	12
346.868	1	14
347.210	1	11
347.552	1	1
347.894	1	7
348.236	1	10
348.578	1	10
348.920	1	18
349.262	1	6
349.604	1	20
349.946	1	14
350.288	1	9
350.630	1	10
350.972	1	11
351.314	1	2
351.656	1	8
351.998	1	7
352.340	1	11
352.682	1	14
353.024	1	5
353.366	1	17
353.708	1	20
354.050	1	20
354.392	1	16
354.734	1	19
355.076	1	20
355.418	1	17
355.760	1	20
356.102	1	14
356.444	1	25
356.785	1	38
357.127	1	25
357.469	1	17
357.811	1	33
358.153	1	29
358.495	1	43
358.837	1	22
359.179	1	36
359.521	1	36
359.863	1	39
360.205	1	48
360.547	1	59
360.889	1	67
361.231	1	77
361.572	1	72
361.914	1	94
362.256	1	109
362.598	1	127
362.940	1	146
363.282	1	168
363.624	1	194
363.966	1	217
364.308	1	224
364.649	1	289
364.991	1	320
365.333	1	353
365.675	1	387
366.017	1	412
366.359	1	425
366.701	1	440
367.042	1	465
367.384	1	458
367.726	1	434
368.068	1	410
368.410	1	398
368.752	1	371
369.093	1	344
369.435	1	324
369.777	1	291
370.119	1	277
370.461	1	243
370.803	1	232
371.144	1	231
371.486	1	208
371.828	1	207
372.170	1	207
372.512	1	168
372.853	1	162
373.195	1	170
373.537	1	154
373.879	1	168
374.220	1	144
374.562	1	132
374.904	1	134
375.246	1	123
375.588	1	122
375.929	1	117
376.271	1	111
376.613	1	101
376.955	1	92
377.296	1	99
377.638	1	98
377.980	1	97
378.321	1	97
378.663	1	94
379.005	1	111
379.347	1	95
379.688	1	104
380.030	1	109
380.372	1	120
380.714	1	132
381.055	1	155
381.397	1	155
381.739	1	175
382.080	1	196
382.422	1	222
382.764	1	251
383.105	1	282
383.447	1	321
383.789	1	354
384.130	1	431
384.472	1	473
384.814	1	515
385.156	1	553
385.497	1	620
385.839	1	644
386.180	1	691
386.522	1	729
386.864	1	731
387.205	1	724
387.547	1	723
387.889	1	740
388.230	1	728
388.572	1	680
388.914	1	704
389.255	1	716
389.597	1	694
389.939	1	701
390.280	1	675
390.622	1	653
390.963	1	667
391.305	1	645
391.647	1	649
391.988	1	634
392.330	1	626
392.671	1	617
393.013	1	586
393.355	1	571
393.696	1	566
394.038	1	565
394.379	1	543
394.721	1	566
395.062	1	565
395.404	1	580
395.746	1	581
396.087	1	594
396.429	1	625
396.770	1	644
397.112	1	644
397.453	1	631
397.795	1	670
398.136	1	674
398.478	1	683
398.819	1	646
399.161	1	641
399.503	1	629
399.844	1	606
400.186	1	615
400.527	1	596
400.869	1	571
401.210	1	558
401.552	1	522
401.893	1	499
402.235	1	505
402.576	1	484
402.918	1	458
403.259	1	452
403.601	1	418
403.942	1	441
404.284	1	449
404.625	1	426
404.967	1	420
405.308	1	402
405.649	1	422
405.991	1	425
406.332	1	399
406.674	1	401
407.015	1	390
407.357	1	391
407.698	1	386
408.040	1	381
408.381	1	387
408.722	1	373
409.064	1	368
409.405	1	364
409.747	1	365
410.088	1	363
410.430	1	356
410.771	1	353
411.112	1	338
411.454	1	344
411.795	1	324
412.137	1	330
412.478	1	304
412.819	1	295
413.161	1	299
413.502	1	279
413.844	1	270
414.185	1	286
414.526	1	259
414.868	1	275
415.209	1	254
415.550	1	246
415.892	1	232
416.233	1	238
416.575	1	234
416.916	1	231
417.257	1	224
417.599	1	223
417.940	1	215
418.281	1	219
418.623	1	231
418.964	1	217
419.305	1	212
419.647	1	217
419.988	1	211
420.329	1	204
420.671	1	205
421.012	1	198
421.353	1	203
421.695	1	198
422.036	1	171
422.377	1	189
422.718	1	178
423.060	1	156
423.401	1	168
423.742	1	156
424.084	1	166
424.425	1	149
424.766	1	154
425.107	1	152
425.449	1	149
425.790	1	133
426.131	1	136
426.472	1	133
426.814	1	142
427.155	1	123
427.496	1	143
427.837	1	122
428.179	1	123
428.520	1	121
428.861	1	120
429.202	1	142
429.544	1	128
429.885	1	122
430.226	1	121
430.567	1	131
430.909	1	106
431.250	1	103
431.591	1	114
431.932	1	112
432.273	1	103
432.615	1	96
432.956	1	86
433.297	1	118
433.638	1	94
433.979	1	88
434.320	1	94
434.662	1	86
435.003	1	90
435.344	1	92
435.685	1	86
436.026	1	92
436.368	1	80
436.709	1	82
437.050	1	87
437.391	1	75
437.732	1	77
438.073	1	78
438.414	1	71
438.756	1	87
439.097	1	81
439.438	1	86
439.779	1	73
440.120	1	75
440.461	1	76
440.802	1	75
441.143	1	75
441.485	1	61
441.826	1	56
442.167	1	67
442.508	1	68
442.849	1	73
443.190	1	60
443.531	1	62
443.872	1	65
444.213	1	55
444.554	1	46
444.895	1	55
445.237	1	45
445.578	1	59
445.919	1	54
446.260	1	52
446.601	1	57
446.942	1	58
447.283	1	60
447.624	1	52
447.965	1	50
448.306	1	44
448.647	1	67
448.988	1	34
449.329	1	46
449.670	1	54
450.011	1	51
450.352	1	51
450.693	1	54
451.034	1	55
451.375	1	55
451.716	1	44
452.057	1	54
452.398	1	45
452.739	1	49
453.080	1	59
453.421	1	47
453.762	1	48
454.103	1	52
454.444	1	55
454.785	1	38
455.126	1	54
455.467	1	44
455.808	1	47
456.149	1	34
456.490	1	47
456.831	1	51
457.172	1	42
457.513	1	52
457.854	1	43
458.195	1	46
458.536	1	51
458.877	1	38
459.218	1	41
459.559	1	39
459.899	1	51
460.240	1	47
460.581	1	48
460.922	1	33
461.263	1	39
461.604	1	34
461.945	1	49
462.286	1	47
462.627	1	27
462.968	1	34
463.309	1	40
463.649	1	33
463.990	1	38
464.331	1	42
464.672	1	32
465.013	1	33
465.354	1	38
465.695	1	46
466.036	1	44
466.376	1	28
466.717	1	25
467.058	1	38
467.399	1	32
467.740	1	30
468.081	1	29
468.422	1	31
468.762	1	27
469.103	1	27
469.444	1	34
469.785	1	42
470.126	1	32
470.467	1	27
470.807	1	43
471.148	1	34
471.489	1	26
471.830	1	47
472.171	1	37
472.511	1	42
472.852	1	22
473.193	1	15
473.534	1	19
473.875	1	44
474.215	1	24
474.556	1	21
474.897	1	23
475.238	1	31
475.578	1	25
475.919	1	35
476.260	1	35
476.601	1	43
476.942	1	30
477.282	1	28
477.623	1	42
477.964	1	36
478.305	1	42
478.645	1	27
478.986	1	44
479.327	1	33
479.667	1	35
480.008	1	37
480.349	1	26
480.690	1	41
481.030	1	36
481.371	1	41
481.712	1	36
482.053	1	38
482.393	1	23
482.734	1	35
483.075	1	41
483.415	1	35
483.756	1	42
484.097	1	36
484.437	1	17
484.778	1	25
485.119	1	35
485.459	1	42
485.800	1	34
486.141	1	29
486.481	1	33
486.822	1	42
487.163	1	27
487.503	1	30
487.844	1	40
488.185	1	36
488.525	1	42
488.866	1	56
489.207	1	45
489.547	1	44
489.888	1	45
490.228	1	37
490.569	1	61
490.910	1	42
491.250	1	54
491.591	1	48
491.932	1	56
492.272	1	55
492.613	1	54
492.953	1	51
493.294	1	57
493.635	1	62
493.975	1	56
494.316	1	73
494.656	1	61
494.997	1	63
495.337	1	56
495.678	1	71
496.019	1	55
496.359	1	63
496.700	1	62
497.040	1	53
497.381	1	59
497.721	1	62
498.062	1	70
498.403	1	80
498.743	1	72
499.084	1	65
499.424	1	77
499.765	1	73
500.105	1	76
500.446	1	83
500.786	1	78
501.127	1	82
501.467	1	95
501.808	1	80
502.148	1	87
502.489	1	97
502.829	1	86
503.170	1	106
503.510	1	93
503.851	1	86
504.191	1	92
504.532	1	91
504.872	1	91
505.213	1	102
505.553	1	111
505.894	1	110
506.234	1	120
506.575	1	114
506.915	1	111
507.256	1	113
507.596	1	117
507.936	1	122
508.277	1	117
508.617	1	150
508.958	1	141
509.298	1	131
509.639	1	135
509.979	1	129
510.319	1	121
510.660	1	138
511.000	1	140
511.341	1	127
511.681	1	132
512.022	1	133
512.362	1	130
512.702	1	128
513.043	1	142
513.383	1	142
513.724	1	153
514.064	1	140
514.404	1	146
514.745	1	153
515.085	1	152
515.425	1	153
515.766	1	160
516.106	1	149
516.447	1	144
516.787	1	159
517.127	1	164
517.468	1	175
517.808	1	174
518.148	1	176
518.489	1	186
518.829	1	179
519.169	1	190
519.510	1	175
519.850	1	179
520.190	1	183
520.531	1	193
520.871	1	175
521.211	1	186
521.552	1	191
521.892	1	181
522.232	1	190
522.573	1	184
522.913	1	198
523.253	1	181
523.593	1	176
523.934	1	195
524.274	1	176
524.614	1	189
524.955	1	189
525.295	1	191
525.635	1	198
525.975	1	188
526.316	1	186
526.656	1	206
526.996	1	210
527.337	1	204
527.677	1	225
528.017	1	203
528.357	1	201
528.698	1	193
529.038	1	207
529.378	1	221
529.718	1	218
530.058	1	204
530.399	1	214
530.739	1	218
531.079	1	225
531.419	1	218
531.760	1	216
532.100	1	217
532.440	1	212
532.780	1	219
533.120	1	213
533.461	1	220
533.801	1	216
534.141	1	216
534.481	1	215
534.821	1	207
535.162	1	219
535.502	1	213
535.842	1	208
536.182	1	206
536.522	1	213
536.862	1	200
537.203	1	209
537.543	1	215
537.883	1	202
538.223	1	209
538.563	1	212
538.903	1	197
539.243	1	194
539.584	1	195
539.924	1	199
540.264	1	183
540.604	1	194
540.944	1	200
541.284	1	180
541.624	1	191
541.964	1	196
542.305	1	184
542.645	1	192
542.985	1	186
543.325	1	186
543.665	1	194
544.005	1	187
544.345	1	176
544.685	1	186
545.025	1	177
545.365	1	186
545.705	1	188
546.045	1	175
546.386	1	186
546.726	1	179
547.066	1	174
547.406	1	202
547.746	1	169
548.086	1	187
548.426	1	161
548.766	1	181
549.106	1	189
549.446	1	174
549.786	1	194
550.126	1	168
550.466	1	183
550.806	1	174
551.146	1	170
551.486	1	168
551.826	1	172
552.166	1	172
552.506	1	143
552.846	1	167
553.186	1	178
553.526	1	182
553.866	1	164
554.206	1	171
554.546	1	157
554.886	1	160
555.226	1	150
555.566	1	179
555.906	1	157
556.246	1	147
556.586	1	156
556.926	1	150
557.266	1	150
557.606	1	125
557.946	1	151
558.286	1	135
558.626	1	146
558.966	1	140
559.306	1	136
559.646	1	130
559.986	1	120
560.325	1	127
560.665	1	128
561.005	1	139
561.345	1	138
561.685	1	142
562.025	1	116
562.365	1	138
562.705	1	135
563.045	1	128
563.385	1	123
563.725	1	126
564.064	1	130
564.404	1	125
564.744	1	129
565.084	1	114
565.424	1	119
565.764	1	128
566.104	1	111
566.444	1	125
566.783	1	123
567.123	1	123
567.463	1	126
567.803	1	104
568.143	1	109
568.483	1	115
568.823	1	129
569.162	1	113
569.502	1	106
569.842	1	100
570.182	1	98
570.522	1	114
570.862	1	108
571.201	1	109
571.541	1	92
571.881	1	100
572.221	1	101
572.561	1	90
572.900	1	117
573.240	1	92
573.580	1	95
573.920	1	86
574.260	1	95
574.599	1	94
574.939	1	90
575.279	1	99
575.619	1	90
575.959	1	78
576.298	1	83
576.638	1	87
576.978	1	83
577.318	1	86
577.657	1	78
577.997	1	76
578.337	1	76
578.677	1	83
579.016	1	99
579.356	1	82
579.696	1	92
580.036	1	86
580.375	1	81
580.715	1	85
581.055	1	73
581.394	1	76
581.734	1	80
582.074	1	81
582.414	1	78
582.753	1	86
583.093	1	66
583.433	1	76
583.772	1	75
584.112	1	91
584.452	1	80
584.791	1	75
585.131	1	73
585.471	1	78
585.811	1	54
586.150	1	69
586.490	1	62
586.830	1	74
587.169	1	65
587.509	1	77
587.849	1	74
588.188	1	69
588.528	1	73
588.867	1	79
589.207	1	54
589.547	1	50
589.886	1	67
590.226	1	71
590.566	1	48
590.905	1	69
591.245	1	46
591.585	1	58
591.924	1	62
592.264	1	60
592.603	1	55
592.943	1	55
593.283	1	69
593.622	1	58
593.962	1	74
594.301	1	57
594.641	1	54
594.981	1	52
595.320	1	58
595.660	1	58
595.999	1	58
596.339	1	62
596.678	1	51
597.018	1	51
597.358	1	55
597.697	1	46
598.037	1	61
598.376	1	46
598.716	1	53
599.055	1	47
599.395	1	59
599.734	1	41
600.074	1	45
600.413	1	50
600.753	1	57
601.092	1	39
601.432	1	48
601.771	1	50
602.111	1	35
602.451	1	44
602.790	1	51
603.130	1	51
603.469	1	44
603.809	1	53
604.148	1	44
604.487	1	51
604.827	1	36
605.166	1	41
605.506	1	50
605.845	1	53
606.185	1	49
606.524	1	49
606.864	1	43
607.203	1	52
607.543	1	36
607.882	1	37
608.222	1	53
608.561	1	52
608.901	1	53
609.240	1	56
609.579	1	45
609.919	1	31
610.258	1	52
610.598	1	47
610.937	1	45
611.277	1	55
611.616	1	36
611.955	1	48
612.295	1	40
612.634	1	35
612.974	1	51
613.313	1	47
613.652	1	24
613.992	1	41
614.331	1	35
614.671	1	47
615.010	1	42
615.349	1	32
615.689	1	45
616.028	1	31
616.368	1	33
616.707	1	29
617.046	1	32
617.386	1	36
617.725	1	46
618.064	1	41
618.404	1	41
618.743	1	41
619.082	1	36
619.422	1	40
619.761	1	25
620.100	1	35
620.440	1	39
620.779	1	36
621.118	1	28
621.458	1	34
621.797	1	38
622.136	1	32
622.476	1	35
622.815	1	34
623.154	1	40
623.494	1	23
623.833	1	27
624.172	1	50
624.511	1	25
624.851	1	17
625.190	1	32
625.529	1	29
625.869	1	29
626.208	1	28
626.547	1	33
626.886	1	20
627.226	1	38
627.565	1	32
627.904	1	31
628.243	1	21
628.583	1	31
628.922	1	33
629.261	1	32
629.600	1	31
629.940	1	22
630.279	1	17
630.618	1	30
630.957	1	25
631.297	1	19
631.636	1	17
631.975	1	30
632.314	1	32
632.653	1	28
632.993	1	30
633.332	1	30
633.671	1	27
634.010	1	22
634.349	1	30
634.689	1	25
635.028	1	34
635.367	1	22
635.706	1	21
636.045	1	23
636.384	1	35
636.724	1	19
637.063	1	33
637.402	1	30
637.741	1	33
638.080	1	25
638.419	1	33
638.759	1	27
639.098	1	9
639.437	1	9
639.776	1	27
640.115	1	25
640.454	1	30
640.793	1	25
641.132	1	35
641.472	1	10
641.811	1	26
642.150	1	20
642.489	1	14
642.828	1	19
643.167	1	31
643.506	1	23
643.845	1	24
644.184	1	22
644.524	1	6
644.863	1	18
645.202	1	23
645.541	1	12
645.880	1	22
646.219	1	26
646.558	1	21
646.897	1	16
647.236	1	25
647.575	1	24
647.914	1	21
648.253	1	21
648.592	1	21
648.931	1	24
649.270	1	28
649.610	1	36
649.949	1	19
650.288	1	8
650.627	1	22
650.966	1	23
651.305	1	18
651.644	1	10
651.983	1	24
652.322	1	23
652.661	1	26
653.000	1	21
653.339	1	19
653.678	1	14
654.017	1	12
654.356	1	21
654.695	1	17
655.034	1	26
655.373	1	16
655.712	1	15
656.051	1	18
656.390	1	18
656.729	1	16
657.068	1	21
657.406	1	27
657.745	1	10
658.084	1	28
658.423	1	5
658.762	1	5
659.101	1	21
659.440	1	27
659.779	1	15
660.118	1	26
660.457	1	13
660.796	1	20
661.135	1	21
661.474	1	16
661.813	1	20
662.152	1	16
662.491	1	20
662.829	1	11
663.168	1	14
663.507	1	10
663.846	1	24
664.185	1	15
664.524	1	6
664.863	1	16
665.202	1	8
665.541	1	13
665.879	1	10
666.218	1	11
666.557	1	18
666.896	1	5
667.235	1	8
667.574	1	26
667.913	1	23
668.251	1	15
668.590	1	8
668.929	1	20
669.268	1	14
669.607	1	11
669.946	1	22
670.285	1	9
670.623	1	15
670.962	1	19
671.301	1	13
671.640	1	9
671.979	1	33
672.317	1	3
672.656	1	18
672.995	1	20
673.334	1	17
673.673	1	19
674.011	1	20
674.350	1	5
674.689	1	12
675.028	1	15
675.367	1	19
675.705	1	3
676.044	1	9
676.383	1	11
676.722	1	7
677.060	1	12
677.399	1	9
677.738	1	11
678.077	1	19
678.416	1	12
678.754	1	14
679.093	1	11
679.432	1	11
679.771	1	8
680.109	1	13
680.448	1	13
680.787	1	13
681.125	1	17
681.464	1	12
681.803	1	-5
682.142	1	29
682.480	1	15
682.819	1	23
683.158	1	14
683.496	1	14
683.835	1	22
684.174	1	11
684.512	1	12
684.851	1	15
685.190	1	20
685.529	1	19
685.867	1	22
686.206	1	19
686.545	1	25
686.883	1	19
687.222	1	13
687.561	1	25
687.899	1	22
688.238	1	24
688.577	1	16
688.746	1	24