File: Analysis/GaN_68K_200ms/GaN_sample E_spot4_UVVIS_68 K_200um_200 ms 2x2mm1_66.txt
340.368	1	0
340.710	1	0
341.052	1	8
341.394	1	-2
341.737	1	10
342.079	1	4
342.421	1	-2
342.763	1	-1
343.105	1	6
343.447	1	5
343.789	1	1
344.131	1	-4
344.473	1	2
344.815	1	8
345.157	1	4
345.499	1	10
345.841	1	2
346.183	1	4
346.526	1	1
346.868	1	6
347.210	1	2
347.552	1	-3
347.894	1	4
348.236	1	10
348.578	1	2
348.920	1	8
349.262	1	-3
349.604	1	7
349.946	1	6
350.288	1	12
350.630	1	-6
350.972	1	-7
351.314	1	-4
351.656	1	3
351.998	1	2
352.340	1	1
352.682	1	2
353.024	1	-6
353.366	1	10
353.708	1	1
354.050	1	10
354.392	1	8
354.734	1	3
355.076	1	1
355.418	1	6
355.760	1	0
356.102	1	-3
356.444	1	3
356.785	1	1
357.127	1	1
357.469	1	7
357.811	1	16
358.153	1	-1
358.495	1	11
358.837	1	4
359.179	1	8
359.521	1	2
359.863	1	2
360.205	1	-11
360.547	1	4
360.889	1	9
361.231	1	0
361.572	1	-3
361.914	1	8
362.256	1	8
362.598	1	4
362.940	1	2
363.282	1	0
363.624	1	1
363.966	1	0
364.308	1	-2
364.649	1	-3
364.991	1	7
365.333	1	2
365.675	1	-1
366.017	1	10
366.359	1	4
366.701	1	-13
367.042	1	8
367.384	1	3
367.726	1	7
368.068	1	-3
368.410	1	-3
368.752	1	-4
369.093	1	4
369.435	1	-9
369.777	1	0
370.119	1	5
370.461	1	-1
370.803	1	-2
371.144	1	6
371.486	1	10
371.828	1	17
372.170	1	-1
372.512	1	-5
372.853	1	3
373.195	1	-2
373.537	1	8
373.879	1	5
374.220	1	8
374.562	1	4
374.904	1	11
375.246	1	-1
375.588	1	4
375.929	1	-3
376.271	1	2
376.613	1	9
376.955	1	0
377.296	1	-3
377.638	1	-2
377.980	1	5
378.321	1	7
378.663	1	-9
379.005	1	7
379.347	1	10
379.688	1	-2
380.030	1	0
380.372	1	0
380.714	1	8
381.055	1	-1
381.397	1	3
381.739	1	9
382.080	1	-14
382.422	1	18
382.764	1	1
383.105	1	0
383.447	1	6
383.789	1	2
384.130	1	-3
384.472	1	-7
384.814	1	9
385.156	1	10
385.497	1	5
385.839	1	3
386.180	1	5
386.522	1	1
386.864	1	2
387.205	1	3
387.547	1	0
387.889	1	6
388.230	1	-5
388.572	1	2
388.914	1	9
389.255	1	5
389.597	1	-13
389.939	1	6
390.280	1	7
390.622	1	7
390.963	1	4
391.305	1	15
391.647	1	-2
391.988	1	-3
392.330	1	17
392.671	1	1
393.013	1	12
393.355	1	10
393.696	1	-8
394.038	1	-7
394.379	1	-6
394.721	1	10
395.062	1	-7
395.404	1	1
395.746	1	-9
396.087	1	7
396.429	1	2
396.770	1	13
397.112	1	-5
397.453	1	-5
397.795	1	11
398.136	1	10
398.478	1	-1
398.819	1	4
399.161	1	-4
399.503	1	3
399.844	1	0
400.186	1	8
400.527	1	-8
400.869	1	5
401.210	1	-4
401.552	1	6
401.893	1	2
402.235	1	13
402.576	1	6
402.918	1	4
403.259	1	-4
403.601	1	-8
403.942	1	8
404.284	1	6
404.625	1	4
404.967	1	1
405.308	1	-4
405.649	1	-4
405.991	1	7
406.332	1	-5
406.674	1	-9
407.015	1	3
407.357	1	-1
407.698	1	-12
408.040	1	-4
408.381	1	4
408.722	1	2
409.064	1	-4
409.405	1	0
409.747	1	-1
410.088	1	3
410.430	1	-4
410.771	1	0
411.112	1	10
411.454	1	7
411.795	1	4
412.137	1	7
412.478	1	6
412.819	1	1
413.161	1	-4
413.502	1	4
413.844	1	-4
414.185	1	4
414.526	1	-3
414.868	1	11
415.209	1	0
415.550	1	3
415.892	1	4
416.233	1	3
416.575	1	-1
416.916	1	3
417.257	1	1
417.599	1	6
417.940	1	-2
418.281	1	0
418.623	1	-2
418.964	1	1
419.305	1	4
419.647	1	3
419.988	1	-7
420.329	1	-2
420.671	1	2
421.012	1	4
421.353	1	4
421.695	1	4
422.036	1	-6
422.377	1	-3
422.718	1	-1
423.060	1	-7
423.401	1	0
423.742	1	-2
424.084	1	9
424.425	1	0
424.766	1	8
425.107	1	-8
425.449	1	0
425.790	1	9
426.131	1	11
426.472	1	-1
426.814	1	5
427.155	1	-5
427.496	1	6
427.837	1	7
428.179	1	-6
428.520	1	-6
428.861	1	1
429.202	1	3
429.544	1	2
429.885	1	2
430.226	1	1
430.567	1	6
430.909	1	-14
431.250	1	-7
431.591	1	5
431.932	1	9
432.273	1	-2
432.615	1	1
432.956	1	-3
433.297	1	10
433.638	1	-5
433.979	1	1
434.320	1	2
434.662	1	-1
435.003	1	8
435.344	1	1
435.685	1	18
436.026	1	5
436.368	1	1
436.709	1	-6
437.050	1	5
437.391	1	-6
437.732	1	3
438.073	1	6
438.414	1	-1
438.756	1	10
439.097	1	3
439.438	1	3
439.779	1	-1
440.120	1	0
440.461	1	-10
440.802	1	13
441.143	1	3
441.485	1	-4
441.826	1	-20
442.167	1	-4
442.508	1	1
442.849	1	-2
443.190	1	-8
443.531	1	-4
443.872	1	8
444.213	1	2
444.554	1	2
444.895	1	-2
445.237	1	-1
445.578	1	6
445.919	1	8
446.260	1	5
446.601	1	1
446.942	1	3
447.283	1	2
447.624	1	1
447.965	1	-3
448.306	1	6
448.647	1	15
448.988	1	-6
449.329	1	-1
449.670	1	1
450.011	1	-2
450.352	1	0
450.693	1	-3
451.034	1	1
451.375	1	10
451.716	1	7
452.057	1	11
452.398	1	15
452.739	1	7
453.080	1	18
453.421	1	0
453.762	1	9
454.103	1	-1
454.444	1	1
454.785	1	2
455.126	1	7
455.467	1	7
455.808	1	2
456.149	1	-3
456.490	1	1
456.831	1	15
457.172	1	9
457.513	1	4
457.854	1	0
458.195	1	-2
458.536	1	9
458.877	1	1
459.218	1	12
459.559	1	7
459.899	1	12
460.240	1	9
460.581	1	16
460.922	1	13
461.263	1	3
461.604	1	-2
461.945	1	8
462.286	1	8
462.627	1	0
462.968	1	-4
463.309	1	6
463.649	1	-2
463.990	1	7
464.331	1	6
464.672	1	-1
465.013	1	-11
465.354	1	2
465.695	1	3
466.036	1	7
466.376	1	-4
466.717	1	-9
467.058	1	5
467.399	1	8
467.740	1	-4
468.081	1	13
468.422	1	7
468.762	1	-11
469.103	1	-4
469.444	1	0
469.785	1	2
470.126	1	8
470.467	1	-6
470.807	1	4
471.148	1	-2
471.489	1	13
471.830	1	14
472.171	1	1
472.511	1	10
472.852	1	0
473.193	1	3
473.534	1	10
473.875	1	8
474.215	1	-1
474.556	1	-7
474.897	1	5
475.238	1	-1
475.578	1	4
475.919	1	5
476.260	1	-1
476.601	1	3
476.942	1	13
477.282	1	-15
477.623	1	6
477.964	1	6
478.305	1	5
478.645	1	-6
478.986	1	3
479.327	1	1
479.667	1	8
480.008	1	9
480.349	1	5
480.690	1	-11
481.030	1	-3
481.371	1	7
481.712	1	2
482.053	1	2
482.393	1	-10
482.734	1	-1
483.075	1	11
483.415	1	3
483.756	1	8
484.097	1	-5
484.437	1	0
484.778	1	0
485.119	1	7
485.459	1	6
485.800	1	-12
486.141	1	-7
486.481	1	0
486.822	1	6
487.163	1	-5
487.503	1	0
487.844	1	4
488.185	1	-10
488.525	1	1
488.866	1	11
489.207	1	16
489.547	1	-1
489.888	1	1
490.228	1	-14
490.569	1	8
490.910	1	4
491.250	1	7
491.591	1	-5
491.932	1	21
492.272	1	11
492.613	1	3
492.953	1	-4
493.294	1	9
493.635	1	5
493.975	1	5
494.316	1	10
494.656	1	0
494.997	1	3
495.337	1	7
495.678	1	0
496.019	1	-4
496.359	1	3
496.700	1	0
497.040	1	-4
497.381	1	-15
497.721	1	7
498.062	1	-7
498.403	1	13
498.743	1	6
499.084	1	-5
499.424	1	4
499.765	1	3
500.105	1	13
500.446	1	2
500.786	1	7
501.127	1	16
501.467	1	5
501.808	1	-8
502.148	1	-1
502.489	1	-2
502.829	1	4
503.170	1	11
503.510	1	8
503.851	1	-11
504.191	1	0
504.532	1	-10
504.872	1	-1
505.213	1	1
505.553	1	9
505.894	1	2
506.234	1	12
506.575	1	-7
506.915	1	-2
507.256	1	-1
507.596	1	1
507.936	1	5
508.277	1	14
508.617	1	2
508.958	1	7
509.298	1	12
509.639	1	1
509.979	1	3
510.319	1	-3
510.660	1	0
511.000	1	4
511.341	1	-6
511.681	1	1
512.022	1	4
512.362	1	0
512.702	1	-7
513.043	1	5
513.383	1	-2
513.724	1	11
514.064	1	-2
514.404	1	-5
514.745	1	-1
515.085	1	1
515.425	1	0
515.766	1	0
516.106	1	-4
516.447	1	-4
516.787	1	3
517.127	1	5
517.468	1	1
517.808	1	-11
518.148	1	6
518.489	1	-3
518.829	1	-1
519.169	1	4
519.510	1	0
519.850	1	-6
520.190	1	6
520.531	1	2
520.871	1	-3
521.211	1	1
521.552	1	6
521.892	1	-10
522.232	1	-7
522.573	1	-4
522.913	1	2
523.253	1	5
523.593	1	-18
523.934	1	6
524.274	1	8
524.614	1	-3
524.955	1	-6
525.295	1	-5
525.635	1	8
525.975	1	-4
526.316	1	2
526.656	1	8
526.996	1	11
527.337	1	-7
527.677	1	5
528.017	1	-7
528.357	1	0
528.698	1	-1
529.038	1	5
529.378	1	10
529.718	1	11
530.058	1	2
530.399	1	4
530.739	1	0
531.079	1	12
531.419	1	15
531.760	1	7
532.100	1	8
532.440	1	-11
532.780	1	4
533.120	1	-6
533.461	1	11
533.801	1	4
534.141	1	1
534.481	1	0
534.821	1	1
535.162	1	-3
535.502	1	-5
535.842	1	3
536.182	1	6
536.522	1	6
536.862	1	2
537.203	1	6
537.543	1	6
537.883	1	4
538.223	1	9
538.563	1	-8
538.903	1	-1
539.243	1	2
539.584	1	1
539.924	1	-1
540.264	1	4
540.604	1	10
540.944	1	4
541.284	1	-5
541.624	1	2
541.964	1	6
542.305	1	-11
542.645	1	4
542.985	1	2
543.325	1	-6
543.665	1	10
544.005	1	1
544.345	1	-10
544.685	1	10
545.025	1	4
545.365	1	2
545.705	1	6
546.045	1	4
546.386	1	-1
546.726	1	-3
547.066	1	-1
547.406	1	8
547.746	1	8
548.086	1	3
548.426	1	-7
548.766	1	6
549.106	1	6
549.446	1	4
549.786	1	-3
550.126	1	2
550.466	1	-6
550.806	1	10
551.146	1	-4
551.486	1	6
551.826	1	2
552.166	1	0
552.506	1	0
552.846	1	3
553.186	1	-4
553.526	1	-1
553.866	1	12
554.206	1	2
554.546	1	-7
554.886	1	-2
555.226	1	-4
555.566	1	7
555.906	1	-7
556.246	1	-1
556.586	1	11
556.926	1	4
557.266	1	11
557.606	1	-6
557.946	1	12
558.286	1	4
558.626	1	4
558.966	1	2
559.306	1	0
559.646	1	-1
559.986	1	-2
560.325	1	-18
560.665	1	4
561.005	1	2
561.345	1	-1
561.685	1	-8
562.025	1	-5
562.365	1	7
562.705	1	14
563.045	1	5
563.385	1	-1
563.725	1	-7
564.064	1	0
564.404	1	-3
564.744	1	7
565.084	1	-6
565.424	1	1
565.764	1	15
566.104	1	0
566.444	1	8
566.783	1	0
567.123	1	22
567.463	1	13
567.803	1	-8
568.143	1	-9
568.483	1	-5
568.823	1	11
569.162	1	9
569.502	1	-1
569.842	1	-5
570.182	1	-1
570.522	1	6
570.862	1	8
571.201	1	3
571.541	1	-10
571.881	1	3
572.221	1	4
572.561	1	-2
572.900	1	13
573.240	1	-3
573.580	1	1
573.920	1	-3
574.260	1	5
574.599	1	-10
574.939	1	-1
575.279	1	12
575.619	1	5
575.959	1	-8
576.298	1	-2
576.638	1	7
576.978	1	-4
577.318	1	4
577.657	1	-9
577.997	1	0
578.337	1	3
578.677	1	0
579.016	1	13
579.356	1	-5
579.696	1	8
580.036	1	3
580.375	1	10
580.715	1	9
581.055	1	14
581.394	1	-10
581.734	1	8
582.074	1	0
582.414	1	10
582.753	1	5
583.093	1	3
583.433	1	-4
583.772	1	2
584.112	1	1
584.452	1	-1
584.791	1	-3
585.131	1	-5
585.471	1	8
585.811	1	-7
586.150	1	6
586.490	1	8
586.830	1	-11
587.169	1	4
587.509	1	-1
587.849	1	3
588.188	1	-1
588.528	1	11
588.867	1	2
589.207	1	-9
589.547	1	-11
589.886	1	-13
590.226	1	11
590.566	1	-1
590.905	1	1
591.245	1	2
591.585	1	7
591.924	1	-4
592.264	1	0
592.603	1	-3
592.943	1	-2
593.283	1	14
593.622	1	-1
593.962	1	11
594.301	1	15
594.641	1	-3
594.981	1	-2
595.320	1	9
595.660	1	-7
595.999	1	2
596.339	1	3
596.678	1	0
597.018	1	11
597.358	1	0
597.697	1	0
598.037	1	-2
598.376	1	7
598.716	1	-4
599.055	1	8
599.395	1	9
599.734	1	0
600.074	1	5
600.413	1	-5
600.753	1	7
601.092	1	-14
601.432	1	6
601.771	1	12
602.111	1	-9
602.451	1	-3
602.790	1	8
603.130	1	10
603.469	1	-13
603.809	1	4
604.148	1	6
604.487	1	2
604.827	1	-2
605.166	1	-4
605.506	1	11
605.845	1	5
606.185	1	2
606.524	1	0
606.864	1	4
607.203	1	11
607.543	1	-6
607.882	1	4
608.222	1	9
608.561	1	8
608.901	1	7
609.240	1	5
609.579	1	-1
609.919	1	-3
610.258	1	12
610.598	1	7
610.937	1	7
611.277	1	-4
611.616	1	-6
611.955	1	10
612.295	1	11
612.634	1	2
612.974	1	9
613.313	1	2
613.652	1	-1
613.992	1	11
614.331	1	-2
614.671	1	-2
615.010	1	-1
615.349	1	0
615.689	1	6
616.028	1	5
616.368	1	-2
616.707	1	1
617.046	1	6
617.386	1	-1
617.725	1	4
618.064	1	8
618.404	1	9
618.743	1	1
619.082	1	1
619.422	1	-8
619.761	1	5
620.100	1	4
620.440	1	3
620.779	1	-3
621.118	1	1
621.458	1	7
621.797	1	-1
622.136	1	6
622.476	1	11
622.815	1	3
623.154	1	12
623.494	1	-2
623.833	1	-4
624.172	1	12
624.511	1	7
624.851	1	-1
625.190	1	3
625.529	1	8
625.869	1	7
626.208	1	-6
626.547	1	8
626.886	1	-5
627.226	1	5
627.565	1	10
627.904	1	0
628.243	1	-7
628.583	1	-6
628.922	1	-1
629.261	1	8
629.600	1	2
629.940	1	-2
630.279	1	-1
630.618	1	-2
630.957	1	5
631.297	1	0
631.636	1	-7
631.975	1	1
632.314	1	10
632.653	1	2
632.993	1	8
633.332	1	6
633.671	1	-4
634.010	1	-3
634.349	1	8
634.689	1	-1
635.028	1	-1
635.367	1	10
635.706	1	3
636.045	1	5
636.384	1	14
636.724	1	1
637.063	1	-3
637.402	1	6
637.741	1	15
638.080	1	-3
638.419	1	8
638.759	1	0
639.098	1	4
639.437	1	-10
639.776	1	10
640.115	1	-4
640.454	1	6
640.793	1	0
641.132	1	0
641.472	1	-2
641.811	1	-7
642.150	1	-4
642.489	1	0
642.828	1	0
643.167	1	9
643.506	1	-6
643.845	1	1
644.184	1	10
644.524	1	-8
644.863	1	-8
645.202	1	8
645.541	1	-8
645.880	1	-2
646.219	1	-3
646.558	1	1
646.897	1	0
647.236	1	5
647.575	1	7
647.914	1	-2
648.253	1	4
648.592	1	5
648.931	1	1
649.270	1	14
649.610	1	5
649.949	1	-5
650.288	1	2
650.627	1	-3
650.966	1	-4
651.305	1	-8
651.644	1	-5
651.983	1	4
652.322	1	6
652.661	1	6
653.000	1	-3
653.339	1	8
653.678	1	-3
654.017	1	-2
654.356	1	12
654.695	1	15
655.034	1	-4
655.373	1	1
655.712	1	2
656.051	1	4
656.390	1	0
656.729	1	3
657.068	1	-1
657.406	1	-3
657.745	1	-4
658.084	1	8
658.423	1	-10
658.762	1	-1
659.101	1	2
659.440	1	7
659.779	1	-3
660.118	1	13
660.457	1	-2
660.796	1	1
661.135	1	3
661.474	1	1
661.813	1	8
662.152	1	2
662.491	1	3
662.829	1	-4
663.168	1	-6
663.507	1	3
663.846	1	1
664.185	1	5
664.524	1	-7
664.863	1	-5
665.202	1	-16
665.541	1	9
665.879	1	5
666.218	1	3
666.557	1	9
666.896	1	-2
667.235	1	6
667.574	1	6
667.913	1	4
668.251	1	2
668.590	1	-7
668.929	1	1
669.268	1	1
669.607	1	-6
669.946	1	10
670.285	1	5
670.623	1	4
670.962	1	7
671.301	1	8
671.640	1	-11
671.979	1	6
672.317	1	-5
672.656	1	5
672.995	1	-2
673.334	1	10
673.673	1	19
674.011	1	2
674.350	1	-2
674.689	1	7
675.028	1	4
675.367	1	1
675.705	1	-9
676.044	1	-7
676.383	1	7
676.722	1	0
677.060	1	1
677.399	1	5
677.738	1	-2
678.077	1	9
678.416	1	-9
678.754	1	-4
679.093	1	-3
679.432	1	-5
679.771	1	0
680.109	1	10
680.448	1	-3
680.787	1	-8
681.125	1	3
681.464	1	3
681.803	1	-3
682.142	1	14
682.480	1	1
682.819	1	-5
683.158	1	-2
683.496	1	-4
683.835	1	5
684.174	1	10
684.512	1	-8
684.851	1	-2
685.190	1	9
685.529	1	0
685.867	1	4
686.206	1	-6
686.545	1	7
686.883	1	-2
687.222	1	-1
687.561	1	3
687.899	1	-3
688.238	1	1
688.577	1	-2
688.746	1	6