File: Analysis/GaN_68K_200ms/GaN_sample E_spot4_UVVIS_68 K_200um_200 ms 2x2mm1_511.txt
340.368	1	-4
340.710	1	-3
341.052	1	11
341.394	1	-3
341.737	1	12
342.079	1	1
342.421	1	1
342.763	1	9
343.105	1	5
343.447	1	8
343.789	1	0
344.131	1	-1
344.473	1	-4
344.815	1	1
345.157	1	3
345.499	1	16
345.841	1	4
346.183	1	2
346.526	1	6
346.868	1	3
347.210	1	2
347.552	1	0
347.894	1	1
348.236	1	12
348.578	1	5
348.920	1	17
349.262	1	-1
349.604	1	14
349.946	1	13
350.288	1	1
350.630	1	-11
350.972	1	0
351.314	1	1
351.656	1	3
351.998	1	-9
352.340	1	-2
352.682	1	-6
353.024	1	3
353.366	1	11
353.708	1	3
354.050	1	2
354.392	1	6
354.734	1	7
355.076	1	0
355.418	1	-5
355.760	1	0
356.102	1	-5
356.444	1	8
356.785	1	10
357.127	1	3
357.469	1	6
357.811	1	11
358.153	1	-3
358.495	1	3
358.837	1	8
359.179	1	0
359.521	1	-9
359.863	1	-9
360.205	1	-6
360.547	1	0
360.889	1	4
361.231	1	10
361.572	1	-6
361.914	1	-5
362.256	1	8
362.598	1	-5
362.940	1	-1
363.282	1	4
363.624	1	14
363.966	1	4
364.308	1	6
364.649	1	1
364.991	1	4
365.333	1	6
365.675	1	0
366.017	1	3
366.359	1	1
366.701	1	-3
367.042	1	7
367.384	1	3
367.726	1	12
368.068	1	-9
368.410	1	0
368.752	1	-2
369.093	1	-5
369.435	1	-1
369.777	1	-8
370.119	1	0
370.461	1	1
370.803	1	1
371.144	1	5
371.486	1	6
371.828	1	6
372.170	1	20
372.512	1	-3
372.853	1	2
373.195	1	-3
373.537	1	10
373.879	1	16
374.220	1	2
374.562	1	-2
374.904	1	1
375.246	1	2
375.588	1	4
375.929	1	1
376.271	1	2
376.613	1	0
376.955	1	-5
377.296	1	9
377.638	1	7
377.980	1	4
378.321	1	13
378.663	1	-4
379.005	1	9
379.347	1	1
379.688	1	0
380.030	1	-6
380.372	1	0
380.714	1	8
381.055	1	6
381.397	1	-1
381.739	1	3
382.080	1	-1
382.422	1	14
382.764	1	-6
383.105	1	-8
383.447	1	3
383.789	1	2
384.130	1	1
384.472	1	-10
384.814	1	-1
385.156	1	7
385.497	1	7
385.839	1	11
386.180	1	5
386.522	1	10
386.864	1	-1
387.205	1	7
387.547	1	-7
387.889	1	10
388.230	1	-4
388.572	1	-3
388.914	1	12
389.255	1	8
389.597	1	1
389.939	1	15
390.280	1	12
390.622	1	-7
390.963	1	9
391.305	1	0
391.647	1	4
391.988	1	-10
392.330	1	4
392.671	1	4
393.013	1	7
393.355	1	10
393.696	1	4
394.038	1	-8
394.379	1	2
394.721	1	-4
395.062	1	1
395.404	1	4
395.746	1	0
396.087	1	-4
396.429	1	14
396.770	1	3
397.112	1	-7
397.453	1	-5
397.795	1	7
398.136	1	11
398.478	1	1
398.819	1	5
399.161	1	7
399.503	1	-2
399.844	1	5
400.186	1	9
400.527	1	2
400.869	1	14
401.210	1	-1
401.552	1	12
401.893	1	5
402.235	1	3
402.576	1	13
402.918	1	-3
403.259	1	-5
403.601	1	-11
403.942	1	2
404.284	1	0
404.625	1	4
404.967	1	6
405.308	1	3
405.649	1	-1
405.991	1	4
406.332	1	5
406.674	1	0
407.015	1	-3
407.357	1	1
407.698	1	-8
408.040	1	0
408.381	1	1
408.722	1	1
409.064	1	-10
409.405	1	1
409.747	1	3
410.088	1	-2
410.430	1	13
410.771	1	2
411.112	1	1
411.454	1	17
411.795	1	5
412.137	1	6
412.478	1	2
412.819	1	-7
413.161	1	2
413.502	1	-6
413.844	1	-4
414.185	1	13
414.526	1	9
414.868	1	6
415.209	1	9
415.550	1	-10
415.892	1	-6
416.233	1	0
416.575	1	-4
416.916	1	2
417.257	1	3
417.599	1	5
417.940	1	0
418.281	1	5
418.623	1	7
418.964	1	10
419.305	1	-4
419.647	1	-1
419.988	1	-6
420.329	1	8
420.671	1	2
421.012	1	1
421.353	1	6
421.695	1	10
422.036	1	-5
422.377	1	0
422.718	1	-3
423.060	1	-11
423.401	1	9
423.742	1	5
424.084	1	4
424.425	1	0
424.766	1	-5
425.107	1	-4
425.449	1	-1
425.790	1	4
426.131	1	-4
426.472	1	-2
426.814	1	10
427.155	1	5
427.496	1	4
427.837	1	-1
428.179	1	-4
428.520	1	-7
428.861	1	11
429.202	1	10
429.544	1	-2
429.885	1	1
430.226	1	-9
430.567	1	4
430.909	1	0
431.250	1	-5
431.591	1	6
431.932	1	11
432.273	1	7
432.615	1	2
432.956	1	0
433.297	1	12
433.638	1	4
433.979	1	-2
434.320	1	5
434.662	1	-3
435.003	1	-2
435.344	1	13
435.685	1	11
436.026	1	0
436.368	1	-4
436.709	1	-9
437.050	1	-3
437.391	1	1
437.732	1	9
438.073	1	6
438.414	1	0
438.756	1	8
439.097	1	3
439.438	1	6
439.779	1	-7
440.120	1	3
440.461	1	-5
440.802	1	13
441.143	1	-2
441.485	1	-10
441.826	1	-10
442.167	1	6
442.508	1	1
442.849	1	5
443.190	1	-5
443.531	1	4
443.872	1	2
444.213	1	-1
444.554	1	0
444.895	1	-3
445.237	1	2
445.578	1	2
445.919	1	-3
446.260	1	5
446.601	1	-7
446.942	1	2
447.283	1	-3
447.624	1	8
447.965	1	0
448.306	1	-3
448.647	1	14
448.988	1	-12
449.329	1	0
449.670	1	16
450.011	1	2
450.352	1	9
450.693	1	2
451.034	1	1
451.375	1	7
451.716	1	-6
452.057	1	12
452.398	1	3
452.739	1	8
453.080	1	14
453.421	1	2
453.762	1	5
454.103	1	4
454.444	1	14
454.785	1	2
455.126	1	2
455.467	1	13
455.808	1	-2
456.149	1	-3
456.490	1	-2
456.831	1	16
457.172	1	4
457.513	1	6
457.854	1	-5
458.195	1	-4
458.536	1	7
458.877	1	-5
459.218	1	-4
459.559	1	3
459.899	1	10
460.240	1	0
460.581	1	4
460.922	1	4
461.263	1	11
461.604	1	2
461.945	1	14
462.286	1	-4
462.627	1	1
462.968	1	3
463.309	1	-1
463.649	1	-1
463.990	1	7
464.331	1	-1
464.672	1	-2
465.013	1	-10
465.354	1	12
465.695	1	9
466.036	1	8
466.376	1	-7
466.717	1	-14
467.058	1	22
467.399	1	2
467.740	1	-4
468.081	1	5
468.422	1	2
468.762	1	-7
469.103	1	-5
469.444	1	-6
469.785	1	2
470.126	1	3
470.467	1	-1
470.807	1	-1
471.148	1	2
471.489	1	-2
471.830	1	10
472.171	1	4
472.511	1	9
472.852	1	-12
473.193	1	-8
473.534	1	-6
473.875	1	10
474.215	1	1
474.556	1	-1
474.897	1	-1
475.238	1	-3
475.578	1	-4
475.919	1	4
476.260	1	-4
476.601	1	-1
476.942	1	4
477.282	1	-4
477.623	1	8
477.964	1	8
478.305	1	-2
478.645	1	-2
478.986	1	-2
479.327	1	-5
479.667	1	9
480.008	1	8
480.349	1	-2
480.690	1	-3
481.030	1	-4
481.371	1	5
481.712	1	10
482.053	1	10
482.393	1	-12
482.734	1	3
483.075	1	2
483.415	1	5
483.756	1	9
484.097	1	-7
484.437	1	-12
484.778	1	6
485.119	1	1
485.459	1	12
485.800	1	-1
486.141	1	-11
486.481	1	4
486.822	1	1
487.163	1	-3
487.503	1	-2
487.844	1	5
488.185	1	3
488.525	1	-4
488.866	1	0
489.207	1	15
489.547	1	2
489.888	1	3
490.228	1	-10
490.569	1	0
490.910	1	5
491.250	1	-7
491.591	1	-6
491.932	1	10
492.272	1	16
492.613	1	9
492.953	1	0
493.294	1	9
493.635	1	1
493.975	1	1
494.316	1	10
494.656	1	-1
494.997	1	3
495.337	1	5
495.678	1	11
496.019	1	2
496.359	1	5
496.700	1	9
497.040	1	-7
497.381	1	-24
497.721	1	-1
498.062	1	2
498.403	1	2
498.743	1	6
499.084	1	-6
499.424	1	6
499.765	1	1
500.105	1	2
500.446	1	10
500.786	1	-4
501.127	1	10
501.467	1	-2
501.808	1	-14
502.148	1	6
502.489	1	11
502.829	1	0
503.170	1	11
503.510	1	6
503.851	1	-13
504.191	1	9
504.532	1	-14
504.872	1	-2
505.213	1	-3
505.553	1	9
505.894	1	0
506.234	1	11
506.575	1	1
506.915	1	12
507.256	1	1
507.596	1	-2
507.936	1	-2
508.277	1	-5
508.617	1	7
508.958	1	15
509.298	1	16
509.639	1	4
509.979	1	-6
510.319	1	0
510.660	1	16
511.000	1	3
511.341	1	-10
511.681	1	3
512.022	1	-4
512.362	1	2
512.702	1	-6
513.043	1	5
513.383	1	-1
513.724	1	11
514.064	1	9
514.404	1	8
514.745	1	-1
515.085	1	3
515.425	1	-5
515.766	1	6
516.106	1	-4
516.447	1	-7
516.787	1	-5
517.127	1	6
517.468	1	4
517.808	1	-5
518.148	1	1
518.489	1	-4
518.829	1	-4
519.169	1	7
519.510	1	-7
519.850	1	-3
520.190	1	-7
520.531	1	10
520.871	1	-5
521.211	1	-1
521.552	1	1
521.892	1	-13
522.232	1	-6
522.573	1	2
522.913	1	2
523.253	1	3
523.593	1	-9
523.934	1	8
524.274	1	-3
524.614	1	8
524.955	1	-3
525.295	1	-5
525.635	1	11
525.975	1	0
526.316	1	7
526.656	1	16
526.996	1	12
527.337	1	4
527.677	1	17
528.017	1	-15
528.357	1	9
528.698	1	-2
529.038	1	11
529.378	1	0
529.718	1	3
530.058	1	0
530.399	1	5
530.739	1	2
531.079	1	8
531.419	1	13
531.760	1	3
532.100	1	11
532.440	1	5
532.780	1	-7
533.120	1	4
533.461	1	11
533.801	1	1
534.141	1	10
534.481	1	6
534.821	1	-6
535.162	1	2
535.502	1	10
535.842	1	3
536.182	1	14
536.522	1	8
536.862	1	9
537.203	1	4
537.543	1	-3
537.883	1	12
538.223	1	6
538.563	1	7
538.903	1	2
539.243	1	0
539.584	1	-6
539.924	1	7
540.264	1	5
540.604	1	5
540.944	1	0
541.284	1	-1
541.624	1	-3
541.964	1	14
542.305	1	-9
542.645	1	-6
542.985	1	-4
543.325	1	-9
543.665	1	16
544.005	1	-4
544.345	1	-7
544.685	1	6
545.025	1	-7
545.365	1	1
545.705	1	8
546.045	1	4
546.386	1	5
546.726	1	-6
547.066	1	-9
547.406	1	16
547.746	1	8
548.086	1	-1
548.426	1	4
548.766	1	5
549.106	1	4
549.446	1	-2
549.786	1	0
550.126	1	2
550.466	1	-3
550.806	1	7
551.146	1	-3
551.486	1	-2
551.826	1	12
552.166	1	5
552.506	1	3
552.846	1	3
553.186	1	-1
553.526	1	1
553.866	1	4
554.206	1	-3
554.546	1	-9
554.886	1	4
555.226	1	-13
555.566	1	6
555.906	1	3
556.246	1	-2
556.586	1	5
556.926	1	10
557.266	1	7
557.606	1	-11
557.946	1	13
558.286	1	-3
558.626	1	6
558.966	1	1
559.306	1	-2
559.646	1	7
559.986	1	-3
560.325	1	-11
560.665	1	2
561.005	1	5
561.345	1	-7
561.685	1	0
562.025	1	0
562.365	1	9
562.705	1	11
563.045	1	7
563.385	1	-8
563.725	1	3
564.064	1	5
564.404	1	0
564.744	1	4
565.084	1	-2
565.424	1	0
565.764	1	2
566.104	1	2
566.444	1	0
566.783	1	6
567.123	1	11
567.463	1	-4
567.803	1	-3
568.143	1	1
568.483	1	-11
568.823	1	5
569.162	1	4
569.502	1	3
569.842	1	-1
570.182	1	-5
570.522	1	2
570.862	1	2
571.201	1	7
571.541	1	0
571.881	1	3
572.221	1	9
572.561	1	-8
572.900	1	16
573.240	1	-4
573.580	1	1
573.920	1	-4
574.260	1	-3
574.599	1	-8
574.939	1	1
575.279	1	8
575.619	1	6
575.959	1	-10
576.298	1	-12
576.638	1	-1
576.978	1	1
577.318	1	7
577.657	1	-11
577.997	1	-6
578.337	1	-8
578.677	1	-4
579.016	1	11
579.356	1	-2
579.696	1	0
580.036	1	-1
580.375	1	0
580.715	1	9
581.055	1	5
581.394	1	-3
581.734	1	6
582.074	1	1
582.414	1	5
582.753	1	-5
583.093	1	-1
583.433	1	-13
583.772	1	1
584.112	1	2
584.452	1	-6
584.791	1	-1
585.131	1	-11
585.471	1	5
585.811	1	2
586.150	1	-4
586.490	1	-12
586.830	1	-7
587.169	1	10
587.509	1	2
587.849	1	8
588.188	1	1
588.528	1	9
588.867	1	-4
589.207	1	-4
589.547	1	2
589.886	1	-3
590.226	1	12
590.566	1	-6
590.905	1	7
591.245	1	0
591.585	1	-10
591.924	1	-2
592.264	1	9
592.603	1	-1
592.943	1	-13
593.283	1	2
593.622	1	5
593.962	1	1
594.301	1	11
594.641	1	1
594.981	1	-2
595.320	1	-4
595.660	1	6
595.999	1	-5
596.339	1	-1
596.678	1	-2
597.018	1	2
597.358	1	3
597.697	1	-7
598.037	1	3
598.376	1	10
598.716	1	-8
599.055	1	7
599.395	1	3
599.734	1	-2
600.074	1	0
600.413	1	3
600.753	1	-1
601.092	1	-10
601.432	1	3
601.771	1	3
602.111	1	-9
602.451	1	3
602.790	1	-2
603.130	1	6
603.469	1	-3
603.809	1	6
604.148	1	1
604.487	1	12
604.827	1	-1
605.166	1	-7
605.506	1	-1
605.845	1	-1
606.185	1	-4
606.524	1	-5
606.864	1	6
607.203	1	9
607.543	1	0
607.882	1	1
608.222	1	-1
608.561	1	4
608.901	1	-2
609.240	1	0
609.579	1	1
609.919	1	-2
610.258	1	15
610.598	1	4
610.937	1	4
611.277	1	4
611.616	1	-6
611.955	1	10
612.295	1	4
612.634	1	4
612.974	1	2
613.313	1	3
613.652	1	-4
613.992	1	3
614.331	1	7
614.671	1	3
615.010	1	5
615.349	1	6
615.689	1	-5
616.028	1	-6
616.368	1	2
616.707	1	3
617.046	1	1
617.386	1	-8
617.725	1	9
618.064	1	6
618.404	1	3
618.743	1	5
619.082	1	1
619.422	1	13
619.761	1	1
620.100	1	9
620.440	1	4
620.779	1	-5
621.118	1	-1
621.458	1	8
621.797	1	2
622.136	1	10
622.476	1	2
622.815	1	-2
623.154	1	0
623.494	1	3
623.833	1	4
624.172	1	7
624.511	1	-1
624.851	1	-10
625.190	1	3
625.529	1	6
625.869	1	9
626.208	1	1
626.547	1	-2
626.886	1	-5
627.226	1	5
627.565	1	9
627.904	1	7
628.243	1	-6
628.583	1	6
628.922	1	3
629.261	1	7
629.600	1	-3
629.940	1	-2
630.279	1	-14
630.618	1	-1
630.957	1	-9
631.297	1	-11
631.636	1	1
631.975	1	11
632.314	1	11
632.653	1	3
632.993	1	6
633.332	1	12
633.671	1	-7
634.010	1	9
634.349	1	4
634.689	1	11
635.028	1	4
635.367	1	-1
635.706	1	-1
636.045	1	5
636.384	1	7
636.724	1	4
637.063	1	11
637.402	1	5
637.741	1	7
638.080	1	-4
638.419	1	-7
638.759	1	-4
639.098	1	1
639.437	1	-11
639.776	1	-3
640.115	1	-2
640.454	1	6
640.793	1	10
641.132	1	6
641.472	1	-5
641.811	1	2
642.150	1	5
642.489	1	2
642.828	1	2
643.167	1	4
643.506	1	-3
643.845	1	4
644.184	1	10
644.524	1	-12
644.863	1	-8
645.202	1	-2
645.541	1	-6
645.880	1	-2
646.219	1	9
646.558	1	-3
646.897	1	-1
647.236	1	2
647.575	1	13
647.914	1	-3
648.253	1	7
648.592	1	1
648.931	1	1
649.270	1	6
649.610	1	5
649.949	1	-1
650.288	1	-2
650.627	1	-6
650.966	1	0
651.305	1	-5
651.644	1	-3
651.983	1	2
652.322	1	13
652.661	1	3
653.000	1	-5
653.339	1	7
653.678	1	-6
654.017	1	-3
654.356	1	7
654.695	1	8
655.034	1	1
655.373	1	0
655.712	1	-5
656.051	1	9
656.390	1	-3
656.729	1	6
657.068	1	-6
657.406	1	4
657.745	1	4
658.084	1	10
658.423	1	-6
658.762	1	-11
659.101	1	-3
659.440	1	4
659.779	1	0
660.118	1	1
660.457	1	-8
660.796	1	3
661.135	1	8
661.474	1	-1
661.813	1	1
662.152	1	-7
662.491	1	7
662.829	1	-7
663.168	1	-7
663.507	1	-2
663.846	1	8
664.185	1	-1
664.524	1	-13
664.863	1	-2
665.202	1	-2
665.541	1	-1
665.879	1	2
666.218	1	-9
666.557	1	8
666.896	1	-5
667.235	1	0
667.574	1	7
667.913	1	1
668.251	1	-3
668.590	1	3
668.929	1	12
669.268	1	4
669.607	1	-9
669.946	1	4
670.285	1	7
670.623	1	9
670.962	1	3
671.301	1	-6
671.640	1	-5
671.979	1	12
672.317	1	-7
672.656	1	-2
672.995	1	0
673.334	1	13
673.673	1	14
674.011	1	3
674.350	1	-2
674.689	1	-6
675.028	1	4
675.367	1	-2
675.705	1	-9
676.044	1	1
676.383	1	-3
676.722	1	-2
677.060	1	2
677.399	1	-1
677.738	1	-6
678.077	1	5
678.416	1	-2
678.754	1	1
679.093	1	4
679.432	1	-2
679.771	1	-4
680.109	1	7
680.448	1	0
680.787	1	-5
681.125	1	7
681.464	1	-1
681.803	1	-6
682.142	1	6
682.480	1	-5
682.819	1	7
683.158	1	-3
683.496	1	-7
683.835	1	6
684.174	1	2
684.512	1	1
684.851	1	-3
685.190	1	15
685.529	1	0
685.867	1	5
686.206	1	1
686.545	1	7
686.883	1	-9
687.222	1	-5
687.561	1	1
687.899	1	2
688.238	1	-7
688.577	1	3
688.746	1	0