File: Analysis/GaN_68K_200ms/GaN_sample E_spot4_UVVIS_68 K_200um_200 ms 2x2mm1_466.txt
340.368	1	0
340.710	1	-9
341.052	1	10
341.394	1	4
341.737	1	5
342.079	1	-9
342.421	1	-4
342.763	1	5
343.105	1	11
343.447	1	3
343.789	1	-5
344.131	1	-10
344.473	1	0
344.815	1	7
345.157	1	1
345.499	1	5
345.841	1	3
346.183	1	2
346.526	1	9
346.868	1	5
347.210	1	2
347.552	1	2
347.894	1	3
348.236	1	-5
348.578	1	5
348.920	1	1
349.262	1	4
349.604	1	6
349.946	1	6
350.288	1	5
350.630	1	-4
350.972	1	-5
351.314	1	1
351.656	1	-1
351.998	1	0
352.340	1	-2
352.682	1	-13
353.024	1	-6
353.366	1	7
353.708	1	3
354.050	1	5
354.392	1	2
354.734	1	-1
355.076	1	9
355.418	1	-6
355.760	1	8
356.102	1	-7
356.444	1	2
356.785	1	7
357.127	1	9
357.469	1	-2
357.811	1	18
358.153	1	10
358.495	1	5
358.837	1	6
359.179	1	3
359.521	1	-6
359.863	1	-4
360.205	1	14
360.547	1	-5
360.889	1	11
361.231	1	6
361.572	1	3
361.914	1	2
362.256	1	11
362.598	1	-1
362.940	1	5
363.282	1	1
363.624	1	7
363.966	1	10
364.308	1	-8
364.649	1	5
364.991	1	0
365.333	1	15
365.675	1	0
366.017	1	5
366.359	1	9
366.701	1	-2
367.042	1	19
367.384	1	4
367.726	1	12
368.068	1	5
368.410	1	-2
368.752	1	-4
369.093	1	-4
369.435	1	1
369.777	1	7
370.119	1	4
370.461	1	8
370.803	1	-2
371.144	1	4
371.486	1	5
371.828	1	5
372.170	1	12
372.512	1	-6
372.853	1	4
373.195	1	2
373.537	1	5
373.879	1	9
374.220	1	3
374.562	1	7
374.904	1	5
375.246	1	11
375.588	1	7
375.929	1	17
376.271	1	-2
376.613	1	8
376.955	1	-11
377.296	1	4
377.638	1	-10
377.980	1	5
378.321	1	6
378.663	1	-5
379.005	1	14
379.347	1	1
379.688	1	-10
380.030	1	-3
380.372	1	0
380.714	1	-5
381.055	1	1
381.397	1	-9
381.739	1	6
382.080	1	-2
382.422	1	18
382.764	1	0
383.105	1	4
383.447	1	14
383.789	1	11
384.130	1	0
384.472	1	-3
384.814	1	7
385.156	1	13
385.497	1	12
385.839	1	8
386.180	1	-1
386.522	1	9
386.864	1	2
387.205	1	3
387.547	1	0
387.889	1	9
388.230	1	7
388.572	1	-2
388.914	1	14
389.255	1	18
389.597	1	-13
389.939	1	6
390.280	1	7
390.622	1	-9
390.963	1	5
391.305	1	11
391.647	1	12
391.988	1	-5
392.330	1	14
392.671	1	23
393.013	1	10
393.355	1	14
393.696	1	-6
394.038	1	-6
394.379	1	-3
394.721	1	3
395.062	1	4
395.404	1	4
395.746	1	3
396.087	1	-4
396.429	1	8
396.770	1	11
397.112	1	-2
397.453	1	-8
397.795	1	17
398.136	1	19
398.478	1	6
398.819	1	1
399.161	1	20
399.503	1	4
399.844	1	-2
400.186	1	16
400.527	1	8
400.869	1	3
401.210	1	12
401.552	1	11
401.893	1	5
402.235	1	7
402.576	1	13
402.918	1	1
403.259	1	-3
403.601	1	-3
403.942	1	9
404.284	1	11
404.625	1	7
404.967	1	10
405.308	1	7
405.649	1	7
405.991	1	15
406.332	1	-3
406.674	1	9
407.015	1	-2
407.357	1	-4
407.698	1	1
408.040	1	3
408.381	1	10
408.722	1	3
409.064	1	1
409.405	1	4
409.747	1	4
410.088	1	8
410.430	1	9
410.771	1	6
411.112	1	4
411.454	1	5
411.795	1	2
412.137	1	15
412.478	1	8
412.819	1	-12
413.161	1	-6
413.502	1	-4
413.844	1	-4
414.185	1	10
414.526	1	4
414.868	1	6
415.209	1	0
415.550	1	1
415.892	1	5
416.233	1	-2
416.575	1	5
416.916	1	-12
417.257	1	10
417.599	1	5
417.940	1	-9
418.281	1	4
418.623	1	3
418.964	1	10
419.305	1	-5
419.647	1	8
419.988	1	-3
420.329	1	2
420.671	1	7
421.012	1	7
421.353	1	4
421.695	1	4
422.036	1	0
422.377	1	3
422.718	1	-8
423.060	1	-5
423.401	1	6
423.742	1	8
424.084	1	14
424.425	1	-5
424.766	1	-3
425.107	1	2
425.449	1	-1
425.790	1	-1
426.131	1	-2
426.472	1	-3
426.814	1	12
427.155	1	-9
427.496	1	14
427.837	1	-10
428.179	1	-6
428.520	1	-11
428.861	1	1
429.202	1	2
429.544	1	8
429.885	1	3
430.226	1	-1
430.567	1	14
430.909	1	-4
431.250	1	-4
431.591	1	12
431.932	1	3
432.273	1	1
432.615	1	3
432.956	1	5
433.297	1	6
433.638	1	-9
433.979	1	1
434.320	1	-3
434.662	1	-1
435.003	1	4
435.344	1	8
435.685	1	3
436.026	1	4
436.368	1	-1
436.709	1	-9
437.050	1	4
437.391	1	1
437.732	1	0
438.073	1	2
438.414	1	5
438.756	1	6
439.097	1	4
439.438	1	11
439.779	1	-10
440.120	1	3
440.461	1	-10
440.802	1	7
441.143	1	8
441.485	1	-10
441.826	1	-6
442.167	1	2
442.508	1	-4
442.849	1	5
443.190	1	-12
443.531	1	11
443.872	1	4
444.213	1	-5
444.554	1	-3
444.895	1	-1
445.237	1	-11
445.578	1	7
445.919	1	11
446.260	1	-4
446.601	1	-4
446.942	1	10
447.283	1	-5
447.624	1	7
447.965	1	-9
448.306	1	-4
448.647	1	24
448.988	1	-7
449.329	1	-5
449.670	1	2
450.011	1	8
450.352	1	7
450.693	1	8
451.034	1	12
451.375	1	11
451.716	1	10
452.057	1	9
452.398	1	5
452.739	1	-3
453.080	1	13
453.421	1	2
453.762	1	5
454.103	1	3
454.444	1	8
454.785	1	-6
455.126	1	6
455.467	1	6
455.808	1	-3
456.149	1	-6
456.490	1	-1
456.831	1	5
457.172	1	3
457.513	1	-1
457.854	1	-5
458.195	1	-1
458.536	1	0
458.877	1	-5
459.218	1	8
459.559	1	6
459.899	1	6
460.240	1	4
460.581	1	5
460.922	1	5
461.263	1	9
461.604	1	2
461.945	1	6
462.286	1	3
462.627	1	3
462.968	1	-5
463.309	1	4
463.649	1	-4
463.990	1	0
464.331	1	9
464.672	1	-5
465.013	1	-2
465.354	1	6
465.695	1	10
466.036	1	0
466.376	1	0
466.717	1	3
467.058	1	5
467.399	1	8
467.740	1	-11
468.081	1	2
468.422	1	9
468.762	1	-3
469.103	1	-3
469.444	1	-4
469.785	1	10
470.126	1	5
470.467	1	-2
470.807	1	-1
471.148	1	3
471.489	1	-1
471.830	1	11
472.171	1	5
472.511	1	11
472.852	1	-5
473.193	1	-4
473.534	1	5
473.875	1	6
474.215	1	1
474.556	1	-6
474.897	1	3
475.238	1	-6
475.578	1	1
475.919	1	8
476.260	1	2
476.601	1	-1
476.942	1	2
477.282	1	-13
477.623	1	7
477.964	1	12
478.305	1	8
478.645	1	-9
478.986	1	0
479.327	1	-3
479.667	1	-1
480.008	1	5
480.349	1	1
480.690	1	-5
481.030	1	-4
481.371	1	7
481.712	1	4
482.053	1	5
482.393	1	-7
482.734	1	4
483.075	1	2
483.415	1	2
483.756	1	13
484.097	1	-8
484.437	1	-4
484.778	1	3
485.119	1	2
485.459	1	5
485.800	1	-2
486.141	1	-11
486.481	1	1
486.822	1	10
487.163	1	-3
487.503	1	-10
487.844	1	4
488.185	1	-6
488.525	1	2
488.866	1	4
489.207	1	-3
489.547	1	-4
489.888	1	0
490.228	1	-3
490.569	1	9
490.910	1	-1
491.250	1	2
491.591	1	-3
491.932	1	12
492.272	1	11
492.613	1	-4
492.953	1	5
493.294	1	12
493.635	1	-7
493.975	1	3
494.316	1	10
494.656	1	-2
494.997	1	-3
495.337	1	2
495.678	1	4
496.019	1	-3
496.359	1	-3
496.700	1	-2
497.040	1	3
497.381	1	-16
497.721	1	3
498.062	1	-7
498.403	1	2
498.743	1	2
499.084	1	-7
499.424	1	10
499.765	1	3
500.105	1	8
500.446	1	5
500.786	1	10
501.127	1	1
501.467	1	-3
501.808	1	-5
502.148	1	8
502.489	1	13
502.829	1	11
503.170	1	3
503.510	1	1
503.851	1	-8
504.191	1	6
504.532	1	-9
504.872	1	-4
505.213	1	-4
505.553	1	0
505.894	1	11
506.234	1	10
506.575	1	-1
506.915	1	4
507.256	1	-3
507.596	1	6
507.936	1	2
508.277	1	-3
508.617	1	7
508.958	1	2
509.298	1	18
509.639	1	7
509.979	1	3
510.319	1	-12
510.660	1	10
511.000	1	-1
511.341	1	-1
511.681	1	-1
512.022	1	-4
512.362	1	3
512.702	1	-8
513.043	1	13
513.383	1	0
513.724	1	13
514.064	1	5
514.404	1	1
514.745	1	-2
515.085	1	5
515.425	1	-1
515.766	1	2
516.106	1	-3
516.447	1	2
516.787	1	2
517.127	1	7
517.468	1	0
517.808	1	6
518.148	1	10
518.489	1	8
518.829	1	-5
519.169	1	4
519.510	1	2
519.850	1	3
520.190	1	-3
520.531	1	7
520.871	1	0
521.211	1	5
521.552	1	8
521.892	1	-8
522.232	1	-15
522.573	1	7
522.913	1	-2
523.253	1	-1
523.593	1	-5
523.934	1	7
524.274	1	0
524.614	1	-2
524.955	1	5
525.295	1	-2
525.635	1	11
525.975	1	-4
526.316	1	-2
526.656	1	16
526.996	1	12
527.337	1	-6
527.677	1	9
528.017	1	-4
528.357	1	15
528.698	1	-5
529.038	1	1
529.378	1	5
529.718	1	7
530.058	1	3
530.399	1	6
530.739	1	-4
531.079	1	13
531.419	1	9
531.760	1	11
532.100	1	8
532.440	1	3
532.780	1	7
533.120	1	-7
533.461	1	14
533.801	1	4
534.141	1	10
534.481	1	3
534.821	1	9
535.162	1	-1
535.502	1	11
535.842	1	3
536.182	1	-4
536.522	1	5
536.862	1	5
537.203	1	7
537.543	1	2
537.883	1	11
538.223	1	10
538.563	1	-5
538.903	1	-1
539.243	1	4
539.584	1	4
539.924	1	6
540.264	1	10
540.604	1	-1
540.944	1	-3
541.284	1	0
541.624	1	8
541.964	1	3
542.305	1	-4
542.645	1	6
542.985	1	-2
543.325	1	6
543.665	1	11
544.005	1	-5
544.345	1	-11
544.685	1	13
545.025	1	-1
545.365	1	2
545.705	1	7
546.045	1	15
546.386	1	3
546.726	1	3
547.066	1	-4
547.406	1	4
547.746	1	6
548.086	1	6
548.426	1	5
548.766	1	5
549.106	1	9
549.446	1	-4
549.786	1	0
550.126	1	3
550.466	1	3
550.806	1	5
551.146	1	0
551.486	1	7
551.826	1	1
552.166	1	2
552.506	1	-5
552.846	1	-1
553.186	1	4
553.526	1	2
553.866	1	6
554.206	1	1
554.546	1	-7
554.886	1	-2
555.226	1	1
555.566	1	2
555.906	1	3
556.246	1	1
556.586	1	14
556.926	1	11
557.266	1	4
557.606	1	-3
557.946	1	14
558.286	1	3
558.626	1	8
558.966	1	7
559.306	1	-9
559.646	1	-6
559.986	1	-8
560.325	1	-8
560.665	1	5
561.005	1	9
561.345	1	-2
561.685	1	4
562.025	1	-1
562.365	1	13
562.705	1	4
563.045	1	4
563.385	1	2
563.725	1	6
564.064	1	15
564.404	1	-1
564.744	1	5
565.084	1	-18
565.424	1	-2
565.764	1	16
566.104	1	6
566.444	1	2
566.783	1	2
567.123	1	3
567.463	1	7
567.803	1	-9
568.143	1	-5
568.483	1	1
568.823	1	4
569.162	1	1
569.502	1	7
569.842	1	2
570.182	1	-3
570.522	1	6
570.862	1	2
571.201	1	4
571.541	1	8
571.881	1	8
572.221	1	-2
572.561	1	-4
572.900	1	13
573.240	1	-4
573.580	1	0
573.920	1	-3
574.260	1	-2
574.599	1	-2
574.939	1	4
575.279	1	12
575.619	1	4
575.959	1	-2
576.298	1	-13
576.638	1	0
576.978	1	3
577.318	1	4
577.657	1	-4
577.997	1	-10
578.337	1	-11
578.677	1	1
579.016	1	8
579.356	1	-2
579.696	1	6
580.036	1	-3
580.375	1	2
580.715	1	11
581.055	1	6
581.394	1	-16
581.734	1	4
582.074	1	-4
582.414	1	-4
582.753	1	9
583.093	1	-10
583.433	1	-3
583.772	1	-2
584.112	1	6
584.452	1	-6
584.791	1	-2
585.131	1	-8
585.471	1	2
585.811	1	-5
586.150	1	8
586.490	1	-3
586.830	1	4
587.169	1	4
587.509	1	-1
587.849	1	1
588.188	1	3
588.528	1	9
588.867	1	9
589.207	1	-8
589.547	1	-6
589.886	1	-9
590.226	1	14
590.566	1	0
590.905	1	1
591.245	1	0
591.585	1	-4
591.924	1	-2
592.264	1	-7
592.603	1	0
592.943	1	-11
593.283	1	9
593.622	1	-1
593.962	1	2
594.301	1	17
594.641	1	-2
594.981	1	4
595.320	1	15
595.660	1	-2
595.999	1	-1
596.339	1	11
596.678	1	-7
597.018	1	8
597.358	1	2
597.697	1	0
598.037	1	-2
598.376	1	5
598.716	1	-11
599.055	1	1
599.395	1	12
599.734	1	2
600.074	1	7
600.413	1	-10
600.753	1	-3
601.092	1	-1
601.432	1	7
601.771	1	-1
602.111	1	-8
602.451	1	-5
602.790	1	-2
603.130	1	2
603.469	1	-4
603.809	1	12
604.148	1	-3
604.487	1	-1
604.827	1	-10
605.166	1	-6
605.506	1	-1
605.845	1	-1
606.185	1	1
606.524	1	-8
606.864	1	-8
607.203	1	7
607.543	1	-14
607.882	1	-2
608.222	1	2
608.561	1	6
608.901	1	2
609.240	1	3
609.579	1	12
609.919	1	-12
610.258	1	19
610.598	1	-2
610.937	1	0
611.277	1	6
611.616	1	-14
611.955	1	5
612.295	1	7
612.634	1	-3
612.974	1	11
613.313	1	0
613.652	1	6
613.992	1	15
614.331	1	9
614.671	1	5
615.010	1	1
615.349	1	5
615.689	1	6
616.028	1	4
616.368	1	0
616.707	1	-6
617.046	1	1
617.386	1	-3
617.725	1	5
618.064	1	2
618.404	1	7
618.743	1	0
619.082	1	3
619.422	1	-4
619.761	1	6
620.100	1	2
620.440	1	5
620.779	1	-5
621.118	1	-1
621.458	1	11
621.797	1	-4
622.136	1	3
622.476	1	11
622.815	1	2
623.154	1	10
623.494	1	-3
623.833	1	-2
624.172	1	5
624.511	1	-1
624.851	1	-5
625.190	1	4
625.529	1	-3
625.869	1	1
626.208	1	-5
626.547	1	-1
626.886	1	-2
627.226	1	1
627.565	1	8
627.904	1	-3
628.243	1	-8
628.583	1	1
628.922	1	-5
629.261	1	7
629.600	1	12
629.940	1	-4
630.279	1	0
630.618	1	-3
630.957	1	-1
631.297	1	-4
631.636	1	-2
631.975	1	9
632.314	1	10
632.653	1	-6
632.993	1	3
633.332	1	5
633.671	1	1
634.010	1	-2
634.349	1	3
634.689	1	1
635.028	1	-3
635.367	1	-4
635.706	1	-3
636.045	1	2
636.384	1	9
636.724	1	-1
637.063	1	9
637.402	1	8
637.741	1	13
638.080	1	3
638.419	1	-1
638.759	1	6
639.098	1	-6
639.437	1	6
639.776	1	-3
640.115	1	-1
640.454	1	9
640.793	1	4
641.132	1	11
641.472	1	-12
641.811	1	5
642.150	1	-4
642.489	1	-12
642.828	1	-1
643.167	1	8
643.506	1	-2
643.845	1	8
644.184	1	6
644.524	1	-9
644.863	1	2
645.202	1	1
645.541	1	-9
645.880	1	9
646.219	1	1
646.558	1	1
646.897	1	4
647.236	1	8
647.575	1	8
647.914	1	-9
648.253	1	-5
648.592	1	0
648.931	1	10
649.270	1	8
649.610	1	13
649.949	1	3
650.288	1	9
650.627	1	1
650.966	1	0
651.305	1	-17
651.644	1	1
651.983	1	1
652.322	1	2
652.661	1	-1
653.000	1	4
653.339	1	11
653.678	1	4
654.017	1	-2
654.356	1	8
654.695	1	5
655.034	1	0
655.373	1	7
655.712	1	-4
656.051	1	2
656.390	1	0
656.729	1	1
657.068	1	3
657.406	1	7
657.745	1	-3
658.084	1	11
658.423	1	-6
658.762	1	-2
659.101	1	-8
659.440	1	4
659.779	1	-4
660.118	1	6
660.457	1	0
660.796	1	1
661.135	1	4
661.474	1	6
661.813	1	6
662.152	1	-3
662.491	1	2
662.829	1	4
663.168	1	-6
663.507	1	4
663.846	1	-1
664.185	1	-2
664.524	1	-14
664.863	1	0
665.202	1	-11
665.541	1	3
665.879	1	0
666.218	1	-7
666.557	1	1
666.896	1	-2
667.235	1	2
667.574	1	6
667.913	1	3
668.251	1	1
668.590	1	-10
668.929	1	3
669.268	1	0
669.607	1	-4
669.946	1	0
670.285	1	4
670.623	1	10
670.962	1	4
671.301	1	-5
671.640	1	-8
671.979	1	10
672.317	1	-3
672.656	1	-2
672.995	1	2
673.334	1	7
673.673	1	11
674.011	1	4
674.350	1	-1
674.689	1	-3
675.028	1	-1
675.367	1	2
675.705	1	-15
676.044	1	-6
676.383	1	-8
676.722	1	3
677.060	1	5
677.399	1	3
677.738	1	-5
678.077	1	8
678.416	1	3
678.754	1	-4
679.093	1	-1
679.432	1	-3
679.771	1	-4
680.109	1	6
680.448	1	7
680.787	1	3
681.125	1	9
681.464	1	0
681.803	1	-14
682.142	1	12
682.480	1	-5
682.819	1	0
683.158	1	-1
683.496	1	6
683.835	1	3
684.174	1	2
684.512	1	2
684.851	1	4
685.190	1	11
685.529	1	0
685.867	1	-4
686.206	1	6
686.545	1	10
686.883	1	-6
687.222	1	0
687.561	1	2
687.899	1	5
688.238	1	-4
688.577	1	-9
688.746	1	9