File: Analysis/GaN_68K_200ms/GaN_sample E_spot4_UVVIS_68 K_200um_200 ms 2x2mm1_162.txt
340.368	1	3
340.710	1	-8
341.052	1	10
341.394	1	-7
341.737	1	18
342.079	1	-9
342.421	1	0
342.763	1	-2
343.105	1	16
343.447	1	9
343.789	1	4
344.131	1	3
344.473	1	5
344.815	1	9
345.157	1	10
345.499	1	11
345.841	1	19
346.183	1	4
346.526	1	5
346.868	1	10
347.210	1	7
347.552	1	5
347.894	1	1
348.236	1	16
348.578	1	9
348.920	1	17
349.262	1	-6
349.604	1	7
349.946	1	18
350.288	1	4
350.630	1	-1
350.972	1	-1
351.314	1	2
351.656	1	2
351.998	1	1
352.340	1	10
352.682	1	4
353.024	1	4
353.366	1	4
353.708	1	12
354.050	1	4
354.392	1	8
354.734	1	10
355.076	1	5
355.418	1	0
355.760	1	15
356.102	1	12
356.444	1	6
356.785	1	17
357.127	1	9
357.469	1	8
357.811	1	18
358.153	1	4
358.495	1	14
358.837	1	16
359.179	1	7
359.521	1	18
359.863	1	5
360.205	1	9
360.547	1	17
360.889	1	22
361.231	1	17
361.572	1	10
361.914	1	20
362.256	1	20
362.598	1	23
362.940	1	18
363.282	1	36
363.624	1	22
363.966	1	33
364.308	1	26
364.649	1	38
364.991	1	38
365.333	1	41
365.675	1	39
366.017	1	54
366.359	1	44
366.701	1	42
367.042	1	55
367.384	1	56
367.726	1	59
368.068	1	50
368.410	1	46
368.752	1	42
369.093	1	42
369.435	1	36
369.777	1	47
370.119	1	46
370.461	1	44
370.803	1	28
371.144	1	36
371.486	1	43
371.828	1	29
372.170	1	36
372.512	1	26
372.853	1	31
373.195	1	12
373.537	1	29
373.879	1	29
374.220	1	29
374.562	1	16
374.904	1	22
375.246	1	27
375.588	1	19
375.929	1	14
376.271	1	10
376.613	1	14
376.955	1	16
377.296	1	15
377.638	1	19
377.980	1	15
378.321	1	15
378.663	1	6
379.005	1	33
379.347	1	15
379.688	1	13
380.030	1	12
380.372	1	18
380.714	1	20
381.055	1	21
381.397	1	23
381.739	1	22
382.080	1	12
382.422	1	28
382.764	1	22
383.105	1	27
383.447	1	43
383.789	1	39
384.130	1	25
384.472	1	37
384.814	1	49
385.156	1	51
385.497	1	58
385.839	1	58
386.180	1	56
386.522	1	47
386.864	1	55
387.205	1	51
387.547	1	58
387.889	1	67
388.230	1	56
388.572	1	57
388.914	1	66
389.255	1	46
389.597	1	44
389.939	1	53
390.280	1	62
390.622	1	44
390.963	1	58
391.305	1	55
391.647	1	58
391.988	1	41
392.330	1	53
392.671	1	57
393.013	1	58
393.355	1	51
393.696	1	52
394.038	1	34
394.379	1	43
394.721	1	48
395.062	1	36
395.404	1	48
395.746	1	40
396.087	1	43
396.429	1	51
396.770	1	49
397.112	1	41
397.453	1	44
397.795	1	52
398.136	1	49
398.478	1	51
398.819	1	48
399.161	1	61
399.503	1	50
399.844	1	57
400.186	1	58
400.527	1	46
400.869	1	58
401.210	1	47
401.552	1	52
401.893	1	45
402.235	1	44
402.576	1	47
402.918	1	38
403.259	1	26
403.601	1	31
403.942	1	50
404.284	1	34
404.625	1	43
404.967	1	36
405.308	1	39
405.649	1	38
405.991	1	50
406.332	1	24
406.674	1	44
407.015	1	29
407.357	1	36
407.698	1	35
408.040	1	26
408.381	1	28
408.722	1	37
409.064	1	27
409.405	1	25
409.747	1	27
410.088	1	41
410.430	1	37
410.771	1	29
411.112	1	38
411.454	1	43
411.795	1	22
412.137	1	31
412.478	1	27
412.819	1	24
413.161	1	25
413.502	1	22
413.844	1	20
414.185	1	25
414.526	1	20
414.868	1	30
415.209	1	16
415.550	1	13
415.892	1	22
416.233	1	21
416.575	1	21
416.916	1	19
417.257	1	25
417.599	1	20
417.940	1	16
418.281	1	19
418.623	1	24
418.964	1	13
419.305	1	23
419.647	1	20
419.988	1	22
420.329	1	17
420.671	1	22
421.012	1	22
421.353	1	24
421.695	1	22
422.036	1	18
422.377	1	27
422.718	1	14
423.060	1	16
423.401	1	18
423.742	1	3
424.084	1	18
424.425	1	18
424.766	1	21
425.107	1	18
425.449	1	21
425.790	1	15
426.131	1	19
426.472	1	20
426.814	1	24
427.155	1	12
427.496	1	23
427.837	1	14
428.179	1	6
428.520	1	20
428.861	1	13
429.202	1	23
429.544	1	18
429.885	1	6
430.226	1	8
430.567	1	15
430.909	1	10
431.250	1	1
431.591	1	21
431.932	1	19
432.273	1	3
432.615	1	18
432.956	1	17
433.297	1	16
433.638	1	7
433.979	1	12
434.320	1	14
434.662	1	6
435.003	1	14
435.344	1	12
435.685	1	13
436.026	1	14
436.368	1	8
436.709	1	11
437.050	1	19
437.391	1	5
437.732	1	6
438.073	1	16
438.414	1	16
438.756	1	19
439.097	1	22
439.438	1	21
439.779	1	10
440.120	1	13
440.461	1	6
440.802	1	17
441.143	1	18
441.485	1	16
441.826	1	4
442.167	1	5
442.508	1	8
442.849	1	9
443.190	1	1
443.531	1	11
443.872	1	4
444.213	1	4
444.554	1	10
444.895	1	1
445.237	1	7
445.578	1	11
445.919	1	6
446.260	1	24
446.601	1	3
446.942	1	14
447.283	1	5
447.624	1	22
447.965	1	11
448.306	1	8
448.647	1	21
448.988	1	-5
449.329	1	13
449.670	1	23
450.011	1	13
450.352	1	9
450.693	1	20
451.034	1	13
451.375	1	10
451.716	1	16
452.057	1	12
452.398	1	12
452.739	1	12
453.080	1	13
453.421	1	-2
453.762	1	14
454.103	1	5
454.444	1	13
454.785	1	-2
455.126	1	11
455.467	1	11
455.808	1	10
456.149	1	-1
456.490	1	9
456.831	1	14
457.172	1	1
457.513	1	17
457.854	1	-3
458.195	1	3
458.536	1	10
458.877	1	8
459.218	1	17
459.559	1	15
459.899	1	14
460.240	1	7
460.581	1	16
460.922	1	3
461.263	1	9
461.604	1	7
461.945	1	10
462.286	1	15
462.627	1	6
462.968	1	7
463.309	1	12
463.649	1	4
463.990	1	8
464.331	1	8
464.672	1	3
465.013	1	-1
465.354	1	15
465.695	1	7
466.036	1	15
466.376	1	-8
466.717	1	0
467.058	1	12
467.399	1	11
467.740	1	10
468.081	1	7
468.422	1	5
468.762	1	-5
469.103	1	7
469.444	1	3
469.785	1	10
470.126	1	17
470.467	1	-3
470.807	1	6
471.148	1	0
471.489	1	9
471.830	1	20
472.171	1	8
472.511	1	11
472.852	1	6
473.193	1	-2
473.534	1	5
473.875	1	25
474.215	1	0
474.556	1	-5
474.897	1	14
475.238	1	6
475.578	1	8
475.919	1	9
476.260	1	1
476.601	1	7
476.942	1	9
477.282	1	-6
477.623	1	15
477.964	1	14
478.305	1	0
478.645	1	2
478.986	1	10
479.327	1	0
479.667	1	10
480.008	1	12
480.349	1	8
480.690	1	7
481.030	1	0
481.371	1	17
481.712	1	16
482.053	1	8
482.393	1	2
482.734	1	8
483.075	1	11
483.415	1	8
483.756	1	15
484.097	1	5
484.437	1	-3
484.778	1	0
485.119	1	6
485.459	1	19
485.800	1	4
486.141	1	-2
486.481	1	9
486.822	1	11
487.163	1	-4
487.503	1	12
487.844	1	1
488.185	1	9
488.525	1	7
488.866	1	13
489.207	1	20
489.547	1	2
489.888	1	11
490.228	1	-4
490.569	1	13
490.910	1	6
491.250	1	6
491.591	1	10
491.932	1	15
492.272	1	20
492.613	1	13
492.953	1	12
493.294	1	17
493.635	1	10
493.975	1	16
494.316	1	21
494.656	1	16
494.997	1	12
495.337	1	15
495.678	1	22
496.019	1	10
496.359	1	9
496.700	1	12
497.040	1	12
497.381	1	-1
497.721	1	12
498.062	1	9
498.403	1	18
498.743	1	20
499.084	1	7
499.424	1	20
499.765	1	14
500.105	1	17
500.446	1	13
500.786	1	8
501.127	1	21
501.467	1	12
501.808	1	4
502.148	1	21
502.489	1	20
502.829	1	15
503.170	1	18
503.510	1	29
503.851	1	4
504.191	1	23
504.532	1	6
504.872	1	20
505.213	1	20
505.553	1	30
505.894	1	27
506.234	1	31
506.575	1	16
506.915	1	17
507.256	1	15
507.596	1	25
507.936	1	29
508.277	1	16
508.617	1	28
508.958	1	20
509.298	1	32
509.639	1	36
509.979	1	28
510.319	1	19
510.660	1	19
511.000	1	31
511.341	1	14
511.681	1	22
512.022	1	14
512.362	1	22
512.702	1	14
513.043	1	30
513.383	1	13
513.724	1	29
514.064	1	31
514.404	1	18
514.745	1	29
515.085	1	24
515.425	1	23
515.766	1	33
516.106	1	20
516.447	1	28
516.787	1	26
517.127	1	31
517.468	1	36
517.808	1	41
518.148	1	33
518.489	1	33
518.829	1	20
519.169	1	47
519.510	1	42
519.850	1	27
520.190	1	30
520.531	1	25
520.871	1	37
521.211	1	27
521.552	1	42
521.892	1	35
522.232	1	23
522.573	1	48
522.913	1	49
523.253	1	26
523.593	1	30
523.934	1	38
524.274	1	35
524.614	1	31
524.955	1	33
525.295	1	28
525.635	1	36
525.975	1	30
526.316	1	41
526.656	1	54
526.996	1	53
527.337	1	50
527.677	1	45
528.017	1	38
528.357	1	44
528.698	1	28
529.038	1	37
529.378	1	41
529.718	1	51
530.058	1	33
530.399	1	45
530.739	1	40
531.079	1	55
531.419	1	46
531.760	1	44
532.100	1	38
532.440	1	40
532.780	1	43
533.120	1	37
533.461	1	51
533.801	1	37
534.141	1	53
534.481	1	34
534.821	1	43
535.162	1	48
535.502	1	55
535.842	1	42
536.182	1	33
536.522	1	40
536.862	1	40
537.203	1	46
537.543	1	41
537.883	1	48
538.223	1	47
538.563	1	37
538.903	1	32
539.243	1	35
539.584	1	41
539.924	1	37
540.264	1	35
540.604	1	42
540.944	1	30
541.284	1	28
541.624	1	35
541.964	1	40
542.305	1	23
542.645	1	38
542.985	1	31
543.325	1	27
543.665	1	45
544.005	1	32
544.345	1	27
544.685	1	36
545.025	1	36
545.365	1	37
545.705	1	36
546.045	1	32
546.386	1	38
546.726	1	28
547.066	1	25
547.406	1	46
547.746	1	31
548.086	1	38
548.426	1	33
548.766	1	22
549.106	1	40
549.446	1	29
549.786	1	31
550.126	1	33
550.466	1	23
550.806	1	27
551.146	1	29
551.486	1	32
551.826	1	28
552.166	1	36
552.506	1	27
552.846	1	31
553.186	1	23
553.526	1	21
553.866	1	28
554.206	1	33
554.546	1	22
554.886	1	19
555.226	1	15
555.566	1	28
555.906	1	32
556.246	1	24
556.586	1	27
556.926	1	33
557.266	1	35
557.606	1	14
557.946	1	29
558.286	1	23
558.626	1	21
558.966	1	26
559.306	1	20
559.646	1	21
559.986	1	18
560.325	1	14
560.665	1	25
561.005	1	20
561.345	1	29
561.685	1	16
562.025	1	15
562.365	1	18
562.705	1	29
563.045	1	29
563.385	1	20
563.725	1	15
564.064	1	24
564.404	1	21
564.744	1	35
565.084	1	8
565.424	1	13
565.764	1	27
566.104	1	21
566.444	1	21
566.783	1	15
567.123	1	27
567.463	1	19
567.803	1	17
568.143	1	14
568.483	1	9
568.823	1	24
569.162	1	21
569.502	1	15
569.842	1	12
570.182	1	8
570.522	1	18
570.862	1	22
571.201	1	25
571.541	1	3
571.881	1	19
572.221	1	26
572.561	1	9
572.900	1	25
573.240	1	12
573.580	1	18
573.920	1	9
574.260	1	12
574.599	1	9
574.939	1	16
575.279	1	25
575.619	1	15
575.959	1	11
576.298	1	14
576.638	1	16
576.978	1	18
577.318	1	21
577.657	1	7
577.997	1	4
578.337	1	14
578.677	1	7
579.016	1	22
579.356	1	17
579.696	1	17
580.036	1	-2
580.375	1	4
580.715	1	11
581.055	1	22
581.394	1	6
581.734	1	13
582.074	1	9
582.414	1	12
582.753	1	21
583.093	1	-1
583.433	1	11
583.772	1	17
584.112	1	17
584.452	1	7
584.791	1	11
585.131	1	7
585.471	1	12
585.811	1	7
586.150	1	9
586.490	1	5
586.830	1	7
587.169	1	12
587.509	1	9
587.849	1	17
588.188	1	4
588.528	1	11
588.867	1	12
589.207	1	-7
589.547	1	10
589.886	1	3
590.226	1	10
590.566	1	16
590.905	1	12
591.245	1	7
591.585	1	2
591.924	1	10
592.264	1	7
592.603	1	8
592.943	1	16
593.283	1	10
593.622	1	6
593.962	1	13
594.301	1	17
594.641	1	-1
594.981	1	9
595.320	1	16
595.660	1	1
595.999	1	10
596.339	1	20
596.678	1	3
597.018	1	17
597.358	1	13
597.697	1	5
598.037	1	7
598.376	1	20
598.716	1	4
599.055	1	7
599.395	1	12
599.734	1	11
600.074	1	1
600.413	1	5
600.753	1	5
601.092	1	2
601.432	1	11
601.771	1	16
602.111	1	-3
602.451	1	5
602.790	1	9
603.130	1	15
603.469	1	6
603.809	1	22
604.148	1	3
604.487	1	17
604.827	1	8
605.166	1	3
605.506	1	10
605.845	1	8
606.185	1	4
606.524	1	0
606.864	1	9
607.203	1	12
607.543	1	-1
607.882	1	4
608.222	1	14
608.561	1	16
608.901	1	14
609.240	1	4
609.579	1	10
609.919	1	8
610.258	1	16
610.598	1	18
610.937	1	3
611.277	1	16
611.616	1	-3
611.955	1	10
612.295	1	1
612.634	1	2
612.974	1	7
613.313	1	9
613.652	1	15
613.992	1	8
614.331	1	8
614.671	1	8
615.010	1	6
615.349	1	7
615.689	1	14
616.028	1	5
616.368	1	3
616.707	1	11
617.046	1	4
617.386	1	6
617.725	1	10
618.064	1	6
618.404	1	21
618.743	1	8
619.082	1	-3
619.422	1	10
619.761	1	12
620.100	1	15
620.440	1	10
620.779	1	2
621.118	1	6
621.458	1	15
621.797	1	10
622.136	1	15
622.476	1	2
622.815	1	3
623.154	1	13
623.494	1	12
623.833	1	6
624.172	1	16
624.511	1	12
624.851	1	-5
625.190	1	8
625.529	1	7
625.869	1	15
626.208	1	4
626.547	1	14
626.886	1	-4
627.226	1	3
627.565	1	14
627.904	1	-1
628.243	1	-1
628.583	1	10
628.922	1	6
629.261	1	18
629.600	1	6
629.940	1	6
630.279	1	-7
630.618	1	-1
630.957	1	-5
631.297	1	-1
631.636	1	7
631.975	1	12
632.314	1	13
632.653	1	-2
632.993	1	8
633.332	1	11
633.671	1	3
634.010	1	2
634.349	1	5
634.689	1	12
635.028	1	9
635.367	1	2
635.706	1	0
636.045	1	7
636.384	1	9
636.724	1	9
637.063	1	12
637.402	1	10
637.741	1	14
638.080	1	15
638.419	1	4
638.759	1	2
639.098	1	8
639.437	1	-7
639.776	1	4
640.115	1	2
640.454	1	18
640.793	1	9
641.132	1	17
641.472	1	4
641.811	1	10
642.150	1	8
642.489	1	-2
642.828	1	1
643.167	1	11
643.506	1	6
643.845	1	8
644.184	1	15
644.524	1	3
644.863	1	0
645.202	1	1
645.541	1	-7
645.880	1	0
646.219	1	7
646.558	1	9
646.897	1	1
647.236	1	9
647.575	1	11
647.914	1	-4
648.253	1	7
648.592	1	5
648.931	1	8
649.270	1	14
649.610	1	14
649.949	1	-2
650.288	1	0
650.627	1	7
650.966	1	2
651.305	1	-7
651.644	1	7
651.983	1	8
652.322	1	16
652.661	1	9
653.000	1	7
653.339	1	3
653.678	1	4
654.017	1	4
654.356	1	11
654.695	1	5
655.034	1	4
655.373	1	3
655.712	1	11
656.051	1	11
656.390	1	3
656.729	1	14
657.068	1	6
657.406	1	15
657.745	1	-8
658.084	1	18
658.423	1	-4
658.762	1	3
659.101	1	8
659.440	1	12
659.779	1	0
660.118	1	19
660.457	1	-2
660.796	1	5
661.135	1	13
661.474	1	4
661.813	1	11
662.152	1	7
662.491	1	8
662.829	1	2
663.168	1	0
663.507	1	8
663.846	1	19
664.185	1	0
664.524	1	1
664.863	1	3
665.202	1	-1
665.541	1	-1
665.879	1	11
666.218	1	-6
666.557	1	10
666.896	1	6
667.235	1	8
667.574	1	15
667.913	1	3
668.251	1	4
668.590	1	-6
668.929	1	2
669.268	1	9
669.607	1	4
669.946	1	18
670.285	1	-2
670.623	1	11
670.962	1	1
671.301	1	-3
671.640	1	-8
671.979	1	18
672.317	1	-1
672.656	1	3
672.995	1	5
673.334	1	20
673.673	1	22
674.011	1	12
674.350	1	4
674.689	1	9
675.028	1	8
675.367	1	9
675.705	1	-1
676.044	1	0
676.383	1	10
676.722	1	-6
677.060	1	8
677.399	1	2
677.738	1	3
678.077	1	4
678.416	1	7
678.754	1	1
679.093	1	3
679.432	1	9
679.771	1	8
680.109	1	7
680.448	1	2
680.787	1	4
681.125	1	10
681.464	1	7
681.803	1	0
682.142	1	17
682.480	1	0
682.819	1	8
683.158	1	10
683.496	1	5
683.835	1	7
684.174	1	0
684.512	1	6
684.851	1	-4
685.190	1	9
685.529	1	5
685.867	1	10
686.206	1	12
686.545	1	11
686.883	1	13
687.222	1	0
687.561	1	10
687.899	1	2
688.238	1	7
688.577	1	3
688.746	1	14