File: Analysis/GaN_68K_200ms/GaN_sample E_spot4_UVVIS_68 K_200um_200 ms 2x2mm1_366.txt
340.368	1	-2
340.710	1	-2
341.052	1	0
341.394	1	-1
341.737	1	8
342.079	1	-1
342.421	1	-3
342.763	1	-1
343.105	1	14
343.447	1	5
343.789	1	-1
344.131	1	-3
344.473	1	-2
344.815	1	8
345.157	1	6
345.499	1	3
345.841	1	13
346.183	1	1
346.526	1	13
346.868	1	-1
347.210	1	0
347.552	1	-5
347.894	1	11
348.236	1	1
348.578	1	10
348.920	1	14
349.262	1	3
349.604	1	9
349.946	1	11
350.288	1	-2
350.630	1	-12
350.972	1	3
351.314	1	-3
351.656	1	-3
351.998	1	3
352.340	1	3
352.682	1	2
353.024	1	2
353.366	1	6
353.708	1	-2
354.050	1	16
354.392	1	16
354.734	1	6
355.076	1	3
355.418	1	4
355.760	1	3
356.102	1	-5
356.444	1	7
356.785	1	8
357.127	1	-2
357.469	1	-1
357.811	1	15
358.153	1	12
358.495	1	10
358.837	1	0
359.179	1	6
359.521	1	3
359.863	1	-8
360.205	1	-1
360.547	1	5
360.889	1	-4
361.231	1	4
361.572	1	-3
361.914	1	-1
362.256	1	9
362.598	1	1
362.940	1	9
363.282	1	6
363.624	1	5
363.966	1	9
364.308	1	-5
364.649	1	7
364.991	1	5
365.333	1	10
365.675	1	-5
366.017	1	4
366.359	1	3
366.701	1	6
367.042	1	18
367.384	1	9
367.726	1	15
368.068	1	-3
368.410	1	9
368.752	1	-2
369.093	1	-5
369.435	1	0
369.777	1	1
370.119	1	9
370.461	1	5
370.803	1	-5
371.144	1	3
371.486	1	14
371.828	1	2
372.170	1	16
372.512	1	1
372.853	1	7
373.195	1	-1
373.537	1	6
373.879	1	19
374.220	1	3
374.562	1	9
374.904	1	4
375.246	1	-5
375.588	1	-2
375.929	1	6
376.271	1	4
376.613	1	2
376.955	1	-7
377.296	1	7
377.638	1	1
377.980	1	9
378.321	1	3
378.663	1	0
379.005	1	1
379.347	1	6
379.688	1	2
380.030	1	-4
380.372	1	-5
380.714	1	11
381.055	1	1
381.397	1	-1
381.739	1	9
382.080	1	-11
382.422	1	13
382.764	1	11
383.105	1	5
383.447	1	11
383.789	1	4
384.130	1	-5
384.472	1	1
384.814	1	5
385.156	1	8
385.497	1	8
385.839	1	4
386.180	1	0
386.522	1	6
386.864	1	0
387.205	1	5
387.547	1	-1
387.889	1	13
388.230	1	1
388.572	1	7
388.914	1	11
389.255	1	9
389.597	1	-3
389.939	1	17
390.280	1	15
390.622	1	-5
390.963	1	1
391.305	1	6
391.647	1	6
391.988	1	4
392.330	1	7
392.671	1	9
393.013	1	6
393.355	1	14
393.696	1	6
394.038	1	-2
394.379	1	-2
394.721	1	15
395.062	1	-7
395.404	1	21
395.746	1	-2
396.087	1	2
396.429	1	14
396.770	1	11
397.112	1	0
397.453	1	-3
397.795	1	4
398.136	1	9
398.478	1	12
398.819	1	10
399.161	1	6
399.503	1	-1
399.844	1	11
400.186	1	15
400.527	1	11
400.869	1	9
401.210	1	10
401.552	1	17
401.893	1	8
402.235	1	13
402.576	1	19
402.918	1	-7
403.259	1	-9
403.601	1	-1
403.942	1	12
404.284	1	0
404.625	1	2
404.967	1	6
405.308	1	4
405.649	1	5
405.991	1	16
406.332	1	-4
406.674	1	6
407.015	1	-1
407.357	1	8
407.698	1	-3
408.040	1	-2
408.381	1	3
408.722	1	0
409.064	1	3
409.405	1	6
409.747	1	3
410.088	1	-5
410.430	1	7
410.771	1	6
411.112	1	9
411.454	1	16
411.795	1	3
412.137	1	10
412.478	1	6
412.819	1	4
413.161	1	3
413.502	1	0
413.844	1	5
414.185	1	-1
414.526	1	5
414.868	1	10
415.209	1	1
415.550	1	-11
415.892	1	-3
416.233	1	7
416.575	1	-3
416.916	1	1
417.257	1	7
417.599	1	5
417.940	1	-4
418.281	1	-1
418.623	1	6
418.964	1	5
419.305	1	4
419.647	1	12
419.988	1	-1
420.329	1	-4
420.671	1	6
421.012	1	9
421.353	1	13
421.695	1	6
422.036	1	1
422.377	1	7
422.718	1	-1
423.060	1	4
423.401	1	9
423.742	1	1
424.084	1	10
424.425	1	2
424.766	1	9
425.107	1	10
425.449	1	10
425.790	1	7
426.131	1	5
426.472	1	-7
426.814	1	8
427.155	1	1
427.496	1	13
427.837	1	-7
428.179	1	-9
428.520	1	-1
428.861	1	-2
429.202	1	9
429.544	1	6
429.885	1	1
430.226	1	-4
430.567	1	5
430.909	1	-5
431.250	1	-3
431.591	1	-1
431.932	1	9
432.273	1	-1
432.615	1	6
432.956	1	-6
433.297	1	9
433.638	1	3
433.979	1	6
434.320	1	11
434.662	1	-4
435.003	1	14
435.344	1	6
435.685	1	8
436.026	1	4
436.368	1	8
436.709	1	-7
437.050	1	8
437.391	1	2
437.732	1	6
438.073	1	18
438.414	1	9
438.756	1	9
439.097	1	7
439.438	1	9
439.779	1	-5
440.120	1	4
440.461	1	-8
440.802	1	-4
441.143	1	7
441.485	1	6
441.826	1	-7
442.167	1	2
442.508	1	-4
442.849	1	6
443.190	1	-9
443.531	1	1
443.872	1	4
444.213	1	2
444.554	1	-6
444.895	1	4
445.237	1	-3
445.578	1	16
445.919	1	7
446.260	1	9
446.601	1	-4
446.942	1	7
447.283	1	0
447.624	1	1
447.965	1	-13
448.306	1	-1
448.647	1	13
448.988	1	-13
449.329	1	1
449.670	1	5
450.011	1	2
450.352	1	6
450.693	1	4
451.034	1	11
451.375	1	13
451.716	1	8
452.057	1	9
452.398	1	8
452.739	1	4
453.080	1	17
453.421	1	4
453.762	1	10
454.103	1	-3
454.444	1	15
454.785	1	-5
455.126	1	-3
455.467	1	3
455.808	1	2
456.149	1	-10
456.490	1	-1
456.831	1	10
457.172	1	0
457.513	1	9
457.854	1	5
458.195	1	-2
458.536	1	6
458.877	1	2
459.218	1	4
459.559	1	0
459.899	1	8
460.240	1	8
460.581	1	13
460.922	1	5
461.263	1	2
461.604	1	-6
461.945	1	3
462.286	1	11
462.627	1	-6
462.968	1	-5
463.309	1	-3
463.649	1	7
463.990	1	6
464.331	1	10
464.672	1	0
465.013	1	-11
465.354	1	7
465.695	1	12
466.036	1	13
466.376	1	4
466.717	1	-7
467.058	1	15
467.399	1	3
467.740	1	-5
468.081	1	6
468.422	1	7
468.762	1	-6
469.103	1	-11
469.444	1	2
469.785	1	0
470.126	1	14
470.467	1	-1
470.807	1	6
471.148	1	-10
471.489	1	4
471.830	1	10
472.171	1	0
472.511	1	8
472.852	1	-5
473.193	1	-4
473.534	1	2
473.875	1	3
474.215	1	-3
474.556	1	-4
474.897	1	1
475.238	1	3
475.578	1	4
475.919	1	4
476.260	1	7
476.601	1	-16
476.942	1	1
477.282	1	-7
477.623	1	2
477.964	1	9
478.305	1	10
478.645	1	-8
478.986	1	-2
479.327	1	-6
479.667	1	7
480.008	1	5
480.349	1	6
480.690	1	-4
481.030	1	-8
481.371	1	4
481.712	1	13
482.053	1	12
482.393	1	-4
482.734	1	6
483.075	1	13
483.415	1	18
483.756	1	9
484.097	1	-1
484.437	1	-10
484.778	1	3
485.119	1	-1
485.459	1	3
485.800	1	0
486.141	1	-12
486.481	1	-1
486.822	1	3
487.163	1	-6
487.503	1	-14
487.844	1	-5
488.185	1	-2
488.525	1	-1
488.866	1	20
489.207	1	12
489.547	1	3
489.888	1	2
490.228	1	-6
490.569	1	16
490.910	1	-6
491.250	1	2
491.591	1	-6
491.932	1	3
492.272	1	11
492.613	1	2
492.953	1	2
493.294	1	8
493.635	1	3
493.975	1	0
494.316	1	8
494.656	1	1
494.997	1	0
495.337	1	11
495.678	1	10
496.019	1	-4
496.359	1	4
496.700	1	6
497.040	1	11
497.381	1	-9
497.721	1	-1
498.062	1	10
498.403	1	18
498.743	1	3
499.084	1	-7
499.424	1	22
499.765	1	2
500.105	1	8
500.446	1	5
500.786	1	-1
501.127	1	6
501.467	1	0
501.808	1	-10
502.148	1	15
502.489	1	12
502.829	1	8
503.170	1	1
503.510	1	11
503.851	1	-3
504.191	1	6
504.532	1	-6
504.872	1	2
505.213	1	5
505.553	1	3
505.894	1	0
506.234	1	12
506.575	1	6
506.915	1	4
507.256	1	8
507.596	1	4
507.936	1	8
508.277	1	-2
508.617	1	12
508.958	1	10
509.298	1	18
509.639	1	12
509.979	1	-1
510.319	1	3
510.660	1	16
511.000	1	8
511.341	1	-4
511.681	1	1
512.022	1	-2
512.362	1	0
512.702	1	-7
513.043	1	7
513.383	1	-1
513.724	1	8
514.064	1	10
514.404	1	1
514.745	1	-9
515.085	1	9
515.425	1	-3
515.766	1	3
516.106	1	3
516.447	1	-3
516.787	1	-2
517.127	1	8
517.468	1	1
517.808	1	3
518.148	1	5
518.489	1	13
518.829	1	-1
519.169	1	12
519.510	1	-1
519.850	1	-4
520.190	1	1
520.531	1	9
520.871	1	-7
521.211	1	3
521.552	1	7
521.892	1	-3
522.232	1	-2
522.573	1	6
522.913	1	0
523.253	1	0
523.593	1	-6
523.934	1	8
524.274	1	0
524.614	1	7
524.955	1	-3
525.295	1	1
525.635	1	13
525.975	1	-9
526.316	1	3
526.656	1	17
526.996	1	13
527.337	1	2
527.677	1	21
528.017	1	-3
528.357	1	11
528.698	1	2
529.038	1	1
529.378	1	6
529.718	1	6
530.058	1	7
530.399	1	9
530.739	1	4
531.079	1	12
531.419	1	17
531.760	1	2
532.100	1	17
532.440	1	-4
532.780	1	5
533.120	1	-1
533.461	1	17
533.801	1	6
534.141	1	8
534.481	1	10
534.821	1	9
535.162	1	5
535.502	1	7
535.842	1	3
536.182	1	3
536.522	1	11
536.862	1	11
537.203	1	9
537.543	1	9
537.883	1	6
538.223	1	6
538.563	1	-5
538.903	1	5
539.243	1	1
539.584	1	9
539.924	1	3
540.264	1	10
540.604	1	10
540.944	1	-2
541.284	1	-3
541.624	1	-2
541.964	1	15
542.305	1	-8
542.645	1	6
542.985	1	0
543.325	1	10
543.665	1	5
544.005	1	-1
544.345	1	-5
544.685	1	10
545.025	1	-2
545.365	1	1
545.705	1	9
546.045	1	4
546.386	1	5
546.726	1	4
547.066	1	-6
547.406	1	16
547.746	1	7
548.086	1	8
548.426	1	2
548.766	1	11
549.106	1	10
549.446	1	10
549.786	1	2
550.126	1	3
550.466	1	-1
550.806	1	19
551.146	1	1
551.486	1	9
551.826	1	13
552.166	1	-2
552.506	1	-4
552.846	1	7
553.186	1	7
553.526	1	6
553.866	1	2
554.206	1	2
554.546	1	-9
554.886	1	3
555.226	1	-4
555.566	1	11
555.906	1	9
556.246	1	-2
556.586	1	16
556.926	1	9
557.266	1	8
557.606	1	-7
557.946	1	14
558.286	1	8
558.626	1	5
558.966	1	0
559.306	1	-4
559.646	1	7
559.986	1	1
560.325	1	-1
560.665	1	3
561.005	1	11
561.345	1	7
561.685	1	-2
562.025	1	-2
562.365	1	4
562.705	1	12
563.045	1	18
563.385	1	2
563.725	1	5
564.064	1	12
564.404	1	2
564.744	1	7
565.084	1	-8
565.424	1	6
565.764	1	3
566.104	1	5
566.444	1	11
566.783	1	8
567.123	1	15
567.463	1	5
567.803	1	-1
568.143	1	-1
568.483	1	1
568.823	1	10
569.162	1	6
569.502	1	-4
569.842	1	-2
570.182	1	-3
570.522	1	6
570.862	1	4
571.201	1	7
571.541	1	-13
571.881	1	8
572.221	1	4
572.561	1	3
572.900	1	13
573.240	1	-2
573.580	1	-6
573.920	1	9
574.260	1	-5
574.599	1	-5
574.939	1	7
575.279	1	9
575.619	1	7
575.959	1	-2
576.298	1	-3
576.638	1	-1
576.978	1	6
577.318	1	7
577.657	1	-12
577.997	1	1
578.337	1	2
578.677	1	1
579.016	1	5
579.356	1	0
579.696	1	6
580.036	1	-5
580.375	1	-2
580.715	1	8
581.055	1	8
581.394	1	0
581.734	1	9
582.074	1	-1
582.414	1	2
582.753	1	2
583.093	1	2
583.433	1	-1
583.772	1	6
584.112	1	6
584.452	1	4
584.791	1	4
585.131	1	1
585.471	1	1
585.811	1	-4
586.150	1	-3
586.490	1	-4
586.830	1	1
587.169	1	1
587.509	1	-1
587.849	1	10
588.188	1	5
588.528	1	5
588.867	1	8
589.207	1	-11
589.547	1	-5
589.886	1	-5
590.226	1	7
590.566	1	1
590.905	1	8
591.245	1	2
591.585	1	-5
591.924	1	1
592.264	1	-9
592.603	1	-6
592.943	1	3
593.283	1	11
593.622	1	2
593.962	1	16
594.301	1	14
594.641	1	-2
594.981	1	-1
595.320	1	16
595.660	1	-4
595.999	1	-1
596.339	1	7
596.678	1	1
597.018	1	6
597.358	1	3
597.697	1	-2
598.037	1	8
598.376	1	9
598.716	1	-10
599.055	1	4
599.395	1	-1
599.734	1	9
600.074	1	5
600.413	1	2
600.753	1	6
601.092	1	-11
601.432	1	-3
601.771	1	9
602.111	1	-2
602.451	1	3
602.790	1	4
603.130	1	3
603.469	1	-5
603.809	1	17
604.148	1	0
604.487	1	-5
604.827	1	-14
605.166	1	3
605.506	1	4
605.845	1	4
606.185	1	3
606.524	1	-2
606.864	1	-13
607.203	1	18
607.543	1	12
607.882	1	-4
608.222	1	4
608.561	1	4
608.901	1	5
609.240	1	6
609.579	1	1
609.919	1	-5
610.258	1	10
610.598	1	8
610.937	1	1
611.277	1	8
611.616	1	1
611.955	1	6
612.295	1	5
612.634	1	-1
612.974	1	7
613.313	1	6
613.652	1	-6
613.992	1	0
614.331	1	8
614.671	1	6
615.010	1	10
615.349	1	-1
615.689	1	9
616.028	1	-3
616.368	1	-3
616.707	1	-7
617.046	1	6
617.386	1	-4
617.725	1	-1
618.064	1	1
618.404	1	15
618.743	1	4
619.082	1	3
619.422	1	0
619.761	1	-2
620.100	1	3
620.440	1	3
620.779	1	-3
621.118	1	2
621.458	1	4
621.797	1	4
622.136	1	6
622.476	1	3
622.815	1	4
623.154	1	4
623.494	1	4
623.833	1	0
624.172	1	13
624.511	1	-1
624.851	1	-1
625.190	1	6
625.529	1	9
625.869	1	-2
626.208	1	-8
626.547	1	-4
626.886	1	7
627.226	1	7
627.565	1	7
627.904	1	5
628.243	1	-5
628.583	1	0
628.922	1	6
629.261	1	7
629.600	1	12
629.940	1	2
630.279	1	1
630.618	1	-3
630.957	1	-6
631.297	1	-4
631.636	1	11
631.975	1	3
632.314	1	3
632.653	1	-6
632.993	1	7
633.332	1	0
633.671	1	-3
634.010	1	-3
634.349	1	8
634.689	1	18
635.028	1	7
635.367	1	1
635.706	1	-5
636.045	1	-1
636.384	1	14
636.724	1	8
637.063	1	4
637.402	1	2
637.741	1	11
638.080	1	-1
638.419	1	10
638.759	1	-2
639.098	1	4
639.437	1	7
639.776	1	3
640.115	1	2
640.454	1	13
640.793	1	8
641.132	1	4
641.472	1	-8
641.811	1	5
642.150	1	8
642.489	1	1
642.828	1	3
643.167	1	7
643.506	1	-7
643.845	1	5
644.184	1	4
644.524	1	-5
644.863	1	-6
645.202	1	4
645.541	1	-2
645.880	1	6
646.219	1	7
646.558	1	-4
646.897	1	-5
647.236	1	-4
647.575	1	-1
647.914	1	2
648.253	1	2
648.592	1	0
648.931	1	5
649.270	1	15
649.610	1	10
649.949	1	3
650.288	1	-5
650.627	1	7
650.966	1	-5
651.305	1	-1
651.644	1	-6
651.983	1	-1
652.322	1	10
652.661	1	9
653.000	1	-3
653.339	1	15
653.678	1	2
654.017	1	1
654.356	1	6
654.695	1	13
655.034	1	1
655.373	1	7
655.712	1	-2
656.051	1	8
656.390	1	-8
656.729	1	5
657.068	1	2
657.406	1	0
657.745	1	-7
658.084	1	11
658.423	1	-11
658.762	1	-5
659.101	1	0
659.440	1	19
659.779	1	-6
660.118	1	-6
660.457	1	-1
660.796	1	-4
661.135	1	5
661.474	1	12
661.813	1	12
662.152	1	5
662.491	1	-12
662.829	1	-11
663.168	1	0
663.507	1	1
663.846	1	5
664.185	1	4
664.524	1	0
664.863	1	0
665.202	1	-8
665.541	1	-5
665.879	1	4
666.218	1	-2
666.557	1	3
666.896	1	-2
667.235	1	-8
667.574	1	6
667.913	1	3
668.251	1	-2
668.590	1	3
668.929	1	3
669.268	1	16
669.607	1	-8
669.946	1	10
670.285	1	11
670.623	1	0
670.962	1	0
671.301	1	1
671.640	1	-9
671.979	1	24
672.317	1	-8
672.656	1	0
672.995	1	6
673.334	1	7
673.673	1	18
674.011	1	4
674.350	1	-6
674.689	1	-7
675.028	1	-3
675.367	1	0
675.705	1	5
676.044	1	-5
676.383	1	-4
676.722	1	-10
677.060	1	7
677.399	1	9
677.738	1	2
678.077	1	8
678.416	1	-5
678.754	1	-4
679.093	1	5
679.432	1	1
679.771	1	-8
680.109	1	6
680.448	1	-1
680.787	1	0
681.125	1	5
681.464	1	-5
681.803	1	-13
682.142	1	11
682.480	1	1
682.819	1	6
683.158	1	-8
683.496	1	-2
683.835	1	4
684.174	1	2
684.512	1	4
684.851	1	-4
685.190	1	3
685.529	1	4
685.867	1	-4
686.206	1	9
686.545	1	1
686.883	1	-4
687.222	1	-5
687.561	1	9
687.899	1	-9
688.238	1	-1
688.577	1	-5
688.746	1	0