File: Analysis/GaN_68K_200ms/GaN_sample E_spot4_UVVIS_68 K_200um_200 ms 2x2mm1_32.txt
340.368	1	3
340.710	1	-3
341.052	1	7
341.394	1	-9
341.737	1	3
342.079	1	-2
342.421	1	0
342.763	1	-1
343.105	1	9
343.447	1	0
343.789	1	6
344.131	1	0
344.473	1	0
344.815	1	10
345.157	1	8
345.499	1	7
345.841	1	-3
346.183	1	1
346.526	1	4
346.868	1	4
347.210	1	-2
347.552	1	-6
347.894	1	-5
348.236	1	6
348.578	1	9
348.920	1	9
349.262	1	-1
349.604	1	8
349.946	1	7
350.288	1	5
350.630	1	-5
350.972	1	0
351.314	1	-6
351.656	1	11
351.998	1	-5
352.340	1	-1
352.682	1	0
353.024	1	-8
353.366	1	5
353.708	1	6
354.050	1	12
354.392	1	5
354.734	1	4
355.076	1	-3
355.418	1	-12
355.760	1	7
356.102	1	-7
356.444	1	5
356.785	1	5
357.127	1	6
357.469	1	5
357.811	1	17
358.153	1	-3
358.495	1	2
358.837	1	0
359.179	1	9
359.521	1	4
359.863	1	-10
360.205	1	0
360.547	1	0
360.889	1	0
361.231	1	6
361.572	1	-7
361.914	1	3
362.256	1	2
362.598	1	-3
362.940	1	3
363.282	1	4
363.624	1	4
363.966	1	2
364.308	1	-2
364.649	1	-1
364.991	1	5
365.333	1	16
365.675	1	-9
366.017	1	-7
366.359	1	-1
366.701	1	-6
367.042	1	4
367.384	1	5
367.726	1	8
368.068	1	-6
368.410	1	5
368.752	1	-16
369.093	1	2
369.435	1	2
369.777	1	1
370.119	1	2
370.461	1	-1
370.803	1	-12
371.144	1	7
371.486	1	13
371.828	1	-1
372.170	1	11
372.512	1	3
372.853	1	0
373.195	1	1
373.537	1	2
373.879	1	12
374.220	1	2
374.562	1	-4
374.904	1	10
375.246	1	1
375.588	1	3
375.929	1	-3
376.271	1	-2
376.613	1	-3
376.955	1	1
377.296	1	9
377.638	1	-1
377.980	1	4
378.321	1	13
378.663	1	-1
379.005	1	15
379.347	1	8
379.688	1	-11
380.030	1	-2
380.372	1	7
380.714	1	4
381.055	1	6
381.397	1	-4
381.739	1	7
382.080	1	-13
382.422	1	12
382.764	1	-1
383.105	1	-4
383.447	1	5
383.789	1	1
384.130	1	-5
384.472	1	-9
384.814	1	7
385.156	1	15
385.497	1	-6
385.839	1	3
386.180	1	-6
386.522	1	4
386.864	1	-4
387.205	1	-1
387.547	1	-10
387.889	1	12
388.230	1	-9
388.572	1	2
388.914	1	9
389.255	1	7
389.597	1	-5
389.939	1	9
390.280	1	3
390.622	1	-5
390.963	1	5
391.305	1	9
391.647	1	7
391.988	1	-5
392.330	1	8
392.671	1	4
393.013	1	5
393.355	1	8
393.696	1	-7
394.038	1	-10
394.379	1	-7
394.721	1	1
395.062	1	-4
395.404	1	12
395.746	1	-6
396.087	1	1
396.429	1	11
396.770	1	9
397.112	1	-9
397.453	1	-6
397.795	1	11
398.136	1	4
398.478	1	-1
398.819	1	10
399.161	1	3
399.503	1	-5
399.844	1	7
400.186	1	7
400.527	1	2
400.869	1	5
401.210	1	4
401.552	1	21
401.893	1	2
402.235	1	4
402.576	1	5
402.918	1	-2
403.259	1	-15
403.601	1	-16
403.942	1	5
404.284	1	7
404.625	1	2
404.967	1	3
405.308	1	0
405.649	1	6
405.991	1	11
406.332	1	0
406.674	1	8
407.015	1	-6
407.357	1	4
407.698	1	-8
408.040	1	-13
408.381	1	4
408.722	1	-2
409.064	1	-1
409.405	1	5
409.747	1	0
410.088	1	0
410.430	1	2
410.771	1	9
411.112	1	16
411.454	1	3
411.795	1	1
412.137	1	3
412.478	1	5
412.819	1	3
413.161	1	-3
413.502	1	-3
413.844	1	0
414.185	1	2
414.526	1	4
414.868	1	14
415.209	1	-3
415.550	1	-5
415.892	1	-1
416.233	1	3
416.575	1	-7
416.916	1	-3
417.257	1	5
417.599	1	6
417.940	1	2
418.281	1	-1
418.623	1	5
418.964	1	1
419.305	1	4
419.647	1	9
419.988	1	8
420.329	1	-1
420.671	1	-3
421.012	1	12
421.353	1	13
421.695	1	7
422.036	1	-8
422.377	1	1
422.718	1	2
423.060	1	-4
423.401	1	0
423.742	1	1
424.084	1	6
424.425	1	5
424.766	1	5
425.107	1	6
425.449	1	0
425.790	1	-6
426.131	1	-7
426.472	1	-9
426.814	1	10
427.155	1	1
427.496	1	12
427.837	1	-6
428.179	1	-6
428.520	1	0
428.861	1	-2
429.202	1	8
429.544	1	5
429.885	1	-1
430.226	1	2
430.567	1	4
430.909	1	-4
431.250	1	-7
431.591	1	2
431.932	1	12
432.273	1	-4
432.615	1	-2
432.956	1	-1
433.297	1	8
433.638	1	2
433.979	1	-6
434.320	1	2
434.662	1	-7
435.003	1	9
435.344	1	6
435.685	1	7
436.026	1	10
436.368	1	1
436.709	1	-1
437.050	1	19
437.391	1	9
437.732	1	-10
438.073	1	4
438.414	1	2
438.756	1	9
439.097	1	7
439.438	1	-4
439.779	1	0
440.120	1	1
440.461	1	-1
440.802	1	9
441.143	1	7
441.485	1	-6
441.826	1	-13
442.167	1	-7
442.508	1	2
442.849	1	15
443.190	1	-4
443.531	1	1
443.872	1	-3
444.213	1	1
444.554	1	-3
444.895	1	-1
445.237	1	-2
445.578	1	13
445.919	1	2
446.260	1	-3
446.601	1	-3
446.942	1	3
447.283	1	12
447.624	1	11
447.965	1	-6
448.306	1	5
448.647	1	8
448.988	1	-3
449.329	1	4
449.670	1	9
450.011	1	-4
450.352	1	4
450.693	1	5
451.034	1	2
451.375	1	1
451.716	1	10
452.057	1	6
452.398	1	-5
452.739	1	4
453.080	1	9
453.421	1	13
453.762	1	6
454.103	1	4
454.444	1	10
454.785	1	-5
455.126	1	-2
455.467	1	3
455.808	1	1
456.149	1	-4
456.490	1	3
456.831	1	8
457.172	1	3
457.513	1	13
457.854	1	5
458.195	1	1
458.536	1	1
458.877	1	0
459.218	1	1
459.559	1	-6
459.899	1	8
460.240	1	4
460.581	1	1
460.922	1	-1
461.263	1	3
461.604	1	4
461.945	1	18
462.286	1	9
462.627	1	-6
462.968	1	6
463.309	1	5
463.649	1	6
463.990	1	-4
464.331	1	6
464.672	1	1
465.013	1	-2
465.354	1	3
465.695	1	5
466.036	1	13
466.376	1	-7
466.717	1	3
467.058	1	14
467.399	1	-3
467.740	1	-2
468.081	1	6
468.422	1	7
468.762	1	-12
469.103	1	-4
469.444	1	6
469.785	1	4
470.126	1	5
470.467	1	-9
470.807	1	-3
471.148	1	-4
471.489	1	0
471.830	1	16
472.171	1	-3
472.511	1	11
472.852	1	-7
473.193	1	-2
473.534	1	-2
473.875	1	4
474.215	1	1
474.556	1	-6
474.897	1	6
475.238	1	0
475.578	1	5
475.919	1	10
476.260	1	-1
476.601	1	2
476.942	1	9
477.282	1	-17
477.623	1	10
477.964	1	9
478.305	1	6
478.645	1	-6
478.986	1	9
479.327	1	-9
479.667	1	5
480.008	1	7
480.349	1	6
480.690	1	1
481.030	1	-2
481.371	1	1
481.712	1	10
482.053	1	7
482.393	1	-8
482.734	1	5
483.075	1	4
483.415	1	9
483.756	1	9
484.097	1	-6
484.437	1	-3
484.778	1	6
485.119	1	11
485.459	1	8
485.800	1	-3
486.141	1	-3
486.481	1	6
486.822	1	1
487.163	1	-4
487.503	1	-8
487.844	1	-1
488.185	1	-5
488.525	1	-6
488.866	1	7
489.207	1	9
489.547	1	-4
489.888	1	-4
490.228	1	-6
490.569	1	11
490.910	1	1
491.250	1	4
491.591	1	-9
491.932	1	4
492.272	1	10
492.613	1	8
492.953	1	0
493.294	1	4
493.635	1	0
493.975	1	1
494.316	1	8
494.656	1	4
494.997	1	-8
495.337	1	3
495.678	1	13
496.019	1	0
496.359	1	10
496.700	1	-2
497.040	1	0
497.381	1	-7
497.721	1	-2
498.062	1	4
498.403	1	4
498.743	1	1
499.084	1	-4
499.424	1	7
499.765	1	4
500.105	1	4
500.446	1	9
500.786	1	1
501.127	1	4
501.467	1	4
501.808	1	-13
502.148	1	1
502.489	1	3
502.829	1	-9
503.170	1	2
503.510	1	-2
503.851	1	-9
504.191	1	7
504.532	1	-4
504.872	1	2
505.213	1	9
505.553	1	4
505.894	1	0
506.234	1	16
506.575	1	-10
506.915	1	6
507.256	1	-4
507.596	1	2
507.936	1	7
508.277	1	-4
508.617	1	11
508.958	1	8
509.298	1	13
509.639	1	4
509.979	1	-5
510.319	1	2
510.660	1	-8
511.000	1	3
511.341	1	-2
511.681	1	10
512.022	1	-3
512.362	1	-6
512.702	1	-9
513.043	1	10
513.383	1	-8
513.724	1	3
514.064	1	0
514.404	1	-4
514.745	1	0
515.085	1	3
515.425	1	6
515.766	1	0
516.106	1	-2
516.447	1	9
516.787	1	-8
517.127	1	2
517.468	1	-1
517.808	1	-2
518.148	1	-2
518.489	1	4
518.829	1	-4
519.169	1	-1
519.510	1	1
519.850	1	-2
520.190	1	1
520.531	1	1
520.871	1	-10
521.211	1	5
521.552	1	3
521.892	1	-13
522.232	1	-7
522.573	1	2
522.913	1	3
523.253	1	3
523.593	1	-8
523.934	1	1
524.274	1	-11
524.614	1	-8
524.955	1	-1
525.295	1	-9
525.635	1	1
525.975	1	-3
526.316	1	-1
526.656	1	12
526.996	1	7
527.337	1	-6
527.677	1	11
528.017	1	-4
528.357	1	7
528.698	1	-5
529.038	1	-1
529.378	1	10
529.718	1	8
530.058	1	-8
530.399	1	5
530.739	1	-6
531.079	1	3
531.419	1	7
531.760	1	1
532.100	1	6
532.440	1	2
532.780	1	0
533.120	1	-10
533.461	1	7
533.801	1	-5
534.141	1	4
534.481	1	3
534.821	1	-3
535.162	1	6
535.502	1	7
535.842	1	1
536.182	1	-5
536.522	1	5
536.862	1	8
537.203	1	2
537.543	1	2
537.883	1	14
538.223	1	0
538.563	1	-5
538.903	1	1
539.243	1	1
539.584	1	3
539.924	1	-5
540.264	1	12
540.604	1	7
540.944	1	4
541.284	1	2
541.624	1	4
541.964	1	5
542.305	1	-11
542.645	1	-5
542.985	1	-3
543.325	1	3
543.665	1	9
544.005	1	-4
544.345	1	-7
544.685	1	11
545.025	1	-6
545.365	1	3
545.705	1	0
546.045	1	6
546.386	1	-3
546.726	1	-6
547.066	1	-4
547.406	1	7
547.746	1	5
548.086	1	3
548.426	1	-6
548.766	1	4
549.106	1	5
549.446	1	1
549.786	1	-1
550.126	1	0
550.466	1	-4
550.806	1	13
551.146	1	-4
551.486	1	-1
551.826	1	8
552.166	1	4
552.506	1	-3
552.846	1	-6
553.186	1	-1
553.526	1	0
553.866	1	2
554.206	1	2
554.546	1	-4
554.886	1	-1
555.226	1	-15
555.566	1	11
555.906	1	8
556.246	1	-6
556.586	1	-4
556.926	1	10
557.266	1	7
557.606	1	-7
557.946	1	7
558.286	1	7
558.626	1	5
558.966	1	2
559.306	1	-3
559.646	1	0
559.986	1	-2
560.325	1	-4
560.665	1	4
561.005	1	11
561.345	1	4
561.685	1	1
562.025	1	1
562.365	1	0
562.705	1	8
563.045	1	5
563.385	1	-4
563.725	1	-5
564.064	1	9
564.404	1	4
564.744	1	6
565.084	1	-4
565.424	1	1
565.764	1	4
566.104	1	-3
566.444	1	3
566.783	1	3
567.123	1	15
567.463	1	2
567.803	1	-10
568.143	1	-9
568.483	1	-4
568.823	1	20
569.162	1	7
569.502	1	8
569.842	1	6
570.182	1	-3
570.522	1	4
570.862	1	11
571.201	1	-1
571.541	1	-1
571.881	1	5
572.221	1	5
572.561	1	-4
572.900	1	8
573.240	1	1
573.580	1	7
573.920	1	-2
574.260	1	-2
574.599	1	0
574.939	1	4
575.279	1	-1
575.619	1	8
575.959	1	-5
576.298	1	-8
576.638	1	1
576.978	1	2
577.318	1	4
577.657	1	-11
577.997	1	-3
578.337	1	-6
578.677	1	-3
579.016	1	5
579.356	1	-7
579.696	1	11
580.036	1	-5
580.375	1	-1
580.715	1	8
581.055	1	-2
581.394	1	-5
581.734	1	2
582.074	1	1
582.414	1	4
582.753	1	9
583.093	1	-1
583.433	1	-2
583.772	1	1
584.112	1	5
584.452	1	8
584.791	1	8
585.131	1	-2
585.471	1	-6
585.811	1	-5
586.150	1	0
586.490	1	-1
586.830	1	-1
587.169	1	4
587.509	1	4
587.849	1	4
588.188	1	-6
588.528	1	3
588.867	1	13
589.207	1	-12
589.547	1	-6
589.886	1	-8
590.226	1	6
590.566	1	-6
590.905	1	7
591.245	1	5
591.585	1	-7
591.924	1	1
592.264	1	1
592.603	1	-2
592.943	1	1
593.283	1	-5
593.622	1	5
593.962	1	12
594.301	1	1
594.641	1	-2
594.981	1	5
595.320	1	5
595.660	1	-7
595.999	1	2
596.339	1	3
596.678	1	10
597.018	1	8
597.358	1	4
597.697	1	-11
598.037	1	-2
598.376	1	8
598.716	1	-1
599.055	1	9
599.395	1	4
599.734	1	4
600.074	1	-3
600.413	1	0
600.753	1	3
601.092	1	-8
601.432	1	-7
601.771	1	8
602.111	1	-3
602.451	1	1
602.790	1	3
603.130	1	8
603.469	1	-1
603.809	1	9
604.148	1	1
604.487	1	8
604.827	1	-12
605.166	1	-2
605.506	1	-2
605.845	1	1
606.185	1	-3
606.524	1	-1
606.864	1	-5
607.203	1	4
607.543	1	-10
607.882	1	-7
608.222	1	4
608.561	1	6
608.901	1	4
609.240	1	0
609.579	1	8
609.919	1	-10
610.258	1	10
610.598	1	-4
610.937	1	1
611.277	1	0
611.616	1	-10
611.955	1	12
612.295	1	-3
612.634	1	3
612.974	1	6
613.313	1	7
613.652	1	-6
613.992	1	3
614.331	1	8
614.671	1	0
615.010	1	-5
615.349	1	-1
615.689	1	-3
616.028	1	2
616.368	1	4
616.707	1	1
617.046	1	7
617.386	1	5
617.725	1	13
618.064	1	3
618.404	1	8
618.743	1	1
619.082	1	4
619.422	1	5
619.761	1	-2
620.100	1	-3
620.440	1	3
620.779	1	0
621.118	1	2
621.458	1	3
621.797	1	6
622.136	1	0
622.476	1	4
622.815	1	6
623.154	1	-3
623.494	1	8
623.833	1	3
624.172	1	11
624.511	1	-6
624.851	1	-5
625.190	1	6
625.529	1	14
625.869	1	2
626.208	1	-5
626.547	1	2
626.886	1	-1
627.226	1	3
627.565	1	13
627.904	1	16
628.243	1	-9
628.583	1	3
628.922	1	0
629.261	1	0
629.600	1	5
629.940	1	1
630.279	1	-1
630.618	1	3
630.957	1	-4
631.297	1	-4
631.636	1	7
631.975	1	1
632.314	1	15
632.653	1	-12
632.993	1	13
633.332	1	6
633.671	1	9
634.010	1	-3
634.349	1	6
634.689	1	2
635.028	1	7
635.367	1	-6
635.706	1	-5
636.045	1	5
636.384	1	4
636.724	1	8
637.063	1	-2
637.402	1	-1
637.741	1	9
638.080	1	-2
638.419	1	2
638.759	1	7
639.098	1	1
639.437	1	-4
639.776	1	-4
640.115	1	-1
640.454	1	7
640.793	1	6
641.132	1	7
641.472	1	-4
641.811	1	5
642.150	1	3
642.489	1	0
642.828	1	0
643.167	1	11
643.506	1	-1
643.845	1	-1
644.184	1	0
644.524	1	-8
644.863	1	-5
645.202	1	4
645.541	1	-10
645.880	1	2
646.219	1	4
646.558	1	-2
646.897	1	-6
647.236	1	5
647.575	1	-2
647.914	1	-4
648.253	1	11
648.592	1	0
648.931	1	9
649.270	1	3
649.610	1	12
649.949	1	-1
650.288	1	-4
650.627	1	-9
650.966	1	-6
651.305	1	-4
651.644	1	-9
651.983	1	6
652.322	1	3
652.661	1	7
653.000	1	0
653.339	1	0
653.678	1	7
654.017	1	-6
654.356	1	5
654.695	1	-2
655.034	1	6
655.373	1	4
655.712	1	-1
656.051	1	11
656.390	1	-2
656.729	1	-7
657.068	1	1
657.406	1	0
657.745	1	-8
658.084	1	7
658.423	1	-4
658.762	1	-7
659.101	1	8
659.440	1	3
659.779	1	0
660.118	1	5
660.457	1	-1
660.796	1	-1
661.135	1	-6
661.474	1	2
661.813	1	-5
662.152	1	-1
662.491	1	2
662.829	1	2
663.168	1	-5
663.507	1	-5
663.846	1	4
664.185	1	3
664.524	1	-11
664.863	1	-4
665.202	1	-5
665.541	1	4
665.879	1	4
666.218	1	-10
666.557	1	0
666.896	1	-1
667.235	1	-1
667.574	1	5
667.913	1	1
668.251	1	-1
668.590	1	-7
668.929	1	-9
669.268	1	0
669.607	1	-13
669.946	1	14
670.285	1	1
670.623	1	7
670.962	1	-15
671.301	1	5
671.640	1	-16
671.979	1	10
672.317	1	-9
672.656	1	10
672.995	1	1
673.334	1	9
673.673	1	14
674.011	1	6
674.350	1	-8
674.689	1	2
675.028	1	14
675.367	1	3
675.705	1	-3
676.044	1	-4
676.383	1	1
676.722	1	-8
677.060	1	2
677.399	1	5
677.738	1	-6
678.077	1	7
678.416	1	3
678.754	1	-7
679.093	1	5
679.432	1	-4
679.771	1	-2
680.109	1	10
680.448	1	8
680.787	1	1
681.125	1	6
681.464	1	-3
681.803	1	-6
682.142	1	20
682.480	1	0
682.819	1	2
683.158	1	-1
683.496	1	3
683.835	1	8
684.174	1	-2
684.512	1	-6
684.851	1	-2
685.190	1	13
685.529	1	-1
685.867	1	0
686.206	1	3
686.545	1	12
686.883	1	2
687.222	1	-2
687.561	1	-3
687.899	1	-11
688.238	1	4
688.577	1	-7
688.746	1	14