File: Analysis/GaN_68K_200ms/GaN_sample E_spot4_UVVIS_68 K_200um_200 ms 2x2mm1_530.txt
340.368	1	8
340.710	1	-7
341.052	1	2
341.394	1	-2
341.737	1	11
342.079	1	0
342.421	1	-2
342.763	1	3
343.105	1	12
343.447	1	1
343.789	1	-2
344.131	1	-3
344.473	1	1
344.815	1	2
345.157	1	10
345.499	1	12
345.841	1	2
346.183	1	1
346.526	1	12
346.868	1	-5
347.210	1	-8
347.552	1	1
347.894	1	5
348.236	1	0
348.578	1	4
348.920	1	3
349.262	1	1
349.604	1	11
349.946	1	10
350.288	1	1
350.630	1	-4
350.972	1	-2
351.314	1	-2
351.656	1	-5
351.998	1	1
352.340	1	-7
352.682	1	-5
353.024	1	-8
353.366	1	-2
353.708	1	12
354.050	1	1
354.392	1	-1
354.734	1	-12
355.076	1	0
355.418	1	-10
355.760	1	-2
356.102	1	-6
356.444	1	-1
356.785	1	12
357.127	1	-2
357.469	1	5
357.811	1	14
358.153	1	-2
358.495	1	8
358.837	1	4
359.179	1	2
359.521	1	-1
359.863	1	-11
360.205	1	-1
360.547	1	2
360.889	1	1
361.231	1	2
361.572	1	-4
361.914	1	2
362.256	1	10
362.598	1	-3
362.940	1	5
363.282	1	0
363.624	1	0
363.966	1	7
364.308	1	0
364.649	1	-3
364.991	1	-1
365.333	1	-1
365.675	1	-1
366.017	1	9
366.359	1	3
366.701	1	-8
367.042	1	7
367.384	1	8
367.726	1	3
368.068	1	-8
368.410	1	5
368.752	1	-6
369.093	1	0
369.435	1	1
369.777	1	-5
370.119	1	-7
370.461	1	-3
370.803	1	-5
371.144	1	7
371.486	1	8
371.828	1	2
372.170	1	8
372.512	1	-5
372.853	1	7
373.195	1	-8
373.537	1	4
373.879	1	13
374.220	1	-5
374.562	1	-1
374.904	1	2
375.246	1	4
375.588	1	-7
375.929	1	-4
376.271	1	-5
376.613	1	2
376.955	1	-3
377.296	1	6
377.638	1	-3
377.980	1	5
378.321	1	1
378.663	1	-3
379.005	1	14
379.347	1	11
379.688	1	-3
380.030	1	-2
380.372	1	7
380.714	1	4
381.055	1	3
381.397	1	0
381.739	1	7
382.080	1	-4
382.422	1	7
382.764	1	-9
383.105	1	-6
383.447	1	11
383.789	1	2
384.130	1	-2
384.472	1	-2
384.814	1	5
385.156	1	11
385.497	1	17
385.839	1	2
386.180	1	0
386.522	1	0
386.864	1	4
387.205	1	2
387.547	1	1
387.889	1	17
388.230	1	-5
388.572	1	3
388.914	1	14
389.255	1	4
389.597	1	-3
389.939	1	8
390.280	1	11
390.622	1	-4
390.963	1	7
391.305	1	12
391.647	1	5
391.988	1	-3
392.330	1	-2
392.671	1	-1
393.013	1	8
393.355	1	15
393.696	1	2
394.038	1	1
394.379	1	2
394.721	1	5
395.062	1	-2
395.404	1	4
395.746	1	-7
396.087	1	4
396.429	1	8
396.770	1	3
397.112	1	-6
397.453	1	7
397.795	1	0
398.136	1	10
398.478	1	2
398.819	1	9
399.161	1	-2
399.503	1	-2
399.844	1	-6
400.186	1	9
400.527	1	3
400.869	1	13
401.210	1	-4
401.552	1	13
401.893	1	4
402.235	1	8
402.576	1	6
402.918	1	-3
403.259	1	-6
403.601	1	-6
403.942	1	7
404.284	1	1
404.625	1	4
404.967	1	5
405.308	1	-3
405.649	1	0
405.991	1	6
406.332	1	-2
406.674	1	2
407.015	1	-12
407.357	1	5
407.698	1	-1
408.040	1	-6
408.381	1	0
408.722	1	5
409.064	1	-5
409.405	1	7
409.747	1	-7
410.088	1	5
410.430	1	6
410.771	1	7
411.112	1	-5
411.454	1	3
411.795	1	5
412.137	1	18
412.478	1	-3
412.819	1	-2
413.161	1	-8
413.502	1	-1
413.844	1	-1
414.185	1	2
414.526	1	-4
414.868	1	14
415.209	1	2
415.550	1	2
415.892	1	-1
416.233	1	0
416.575	1	-5
416.916	1	-2
417.257	1	3
417.599	1	7
417.940	1	2
418.281	1	-1
418.623	1	0
418.964	1	3
419.305	1	-3
419.647	1	7
419.988	1	0
420.329	1	3
420.671	1	1
421.012	1	12
421.353	1	8
421.695	1	0
422.036	1	6
422.377	1	3
422.718	1	-5
423.060	1	7
423.401	1	-4
423.742	1	-3
424.084	1	9
424.425	1	-3
424.766	1	10
425.107	1	0
425.449	1	3
425.790	1	-6
426.131	1	2
426.472	1	-5
426.814	1	8
427.155	1	-3
427.496	1	8
427.837	1	-2
428.179	1	-2
428.520	1	-11
428.861	1	-8
429.202	1	9
429.544	1	6
429.885	1	-7
430.226	1	2
430.567	1	13
430.909	1	-14
431.250	1	-4
431.591	1	7
431.932	1	6
432.273	1	-9
432.615	1	6
432.956	1	2
433.297	1	11
433.638	1	-1
433.979	1	1
434.320	1	-4
434.662	1	6
435.003	1	11
435.344	1	4
435.685	1	5
436.026	1	1
436.368	1	6
436.709	1	-2
437.050	1	1
437.391	1	-4
437.732	1	-1
438.073	1	3
438.414	1	-5
438.756	1	6
439.097	1	16
439.438	1	9
439.779	1	-6
440.120	1	-4
440.461	1	-5
440.802	1	13
441.143	1	20
441.485	1	-4
441.826	1	-11
442.167	1	-4
442.508	1	0
442.849	1	8
443.190	1	-8
443.531	1	-5
443.872	1	0
444.213	1	-8
444.554	1	-2
444.895	1	4
445.237	1	-3
445.578	1	6
445.919	1	-2
446.260	1	6
446.601	1	-14
446.942	1	7
447.283	1	-5
447.624	1	2
447.965	1	-3
448.306	1	3
448.647	1	19
448.988	1	-15
449.329	1	8
449.670	1	8
450.011	1	6
450.352	1	5
450.693	1	3
451.034	1	7
451.375	1	3
451.716	1	2
452.057	1	-1
452.398	1	4
452.739	1	-2
453.080	1	14
453.421	1	7
453.762	1	11
454.103	1	6
454.444	1	9
454.785	1	2
455.126	1	6
455.467	1	-2
455.808	1	3
456.149	1	-2
456.490	1	9
456.831	1	17
457.172	1	-1
457.513	1	3
457.854	1	5
458.195	1	-2
458.536	1	-1
458.877	1	-3
459.218	1	2
459.559	1	-6
459.899	1	13
460.240	1	1
460.581	1	6
460.922	1	0
461.263	1	8
461.604	1	2
461.945	1	2
462.286	1	7
462.627	1	-7
462.968	1	0
463.309	1	5
463.649	1	2
463.990	1	-3
464.331	1	5
464.672	1	1
465.013	1	-5
465.354	1	9
465.695	1	5
466.036	1	1
466.376	1	-11
466.717	1	-6
467.058	1	5
467.399	1	1
467.740	1	-3
468.081	1	1
468.422	1	5
468.762	1	-5
469.103	1	-12
469.444	1	-4
469.785	1	5
470.126	1	9
470.467	1	-8
470.807	1	0
471.148	1	0
471.489	1	-2
471.830	1	6
472.171	1	3
472.511	1	10
472.852	1	-7
473.193	1	-3
473.534	1	1
473.875	1	4
474.215	1	1
474.556	1	-6
474.897	1	4
475.238	1	-1
475.578	1	-3
475.919	1	0
476.260	1	-2
476.601	1	-6
476.942	1	7
477.282	1	-11
477.623	1	3
477.964	1	9
478.305	1	-4
478.645	1	-6
478.986	1	-5
479.327	1	4
479.667	1	2
480.008	1	7
480.349	1	-6
480.690	1	-4
481.030	1	-3
481.371	1	-1
481.712	1	9
482.053	1	9
482.393	1	-12
482.734	1	6
483.075	1	9
483.415	1	7
483.756	1	-2
484.097	1	-8
484.437	1	-8
484.778	1	1
485.119	1	5
485.459	1	6
485.800	1	-7
486.141	1	-1
486.481	1	7
486.822	1	0
487.163	1	-11
487.503	1	-12
487.844	1	2
488.185	1	-5
488.525	1	2
488.866	1	21
489.207	1	12
489.547	1	-1
489.888	1	0
490.228	1	-7
490.569	1	9
490.910	1	-4
491.250	1	0
491.591	1	2
491.932	1	15
492.272	1	5
492.613	1	2
492.953	1	1
493.294	1	6
493.635	1	0
493.975	1	-4
494.316	1	3
494.656	1	0
494.997	1	3
495.337	1	7
495.678	1	6
496.019	1	-4
496.359	1	6
496.700	1	-6
497.040	1	-3
497.381	1	-21
497.721	1	-5
498.062	1	-10
498.403	1	7
498.743	1	3
499.084	1	-13
499.424	1	18
499.765	1	2
500.105	1	2
500.446	1	9
500.786	1	0
501.127	1	7
501.467	1	-1
501.808	1	-5
502.148	1	5
502.489	1	-1
502.829	1	4
503.170	1	-3
503.510	1	6
503.851	1	-7
504.191	1	-6
504.532	1	-16
504.872	1	-9
505.213	1	1
505.553	1	7
505.894	1	-3
506.234	1	9
506.575	1	-4
506.915	1	7
507.256	1	-2
507.596	1	2
507.936	1	1
508.277	1	-5
508.617	1	9
508.958	1	9
509.298	1	4
509.639	1	8
509.979	1	1
510.319	1	-6
510.660	1	14
511.000	1	-1
511.341	1	-7
511.681	1	6
512.022	1	-7
512.362	1	2
512.702	1	3
513.043	1	-4
513.383	1	-4
513.724	1	9
514.064	1	0
514.404	1	8
514.745	1	7
515.085	1	-6
515.425	1	1
515.766	1	-1
516.106	1	-7
516.447	1	4
516.787	1	2
517.127	1	1
517.468	1	-2
517.808	1	0
518.148	1	-13
518.489	1	17
518.829	1	1
519.169	1	16
519.510	1	-2
519.850	1	-6
520.190	1	0
520.531	1	1
520.871	1	-7
521.211	1	2
521.552	1	-6
521.892	1	-8
522.232	1	-3
522.573	1	5
522.913	1	-2
523.253	1	6
523.593	1	-19
523.934	1	11
524.274	1	-5
524.614	1	4
524.955	1	0
525.295	1	-7
525.635	1	3
525.975	1	-13
526.316	1	0
526.656	1	17
526.996	1	9
527.337	1	0
527.677	1	12
528.017	1	-11
528.357	1	12
528.698	1	6
529.038	1	3
529.378	1	-1
529.718	1	4
530.058	1	5
530.399	1	9
530.739	1	-5
531.079	1	-2
531.419	1	10
531.760	1	5
532.100	1	13
532.440	1	3
532.780	1	2
533.120	1	1
533.461	1	18
533.801	1	2
534.141	1	5
534.481	1	4
534.821	1	14
535.162	1	9
535.502	1	4
535.842	1	3
536.182	1	-6
536.522	1	11
536.862	1	-4
537.203	1	9
537.543	1	12
537.883	1	8
538.223	1	8
538.563	1	6
538.903	1	-4
539.243	1	-7
539.584	1	6
539.924	1	-1
540.264	1	6
540.604	1	0
540.944	1	-5
541.284	1	-5
541.624	1	4
541.964	1	5
542.305	1	-14
542.645	1	-4
542.985	1	-4
543.325	1	4
543.665	1	7
544.005	1	4
544.345	1	-7
544.685	1	3
545.025	1	1
545.365	1	0
545.705	1	10
546.045	1	2
546.386	1	-6
546.726	1	0
547.066	1	-4
547.406	1	15
547.746	1	0
548.086	1	-3
548.426	1	1
548.766	1	-3
549.106	1	10
549.446	1	-2
549.786	1	12
550.126	1	1
550.466	1	-2
550.806	1	9
551.146	1	-4
551.486	1	11
551.826	1	11
552.166	1	4
552.506	1	2
552.846	1	2
553.186	1	-3
553.526	1	-1
553.866	1	3
554.206	1	5
554.546	1	3
554.886	1	9
555.226	1	-9
555.566	1	3
555.906	1	3
556.246	1	2
556.586	1	7
556.926	1	2
557.266	1	11
557.606	1	-3
557.946	1	0
558.286	1	2
558.626	1	11
558.966	1	7
559.306	1	-4
559.646	1	-8
559.986	1	-1
560.325	1	-14
560.665	1	3
561.005	1	5
561.345	1	-5
561.685	1	-11
562.025	1	-2
562.365	1	0
562.705	1	7
563.045	1	0
563.385	1	-5
563.725	1	-2
564.064	1	13
564.404	1	-5
564.744	1	-2
565.084	1	-2
565.424	1	-7
565.764	1	11
566.104	1	3
566.444	1	3
566.783	1	-2
567.123	1	17
567.463	1	-3
567.803	1	-1
568.143	1	-2
568.483	1	-11
568.823	1	5
569.162	1	-3
569.502	1	6
569.842	1	-5
570.182	1	6
570.522	1	-3
570.862	1	4
571.201	1	2
571.541	1	3
571.881	1	3
572.221	1	5
572.561	1	-10
572.900	1	5
573.240	1	1
573.580	1	4
573.920	1	7
574.260	1	2
574.599	1	-2
574.939	1	2
575.279	1	2
575.619	1	-4
575.959	1	-5
576.298	1	-2
576.638	1	-4
576.978	1	-5
577.318	1	7
577.657	1	-13
577.997	1	1
578.337	1	-8
578.677	1	-1
579.016	1	14
579.356	1	3
579.696	1	5
580.036	1	0
580.375	1	-6
580.715	1	8
581.055	1	4
581.394	1	1
581.734	1	0
582.074	1	-2
582.414	1	9
582.753	1	4
583.093	1	1
583.433	1	-10
583.772	1	-7
584.112	1	-1
584.452	1	5
584.791	1	3
585.131	1	-2
585.471	1	-14
585.811	1	-7
586.150	1	1
586.490	1	-14
586.830	1	-7
587.169	1	-5
587.509	1	5
587.849	1	2
588.188	1	4
588.528	1	3
588.867	1	2
589.207	1	-6
589.547	1	-3
589.886	1	-2
590.226	1	7
590.566	1	-4
590.905	1	1
591.245	1	-4
591.585	1	-2
591.924	1	-3
592.264	1	10
592.603	1	3
592.943	1	-12
593.283	1	2
593.622	1	-5
593.962	1	10
594.301	1	9
594.641	1	-6
594.981	1	3
595.320	1	13
595.660	1	-1
595.999	1	3
596.339	1	-1
596.678	1	-7
597.018	1	3
597.358	1	6
597.697	1	-1
598.037	1	-3
598.376	1	0
598.716	1	-4
599.055	1	1
599.395	1	1
599.734	1	-8
600.074	1	-1
600.413	1	2
600.753	1	3
601.092	1	-3
601.432	1	-1
601.771	1	12
602.111	1	-12
602.451	1	0
602.790	1	2
603.130	1	8
603.469	1	-7
603.809	1	2
604.148	1	5
604.487	1	0
604.827	1	-7
605.166	1	-6
605.506	1	1
605.845	1	2
606.185	1	-10
606.524	1	-14
606.864	1	1
607.203	1	4
607.543	1	-5
607.882	1	-2
608.222	1	-3
608.561	1	0
608.901	1	7
609.240	1	1
609.579	1	0
609.919	1	-5
610.258	1	11
610.598	1	-1
610.937	1	-2
611.277	1	4
611.616	1	-12
611.955	1	5
612.295	1	4
612.634	1	-5
612.974	1	1
613.313	1	5
613.652	1	-6
613.992	1	8
614.331	1	0
614.671	1	6
615.010	1	2
615.349	1	-3
615.689	1	1
616.028	1	-7
616.368	1	-5
616.707	1	-3
617.046	1	4
617.386	1	-4
617.725	1	0
618.064	1	-1
618.404	1	8
618.743	1	0
619.082	1	2
619.422	1	-6
619.761	1	3
620.100	1	3
620.440	1	-3
620.779	1	-3
621.118	1	-2
621.458	1	9
621.797	1	-1
622.136	1	1
622.476	1	12
622.815	1	-3
623.154	1	8
623.494	1	4
623.833	1	4
624.172	1	10
624.511	1	-1
624.851	1	-3
625.190	1	0
625.529	1	5
625.869	1	4
626.208	1	-1
626.547	1	3
626.886	1	0
627.226	1	5
627.565	1	9
627.904	1	-2
628.243	1	-3
628.583	1	1
628.922	1	-3
629.261	1	13
629.600	1	2
629.940	1	0
630.279	1	0
630.618	1	9
630.957	1	-2
631.297	1	-5
631.636	1	1
631.975	1	9
632.314	1	11
632.653	1	-8
632.993	1	5
633.332	1	3
633.671	1	-5
634.010	1	-3
634.349	1	9
634.689	1	14
635.028	1	-2
635.367	1	1
635.706	1	-9
636.045	1	7
636.384	1	4
636.724	1	2
637.063	1	7
637.402	1	13
637.741	1	7
638.080	1	2
638.419	1	-1
638.759	1	-3
639.098	1	3
639.437	1	-8
639.776	1	6
640.115	1	-8
640.454	1	16
640.793	1	1
641.132	1	3
641.472	1	-3
641.811	1	-4
642.150	1	5
642.489	1	0
642.828	1	1
643.167	1	7
643.506	1	2
643.845	1	-3
644.184	1	4
644.524	1	1
644.863	1	-8
645.202	1	0
645.541	1	-8
645.880	1	-2
646.219	1	-2
646.558	1	-2
646.897	1	-3
647.236	1	2
647.575	1	-5
647.914	1	1
648.253	1	8
648.592	1	6
648.931	1	1
649.270	1	13
649.610	1	8
649.949	1	-3
650.288	1	3
650.627	1	-4
650.966	1	-12
651.305	1	-9
651.644	1	1
651.983	1	6
652.322	1	2
652.661	1	-3
653.000	1	-1
653.339	1	-2
653.678	1	3
654.017	1	-2
654.356	1	18
654.695	1	3
655.034	1	7
655.373	1	-3
655.712	1	0
656.051	1	5
656.390	1	-1
656.729	1	9
657.068	1	-12
657.406	1	0
657.745	1	-6
658.084	1	7
658.423	1	3
658.762	1	-9
659.101	1	1
659.440	1	9
659.779	1	-6
660.118	1	8
660.457	1	-10
660.796	1	-7
661.135	1	4
661.474	1	-6
661.813	1	8
662.152	1	5
662.491	1	-1
662.829	1	-2
663.168	1	-7
663.507	1	-1
663.846	1	4
664.185	1	-5
664.524	1	-5
664.863	1	8
665.202	1	-8
665.541	1	1
665.879	1	-2
666.218	1	-2
666.557	1	8
666.896	1	2
667.235	1	-3
667.574	1	1
667.913	1	4
668.251	1	6
668.590	1	-7
668.929	1	5
669.268	1	4
669.607	1	-6
669.946	1	2
670.285	1	5
670.623	1	9
670.962	1	-1
671.301	1	-13
671.640	1	-22
671.979	1	6
672.317	1	5
672.656	1	-1
672.995	1	4
673.334	1	2
673.673	1	15
674.011	1	12
674.350	1	-6
674.689	1	-7
675.028	1	11
675.367	1	7
675.705	1	-13
676.044	1	-2
676.383	1	-6
676.722	1	-6
677.060	1	7
677.399	1	-3
677.738	1	-3
678.077	1	3
678.416	1	0
678.754	1	7
679.093	1	1
679.432	1	-13
679.771	1	-7
680.109	1	4
680.448	1	-1
680.787	1	3
681.125	1	4
681.464	1	-3
681.803	1	-8
682.142	1	5
682.480	1	0
682.819	1	-4
683.158	1	-3
683.496	1	-6
683.835	1	2
684.174	1	-1
684.512	1	-3
684.851	1	-5
685.190	1	-1
685.529	1	6
685.867	1	-4
686.206	1	-1
686.545	1	9
686.883	1	-2
687.222	1	0
687.561	1	5
687.899	1	0
688.238	1	6
688.577	1	-5
688.746	1	7