File: Analysis/GaN_68K_200ms/GaN_sample E_spot4_UVVIS_68 K_200um_200 ms 2x2mm1_828.txt
340.368	1	6
340.710	1	-1
341.052	1	0
341.394	1	4
341.737	1	10
342.079	1	-3
342.421	1	-5
342.763	1	-6
343.105	1	8
343.447	1	4
343.789	1	-8
344.131	1	4
344.473	1	-8
344.815	1	-1
345.157	1	3
345.499	1	0
345.841	1	3
346.183	1	2
346.526	1	0
346.868	1	1
347.210	1	-3
347.552	1	0
347.894	1	-11
348.236	1	6
348.578	1	0
348.920	1	4
349.262	1	-11
349.604	1	-3
349.946	1	3
350.288	1	9
350.630	1	-6
350.972	1	-2
351.314	1	-4
351.656	1	0
351.998	1	-9
352.340	1	6
352.682	1	-5
353.024	1	-2
353.366	1	1
353.708	1	6
354.050	1	5
354.392	1	-8
354.734	1	-5
355.076	1	7
355.418	1	-3
355.760	1	11
356.102	1	-7
356.444	1	3
356.785	1	6
357.127	1	-3
357.469	1	0
357.811	1	13
358.153	1	0
358.495	1	6
358.837	1	4
359.179	1	-4
359.521	1	-4
359.863	1	-2
360.205	1	-2
360.547	1	-5
360.889	1	7
361.231	1	2
361.572	1	1
361.914	1	-7
362.256	1	2
362.598	1	-4
362.940	1	4
363.282	1	2
363.624	1	-1
363.966	1	-8
364.308	1	-4
364.649	1	-1
364.991	1	8
365.333	1	1
365.675	1	-9
366.017	1	-5
366.359	1	-3
366.701	1	-6
367.042	1	17
367.384	1	5
367.726	1	11
368.068	1	-2
368.410	1	-8
368.752	1	-14
369.093	1	-4
369.435	1	0
369.777	1	-7
370.119	1	1
370.461	1	-4
370.803	1	-3
371.144	1	4
371.486	1	12
371.828	1	-1
372.170	1	5
372.512	1	-11
372.853	1	3
373.195	1	-13
373.537	1	0
373.879	1	13
374.220	1	1
374.562	1	3
374.904	1	6
375.246	1	-6
375.588	1	-1
375.929	1	2
376.271	1	-4
376.613	1	0
376.955	1	-3
377.296	1	-3
377.638	1	-4
377.980	1	3
378.321	1	6
378.663	1	-11
379.005	1	3
379.347	1	2
379.688	1	0
380.030	1	2
380.372	1	-7
380.714	1	2
381.055	1	-2
381.397	1	-10
381.739	1	0
382.080	1	-14
382.422	1	10
382.764	1	-7
383.105	1	-1
383.447	1	5
383.789	1	4
384.130	1	-3
384.472	1	-15
384.814	1	6
385.156	1	9
385.497	1	7
385.839	1	10
386.180	1	-1
386.522	1	7
386.864	1	-7
387.205	1	-5
387.547	1	2
387.889	1	7
388.230	1	-3
388.572	1	2
388.914	1	6
389.255	1	-1
389.597	1	3
389.939	1	6
390.280	1	2
390.622	1	0
390.963	1	10
391.305	1	12
391.647	1	2
391.988	1	-6
392.330	1	12
392.671	1	3
393.013	1	16
393.355	1	3
393.696	1	-3
394.038	1	-4
394.379	1	-6
394.721	1	0
395.062	1	-4
395.404	1	2
395.746	1	-6
396.087	1	-1
396.429	1	7
396.770	1	4
397.112	1	-5
397.453	1	-6
397.795	1	1
398.136	1	2
398.478	1	-4
398.819	1	12
399.161	1	0
399.503	1	-5
399.844	1	-9
400.186	1	8
400.527	1	3
400.869	1	6
401.210	1	0
401.552	1	8
401.893	1	-3
402.235	1	6
402.576	1	8
402.918	1	-7
403.259	1	-15
403.601	1	-6
403.942	1	8
404.284	1	-3
404.625	1	-1
404.967	1	-2
405.308	1	3
405.649	1	1
405.991	1	10
406.332	1	0
406.674	1	0
407.015	1	-5
407.357	1	-2
407.698	1	-7
408.040	1	1
408.381	1	-5
408.722	1	0
409.064	1	-2
409.405	1	-2
409.747	1	-1
410.088	1	4
410.430	1	8
410.771	1	-3
411.112	1	0
411.454	1	3
411.795	1	7
412.137	1	2
412.478	1	0
412.819	1	-8
413.161	1	-3
413.502	1	-10
413.844	1	-5
414.185	1	6
414.526	1	-6
414.868	1	7
415.209	1	-10
415.550	1	-9
415.892	1	-5
416.233	1	-4
416.575	1	-3
416.916	1	-5
417.257	1	-1
417.599	1	2
417.940	1	4
418.281	1	2
418.623	1	-5
418.964	1	4
419.305	1	-4
419.647	1	2
419.988	1	-2
420.329	1	1
420.671	1	0
421.012	1	14
421.353	1	14
421.695	1	3
422.036	1	-7
422.377	1	5
422.718	1	-2
423.060	1	-11
423.401	1	3
423.742	1	-8
424.084	1	8
424.425	1	0
424.766	1	4
425.107	1	-1
425.449	1	6
425.790	1	-1
426.131	1	-1
426.472	1	1
426.814	1	5
427.155	1	-10
427.496	1	1
427.837	1	0
428.179	1	1
428.520	1	-6
428.861	1	2
429.202	1	7
429.544	1	-3
429.885	1	-2
430.226	1	-1
430.567	1	13
430.909	1	-15
431.250	1	-8
431.591	1	1
431.932	1	-2
432.273	1	-2
432.615	1	2
432.956	1	-2
433.297	1	10
433.638	1	0
433.979	1	0
434.320	1	-8
434.662	1	-8
435.003	1	1
435.344	1	6
435.685	1	-4
436.026	1	0
436.368	1	-10
436.709	1	-13
437.050	1	8
437.391	1	2
437.732	1	-2
438.073	1	3
438.414	1	-1
438.756	1	0
439.097	1	10
439.438	1	-2
439.779	1	-7
440.120	1	3
440.461	1	-8
440.802	1	17
441.143	1	10
441.485	1	-6
441.826	1	-17
442.167	1	-5
442.508	1	-3
442.849	1	7
443.190	1	-9
443.531	1	2
443.872	1	2
444.213	1	-8
444.554	1	3
444.895	1	-10
445.237	1	-8
445.578	1	10
445.919	1	1
446.260	1	-2
446.601	1	-5
446.942	1	-2
447.283	1	-3
447.624	1	5
447.965	1	-9
448.306	1	3
448.647	1	7
448.988	1	-12
449.329	1	1
449.670	1	19
450.011	1	-2
450.352	1	10
450.693	1	3
451.034	1	1
451.375	1	10
451.716	1	-1
452.057	1	5
452.398	1	-2
452.739	1	1
453.080	1	3
453.421	1	3
453.762	1	7
454.103	1	0
454.444	1	13
454.785	1	-12
455.126	1	8
455.467	1	-7
455.808	1	-6
456.149	1	-5
456.490	1	-2
456.831	1	14
457.172	1	0
457.513	1	1
457.854	1	-2
458.195	1	-8
458.536	1	5
458.877	1	-1
459.218	1	4
459.559	1	-2
459.899	1	6
460.240	1	1
460.581	1	6
460.922	1	-6
461.263	1	2
461.604	1	2
461.945	1	2
462.286	1	2
462.627	1	1
462.968	1	-10
463.309	1	-4
463.649	1	5
463.990	1	4
464.331	1	-6
464.672	1	1
465.013	1	-12
465.354	1	1
465.695	1	-2
466.036	1	5
466.376	1	-8
466.717	1	-1
467.058	1	8
467.399	1	-8
467.740	1	-8
468.081	1	5
468.422	1	11
468.762	1	-16
469.103	1	-6
469.444	1	4
469.785	1	0
470.126	1	5
470.467	1	-3
470.807	1	-10
471.148	1	-7
471.489	1	-5
471.830	1	9
472.171	1	-4
472.511	1	12
472.852	1	-5
473.193	1	-4
473.534	1	-9
473.875	1	-1
474.215	1	0
474.556	1	-12
474.897	1	-3
475.238	1	-1
475.578	1	7
475.919	1	6
476.260	1	-5
476.601	1	0
476.942	1	-3
477.282	1	-12
477.623	1	2
477.964	1	-4
478.305	1	8
478.645	1	-4
478.986	1	-4
479.327	1	-9
479.667	1	7
480.008	1	9
480.349	1	0
480.690	1	-3
481.030	1	1
481.371	1	-1
481.712	1	-1
482.053	1	7
482.393	1	-10
482.734	1	-3
483.075	1	5
483.415	1	12
483.756	1	15
484.097	1	-8
484.437	1	-15
484.778	1	-2
485.119	1	3
485.459	1	17
485.800	1	-3
486.141	1	-10
486.481	1	0
486.822	1	-1
487.163	1	0
487.503	1	-10
487.844	1	-6
488.185	1	-5
488.525	1	1
488.866	1	1
489.207	1	6
489.547	1	-2
489.888	1	-2
490.228	1	-15
490.569	1	7
490.910	1	0
491.250	1	-1
491.591	1	-7
491.932	1	5
492.272	1	4
492.613	1	-4
492.953	1	3
493.294	1	8
493.635	1	1
493.975	1	-2
494.316	1	11
494.656	1	1
494.997	1	-5
495.337	1	5
495.678	1	5
496.019	1	-6
496.359	1	5
496.700	1	-1
497.040	1	2
497.381	1	-23
497.721	1	-10
498.062	1	-8
498.403	1	7
498.743	1	-3
499.084	1	-16
499.424	1	19
499.765	1	4
500.105	1	10
500.446	1	10
500.786	1	-3
501.127	1	4
501.467	1	0
501.808	1	-19
502.148	1	5
502.489	1	5
502.829	1	-5
503.170	1	3
503.510	1	3
503.851	1	-21
504.191	1	2
504.532	1	-14
504.872	1	-5
505.213	1	1
505.553	1	0
505.894	1	-4
506.234	1	11
506.575	1	-4
506.915	1	9
507.256	1	-4
507.596	1	2
507.936	1	1
508.277	1	-5
508.617	1	11
508.958	1	8
509.298	1	19
509.639	1	15
509.979	1	3
510.319	1	-8
510.660	1	2
511.000	1	2
511.341	1	-6
511.681	1	1
512.022	1	-4
512.362	1	8
512.702	1	-16
513.043	1	1
513.383	1	-1
513.724	1	8
514.064	1	1
514.404	1	0
514.745	1	4
515.085	1	-5
515.425	1	0
515.766	1	9
516.106	1	-4
516.447	1	4
516.787	1	0
517.127	1	5
517.468	1	-5
517.808	1	-4
518.148	1	4
518.489	1	1
518.829	1	-10
519.169	1	6
519.510	1	-4
519.850	1	-4
520.190	1	1
520.531	1	-2
520.871	1	-12
521.211	1	1
521.552	1	3
521.892	1	-8
522.232	1	3
522.573	1	5
522.913	1	-1
523.253	1	-4
523.593	1	-12
523.934	1	-1
524.274	1	-12
524.614	1	-6
524.955	1	-1
525.295	1	-3
525.635	1	4
525.975	1	-4
526.316	1	-7
526.656	1	16
526.996	1	10
527.337	1	1
527.677	1	14
528.017	1	-6
528.357	1	8
528.698	1	-4
529.038	1	6
529.378	1	3
529.718	1	9
530.058	1	5
530.399	1	0
530.739	1	-4
531.079	1	15
531.419	1	12
531.760	1	5
532.100	1	6
532.440	1	-7
532.780	1	-4
533.120	1	-3
533.461	1	4
533.801	1	1
534.141	1	2
534.481	1	6
534.821	1	-7
535.162	1	5
535.502	1	2
535.842	1	-1
536.182	1	-3
536.522	1	-4
536.862	1	-9
537.203	1	11
537.543	1	-2
537.883	1	9
538.223	1	12
538.563	1	8
538.903	1	-4
539.243	1	-2
539.584	1	10
539.924	1	-4
540.264	1	-1
540.604	1	3
540.944	1	2
541.284	1	-5
541.624	1	5
541.964	1	0
542.305	1	-9
542.645	1	8
542.985	1	-6
543.325	1	-5
543.665	1	13
544.005	1	-3
544.345	1	-6
544.685	1	2
545.025	1	-14
545.365	1	7
545.705	1	6
546.045	1	7
546.386	1	-3
546.726	1	-4
547.066	1	-11
547.406	1	1
547.746	1	13
548.086	1	4
548.426	1	-2
548.766	1	6
549.106	1	2
549.446	1	-3
549.786	1	5
550.126	1	-6
550.466	1	-6
550.806	1	1
551.146	1	-9
551.486	1	-1
551.826	1	-3
552.166	1	5
552.506	1	-9
552.846	1	0
553.186	1	1
553.526	1	-1
553.866	1	5
554.206	1	2
554.546	1	-9
554.886	1	-7
555.226	1	-8
555.566	1	3
555.906	1	9
556.246	1	0
556.586	1	-2
556.926	1	2
557.266	1	4
557.606	1	-12
557.946	1	2
558.286	1	0
558.626	1	1
558.966	1	-2
559.306	1	-10
559.646	1	-4
559.986	1	-12
560.325	1	-16
560.665	1	1
561.005	1	3
561.345	1	4
561.685	1	-3
562.025	1	-3
562.365	1	-9
562.705	1	2
563.045	1	-3
563.385	1	-2
563.725	1	1
564.064	1	8
564.404	1	2
564.744	1	-1
565.084	1	-1
565.424	1	1
565.764	1	13
566.104	1	-11
566.444	1	3
566.783	1	-3
567.123	1	11
567.463	1	-2
567.803	1	-6
568.143	1	-3
568.483	1	0
568.823	1	7
569.162	1	4
569.502	1	7
569.842	1	1
570.182	1	-8
570.522	1	10
570.862	1	2
571.201	1	3
571.541	1	-12
571.881	1	8
572.221	1	1
572.561	1	-7
572.900	1	12
573.240	1	-4
573.580	1	-9
573.920	1	-2
574.260	1	-8
574.599	1	3
574.939	1	0
575.279	1	-3
575.619	1	-3
575.959	1	-11
576.298	1	-11
576.638	1	-3
576.978	1	5
577.318	1	6
577.657	1	-24
577.997	1	-3
578.337	1	3
578.677	1	-7
579.016	1	7
579.356	1	-4
579.696	1	2
580.036	1	2
580.375	1	4
580.715	1	5
581.055	1	-2
581.394	1	-13
581.734	1	5
582.074	1	-3
582.414	1	7
582.753	1	6
583.093	1	-7
583.433	1	-8
583.772	1	-5
584.112	1	7
584.452	1	-7
584.791	1	-2
585.131	1	-12
585.471	1	-3
585.811	1	3
586.150	1	2
586.490	1	-8
586.830	1	-7
587.169	1	-1
587.509	1	5
587.849	1	9
588.188	1	-6
588.528	1	1
588.867	1	-3
589.207	1	-6
589.547	1	-6
589.886	1	-3
590.226	1	1
590.566	1	-6
590.905	1	-3
591.245	1	-6
591.585	1	3
591.924	1	-4
592.264	1	-7
592.603	1	-10
592.943	1	-2
593.283	1	8
593.622	1	5
593.962	1	3
594.301	1	6
594.641	1	1
594.981	1	-2
595.320	1	7
595.660	1	9
595.999	1	7
596.339	1	9
596.678	1	1
597.018	1	-4
597.358	1	-5
597.697	1	-1
598.037	1	2
598.376	1	2
598.716	1	-10
599.055	1	-6
599.395	1	0
599.734	1	6
600.074	1	-1
600.413	1	2
600.753	1	3
601.092	1	-7
601.432	1	-6
601.771	1	4
602.111	1	-1
602.451	1	-6
602.790	1	-4
603.130	1	3
603.469	1	-9
603.809	1	8
604.148	1	2
604.487	1	0
604.827	1	-8
605.166	1	-4
605.506	1	8
605.845	1	1
606.185	1	-5
606.524	1	-2
606.864	1	-14
607.203	1	6
607.543	1	-3
607.882	1	-13
608.222	1	-2
608.561	1	7
608.901	1	6
609.240	1	-8
609.579	1	4
609.919	1	-10
610.258	1	7
610.598	1	2
610.937	1	3
611.277	1	1
611.616	1	-7
611.955	1	2
612.295	1	-4
612.634	1	-6
612.974	1	2
613.313	1	5
613.652	1	-8
613.992	1	-7
614.331	1	-3
614.671	1	9
615.010	1	5
615.349	1	-1
615.689	1	-2
616.028	1	2
616.368	1	-8
616.707	1	-6
617.046	1	-2
617.386	1	7
617.725	1	0
618.064	1	13
618.404	1	1
618.743	1	-2
619.082	1	6
619.422	1	3
619.761	1	-1
620.100	1	-1
620.440	1	2
620.779	1	-1
621.118	1	-3
621.458	1	-2
621.797	1	-2
622.136	1	-1
622.476	1	2
622.815	1	2
623.154	1	-2
623.494	1	5
623.833	1	-5
624.172	1	3
624.511	1	-3
624.851	1	-7
625.190	1	-1
625.529	1	2
625.869	1	4
626.208	1	1
626.547	1	5
626.886	1	-11
627.226	1	4
627.565	1	2
627.904	1	8
628.243	1	-11
628.583	1	-1
628.922	1	-9
629.261	1	5
629.600	1	8
629.940	1	-2
630.279	1	-7
630.618	1	1
630.957	1	-11
631.297	1	-1
631.636	1	-4
631.975	1	0
632.314	1	3
632.653	1	-9
632.993	1	9
633.332	1	11
633.671	1	1
634.010	1	-1
634.349	1	4
634.689	1	3
635.028	1	-5
635.367	1	-4
635.706	1	-4
636.045	1	6
636.384	1	3
636.724	1	-7
637.063	1	3
637.402	1	-3
637.741	1	1
638.080	1	7
638.419	1	2
638.759	1	-6
639.098	1	2
639.437	1	-10
639.776	1	-4
640.115	1	-4
640.454	1	13
640.793	1	7
641.132	1	3
641.472	1	-9
641.811	1	-5
642.150	1	12
642.489	1	-2
642.828	1	-3
643.167	1	9
643.506	1	-6
643.845	1	2
644.184	1	6
644.524	1	-2
644.863	1	-2
645.202	1	2
645.541	1	-3
645.880	1	4
646.219	1	3
646.558	1	-6
646.897	1	-1
647.236	1	2
647.575	1	7
647.914	1	1
648.253	1	6
648.592	1	-4
648.931	1	0
649.270	1	14
649.610	1	6
649.949	1	-1
650.288	1	-6
650.627	1	4
650.966	1	-4
651.305	1	-4
651.644	1	-1
651.983	1	6
652.322	1	5
652.661	1	7
653.000	1	2
653.339	1	4
653.678	1	-6
654.017	1	-9
654.356	1	5
654.695	1	-7
655.034	1	8
655.373	1	-5
655.712	1	-5
656.051	1	6
656.390	1	-1
656.729	1	3
657.068	1	-10
657.406	1	-3
657.745	1	-14
658.084	1	9
658.423	1	-12
658.762	1	-7
659.101	1	-10
659.440	1	9
659.779	1	-7
660.118	1	0
660.457	1	-4
660.796	1	-4
661.135	1	-1
661.474	1	-5
661.813	1	3
662.152	1	-3
662.491	1	-1
662.829	1	-1
663.168	1	-11
663.507	1	-3
663.846	1	1
664.185	1	-8
664.524	1	-14
664.863	1	1
665.202	1	-9
665.541	1	3
665.879	1	2
666.218	1	-10
666.557	1	-6
666.896	1	-4
667.235	1	-9
667.574	1	-4
667.913	1	2
668.251	1	-1
668.590	1	-6
668.929	1	1
669.268	1	0
669.607	1	-2
669.946	1	5
670.285	1	-2
670.623	1	1
670.962	1	-3
671.301	1	-10
671.640	1	-19
671.979	1	11
672.317	1	-8
672.656	1	-2
672.995	1	7
673.334	1	-5
673.673	1	10
674.011	1	1
674.350	1	2
674.689	1	-3
675.028	1	7
675.367	1	-2
675.705	1	-11
676.044	1	-6
676.383	1	-2
676.722	1	-6
677.060	1	3
677.399	1	6
677.738	1	0
678.077	1	2
678.416	1	3
678.754	1	-4
679.093	1	3
679.432	1	-6
679.771	1	-5
680.109	1	-2
680.448	1	-8
680.787	1	7
681.125	1	0
681.464	1	-2
681.803	1	-13
682.142	1	4
682.480	1	-11
682.819	1	3
683.158	1	-1
683.496	1	-4
683.835	1	11
684.174	1	0
684.512	1	4
684.851	1	-1
685.190	1	-2
685.529	1	2
685.867	1	2
686.206	1	0
686.545	1	16
686.883	1	0
687.222	1	-8
687.561	1	3
687.899	1	-3
688.238	1	-4
688.577	1	-6
688.746	1	-1