File: Analysis/GaN_68K_200ms/GaN_sample E_spot4_UVVIS_68 K_200um_200 ms 2x2mm1_206.txt
340.368	1	-2
340.710	1	-7
341.052	1	2
341.394	1	9
341.737	1	7
342.079	1	-13
342.421	1	3
342.763	1	-5
343.105	1	13
343.447	1	-3
343.789	1	2
344.131	1	5
344.473	1	10
344.815	1	9
345.157	1	2
345.499	1	4
345.841	1	8
346.183	1	-4
346.526	1	7
346.868	1	5
347.210	1	4
347.552	1	14
347.894	1	10
348.236	1	1
348.578	1	3
348.920	1	16
349.262	1	-3
349.604	1	20
349.946	1	15
350.288	1	6
350.630	1	-2
350.972	1	2
351.314	1	1
351.656	1	4
351.998	1	0
352.340	1	5
352.682	1	-1
353.024	1	-8
353.366	1	8
353.708	1	9
354.050	1	15
354.392	1	8
354.734	1	-1
355.076	1	5
355.418	1	-6
355.760	1	8
356.102	1	-2
356.444	1	8
356.785	1	20
357.127	1	2
357.469	1	0
357.811	1	15
358.153	1	5
358.495	1	13
358.837	1	7
359.179	1	11
359.521	1	6
359.863	1	-10
360.205	1	5
360.547	1	5
360.889	1	15
361.231	1	6
361.572	1	12
361.914	1	7
362.256	1	17
362.598	1	19
362.940	1	12
363.282	1	21
363.624	1	21
363.966	1	6
364.308	1	15
364.649	1	17
364.991	1	19
365.333	1	19
365.675	1	11
366.017	1	21
366.359	1	14
366.701	1	15
367.042	1	20
367.384	1	16
367.726	1	26
368.068	1	14
368.410	1	21
368.752	1	7
369.093	1	16
369.435	1	10
369.777	1	13
370.119	1	23
370.461	1	17
370.803	1	11
371.144	1	18
371.486	1	19
371.828	1	9
372.170	1	25
372.512	1	4
372.853	1	6
373.195	1	3
373.537	1	14
373.879	1	26
374.220	1	7
374.562	1	6
374.904	1	11
375.246	1	12
375.588	1	14
375.929	1	11
376.271	1	11
376.613	1	9
376.955	1	1
377.296	1	12
377.638	1	0
377.980	1	12
378.321	1	17
378.663	1	9
379.005	1	21
379.347	1	8
379.688	1	7
380.030	1	2
380.372	1	13
380.714	1	12
381.055	1	4
381.397	1	4
381.739	1	12
382.080	1	1
382.422	1	20
382.764	1	14
383.105	1	9
383.447	1	24
383.789	1	21
384.130	1	6
384.472	1	9
384.814	1	24
385.156	1	33
385.497	1	18
385.839	1	19
386.180	1	26
386.522	1	27
386.864	1	14
387.205	1	12
387.547	1	6
387.889	1	33
388.230	1	14
388.572	1	29
388.914	1	26
389.255	1	27
389.597	1	14
389.939	1	21
390.280	1	28
390.622	1	20
390.963	1	33
391.305	1	26
391.647	1	16
391.988	1	12
392.330	1	31
392.671	1	25
393.013	1	27
393.355	1	29
393.696	1	21
394.038	1	12
394.379	1	16
394.721	1	19
395.062	1	4
395.404	1	20
395.746	1	12
396.087	1	22
396.429	1	22
396.770	1	20
397.112	1	16
397.453	1	16
397.795	1	17
398.136	1	29
398.478	1	20
398.819	1	27
399.161	1	26
399.503	1	27
399.844	1	14
400.186	1	30
400.527	1	19
400.869	1	22
401.210	1	18
401.552	1	28
401.893	1	11
402.235	1	30
402.576	1	36
402.918	1	12
403.259	1	6
403.601	1	9
403.942	1	19
404.284	1	15
404.625	1	14
404.967	1	12
405.308	1	22
405.649	1	10
405.991	1	24
406.332	1	13
406.674	1	13
407.015	1	16
407.357	1	18
407.698	1	13
408.040	1	7
408.381	1	6
408.722	1	12
409.064	1	20
409.405	1	17
409.747	1	10
410.088	1	18
410.430	1	12
410.771	1	25
411.112	1	19
411.454	1	24
411.795	1	13
412.137	1	21
412.478	1	14
412.819	1	5
413.161	1	5
413.502	1	9
413.844	1	8
414.185	1	12
414.526	1	13
414.868	1	22
415.209	1	9
415.550	1	3
415.892	1	14
416.233	1	16
416.575	1	5
416.916	1	8
417.257	1	14
417.599	1	17
417.940	1	3
418.281	1	5
418.623	1	5
418.964	1	11
419.305	1	8
419.647	1	17
419.988	1	5
420.329	1	19
420.671	1	10
421.012	1	13
421.353	1	18
421.695	1	10
422.036	1	1
422.377	1	9
422.718	1	13
423.060	1	8
423.401	1	10
423.742	1	15
424.084	1	8
424.425	1	12
424.766	1	13
425.107	1	13
425.449	1	18
425.790	1	12
426.131	1	12
426.472	1	0
426.814	1	18
427.155	1	10
427.496	1	16
427.837	1	1
428.179	1	0
428.520	1	4
428.861	1	15
429.202	1	16
429.544	1	15
429.885	1	0
430.226	1	5
430.567	1	10
430.909	1	3
431.250	1	-2
431.591	1	15
431.932	1	12
432.273	1	4
432.615	1	8
432.956	1	5
433.297	1	13
433.638	1	2
433.979	1	10
434.320	1	4
434.662	1	0
435.003	1	9
435.344	1	11
435.685	1	13
436.026	1	10
436.368	1	7
436.709	1	7
437.050	1	13
437.391	1	11
437.732	1	9
438.073	1	10
438.414	1	10
438.756	1	16
439.097	1	13
439.438	1	18
439.779	1	8
440.120	1	12
440.461	1	-4
440.802	1	9
441.143	1	15
441.485	1	7
441.826	1	1
442.167	1	7
442.508	1	6
442.849	1	6
443.190	1	-9
443.531	1	2
443.872	1	4
444.213	1	-6
444.554	1	7
444.895	1	6
445.237	1	3
445.578	1	19
445.919	1	2
446.260	1	6
446.601	1	5
446.942	1	9
447.283	1	6
447.624	1	9
447.965	1	1
448.306	1	7
448.647	1	13
448.988	1	-5
449.329	1	8
449.670	1	4
450.011	1	4
450.352	1	15
450.693	1	17
451.034	1	6
451.375	1	13
451.716	1	4
452.057	1	15
452.398	1	2
452.739	1	9
453.080	1	24
453.421	1	4
453.762	1	5
454.103	1	13
454.444	1	22
454.785	1	3
455.126	1	7
455.467	1	5
455.808	1	-6
456.149	1	5
456.490	1	6
456.831	1	27
457.172	1	5
457.513	1	18
457.854	1	11
458.195	1	-7
458.536	1	11
458.877	1	11
459.218	1	4
459.559	1	11
459.899	1	8
460.240	1	18
460.581	1	12
460.922	1	4
461.263	1	16
461.604	1	13
461.945	1	14
462.286	1	12
462.627	1	3
462.968	1	1
463.309	1	14
463.649	1	5
463.990	1	3
464.331	1	6
464.672	1	3
465.013	1	1
465.354	1	10
465.695	1	19
466.036	1	8
466.376	1	6
466.717	1	1
467.058	1	10
467.399	1	14
467.740	1	9
468.081	1	3
468.422	1	17
468.762	1	-1
469.103	1	0
469.444	1	3
469.785	1	1
470.126	1	11
470.467	1	3
470.807	1	1
471.148	1	5
471.489	1	-1
471.830	1	19
472.171	1	7
472.511	1	13
472.852	1	2
473.193	1	-5
473.534	1	1
473.875	1	14
474.215	1	6
474.556	1	-2
474.897	1	-1
475.238	1	6
475.578	1	5
475.919	1	4
476.260	1	0
476.601	1	-4
476.942	1	3
477.282	1	-8
477.623	1	4
477.964	1	8
478.305	1	2
478.645	1	-9
478.986	1	0
479.327	1	2
479.667	1	7
480.008	1	8
480.349	1	2
480.690	1	8
481.030	1	5
481.371	1	8
481.712	1	12
482.053	1	10
482.393	1	-8
482.734	1	6
483.075	1	9
483.415	1	12
483.756	1	13
484.097	1	-4
484.437	1	-2
484.778	1	7
485.119	1	12
485.459	1	7
485.800	1	2
486.141	1	3
486.481	1	9
486.822	1	7
487.163	1	-7
487.503	1	-3
487.844	1	11
488.185	1	-2
488.525	1	1
488.866	1	19
489.207	1	8
489.547	1	0
489.888	1	10
490.228	1	-2
490.569	1	10
490.910	1	-1
491.250	1	2
491.591	1	4
491.932	1	7
492.272	1	8
492.613	1	7
492.953	1	13
493.294	1	11
493.635	1	5
493.975	1	4
494.316	1	11
494.656	1	4
494.997	1	6
495.337	1	10
495.678	1	12
496.019	1	-11
496.359	1	15
496.700	1	5
497.040	1	11
497.381	1	-14
497.721	1	4
498.062	1	4
498.403	1	15
498.743	1	5
499.084	1	-10
499.424	1	27
499.765	1	6
500.105	1	20
500.446	1	10
500.786	1	8
501.127	1	19
501.467	1	-1
501.808	1	-2
502.148	1	8
502.489	1	9
502.829	1	12
503.170	1	15
503.510	1	9
503.851	1	-6
504.191	1	14
504.532	1	1
504.872	1	0
505.213	1	2
505.553	1	11
505.894	1	3
506.234	1	20
506.575	1	13
506.915	1	10
507.256	1	-1
507.596	1	15
507.936	1	15
508.277	1	5
508.617	1	16
508.958	1	19
509.298	1	24
509.639	1	14
509.979	1	8
510.319	1	7
510.660	1	20
511.000	1	12
511.341	1	6
511.681	1	8
512.022	1	10
512.362	1	12
512.702	1	15
513.043	1	9
513.383	1	7
513.724	1	17
514.064	1	12
514.404	1	13
514.745	1	12
515.085	1	11
515.425	1	9
515.766	1	16
516.106	1	8
516.447	1	11
516.787	1	4
517.127	1	6
517.468	1	7
517.808	1	13
518.148	1	9
518.489	1	20
518.829	1	0
519.169	1	27
519.510	1	9
519.850	1	-3
520.190	1	6
520.531	1	21
520.871	1	7
521.211	1	11
521.552	1	10
521.892	1	2
522.232	1	2
522.573	1	16
522.913	1	12
523.253	1	5
523.593	1	7
523.934	1	13
524.274	1	12
524.614	1	10
524.955	1	11
525.295	1	10
525.635	1	23
525.975	1	3
526.316	1	9
526.656	1	31
526.996	1	29
527.337	1	9
527.677	1	27
528.017	1	9
528.357	1	21
528.698	1	10
529.038	1	16
529.378	1	15
529.718	1	11
530.058	1	11
530.399	1	19
530.739	1	16
531.079	1	22
531.419	1	25
531.760	1	26
532.100	1	17
532.440	1	7
532.780	1	14
533.120	1	13
533.461	1	24
533.801	1	11
534.141	1	15
534.481	1	18
534.821	1	16
535.162	1	9
535.502	1	18
535.842	1	15
536.182	1	16
536.522	1	19
536.862	1	21
537.203	1	18
537.543	1	15
537.883	1	14
538.223	1	20
538.563	1	20
538.903	1	15
539.243	1	4
539.584	1	21
539.924	1	19
540.264	1	23
540.604	1	17
540.944	1	7
541.284	1	5
541.624	1	16
541.964	1	23
542.305	1	5
542.645	1	16
542.985	1	7
543.325	1	1
543.665	1	28
544.005	1	13
544.345	1	9
544.685	1	8
545.025	1	7
545.365	1	14
545.705	1	22
546.045	1	25
546.386	1	15
546.726	1	9
547.066	1	6
547.406	1	24
547.746	1	15
548.086	1	10
548.426	1	8
548.766	1	21
549.106	1	19
549.446	1	12
549.786	1	16
550.126	1	15
550.466	1	3
550.806	1	19
551.146	1	14
551.486	1	16
551.826	1	15
552.166	1	4
552.506	1	11
552.846	1	12
553.186	1	12
553.526	1	13
553.866	1	22
554.206	1	11
554.546	1	4
554.886	1	12
555.226	1	1
555.566	1	20
555.906	1	8
556.246	1	7
556.586	1	15
556.926	1	8
557.266	1	26
557.606	1	2
557.946	1	15
558.286	1	12
558.626	1	11
558.966	1	14
559.306	1	8
559.646	1	4
559.986	1	7
560.325	1	3
560.665	1	17
561.005	1	17
561.345	1	10
561.685	1	-3
562.025	1	7
562.365	1	17
562.705	1	10
563.045	1	13
563.385	1	8
563.725	1	6
564.064	1	22
564.404	1	6
564.744	1	10
565.084	1	1
565.424	1	3
565.764	1	14
566.104	1	4
566.444	1	9
566.783	1	7
567.123	1	20
567.463	1	8
567.803	1	2
568.143	1	6
568.483	1	3
568.823	1	22
569.162	1	4
569.502	1	8
569.842	1	7
570.182	1	4
570.522	1	13
570.862	1	5
571.201	1	6
571.541	1	0
571.881	1	7
572.221	1	5
572.561	1	5
572.900	1	12
573.240	1	-2
573.580	1	9
573.920	1	9
574.260	1	11
574.599	1	5
574.939	1	-1
575.279	1	12
575.619	1	10
575.959	1	-2
576.298	1	-4
576.638	1	11
576.978	1	5
577.318	1	0
577.657	1	-10
577.997	1	-2
578.337	1	3
578.677	1	-6
579.016	1	22
579.356	1	-3
579.696	1	21
580.036	1	-4
580.375	1	2
580.715	1	18
581.055	1	9
581.394	1	-6
581.734	1	12
582.074	1	9
582.414	1	5
582.753	1	8
583.093	1	-10
583.433	1	-1
583.772	1	11
584.112	1	6
584.452	1	14
584.791	1	3
585.131	1	2
585.471	1	3
585.811	1	0
586.150	1	4
586.490	1	-3
586.830	1	0
587.169	1	8
587.509	1	-1
587.849	1	16
588.188	1	1
588.528	1	16
588.867	1	15
589.207	1	-6
589.547	1	8
589.886	1	-4
590.226	1	11
590.566	1	1
590.905	1	4
591.245	1	9
591.585	1	5
591.924	1	0
592.264	1	7
592.603	1	0
592.943	1	3
593.283	1	10
593.622	1	8
593.962	1	15
594.301	1	4
594.641	1	-1
594.981	1	-1
595.320	1	10
595.660	1	0
595.999	1	2
596.339	1	-5
596.678	1	6
597.018	1	5
597.358	1	3
597.697	1	1
598.037	1	3
598.376	1	6
598.716	1	-6
599.055	1	5
599.395	1	4
599.734	1	3
600.074	1	7
600.413	1	11
600.753	1	0
601.092	1	-3
601.432	1	-8
601.771	1	5
602.111	1	1
602.451	1	7
602.790	1	5
603.130	1	11
603.469	1	8
603.809	1	11
604.148	1	4
604.487	1	10
604.827	1	-3
605.166	1	1
605.506	1	4
605.845	1	-3
606.185	1	12
606.524	1	4
606.864	1	-5
607.203	1	20
607.543	1	-6
607.882	1	1
608.222	1	2
608.561	1	15
608.901	1	5
609.240	1	-4
609.579	1	7
609.919	1	-3
610.258	1	11
610.598	1	7
610.937	1	4
611.277	1	20
611.616	1	-7
611.955	1	16
612.295	1	1
612.634	1	-1
612.974	1	9
613.313	1	6
613.652	1	-5
613.992	1	14
614.331	1	3
614.671	1	13
615.010	1	6
615.349	1	5
615.689	1	6
616.028	1	7
616.368	1	1
616.707	1	-2
617.046	1	6
617.386	1	5
617.725	1	12
618.064	1	7
618.404	1	15
618.743	1	2
619.082	1	13
619.422	1	2
619.761	1	6
620.100	1	7
620.440	1	2
620.779	1	9
621.118	1	-4
621.458	1	7
621.797	1	8
622.136	1	9
622.476	1	1
622.815	1	3
623.154	1	4
623.494	1	4
623.833	1	-2
624.172	1	22
624.511	1	1
624.851	1	-8
625.190	1	-1
625.529	1	6
625.869	1	12
626.208	1	3
626.547	1	6
626.886	1	6
627.226	1	7
627.565	1	12
627.904	1	5
628.243	1	-5
628.583	1	3
628.922	1	5
629.261	1	9
629.600	1	12
629.940	1	6
630.279	1	-7
630.618	1	6
630.957	1	-1
631.297	1	5
631.636	1	7
631.975	1	13
632.314	1	14
632.653	1	2
632.993	1	2
633.332	1	11
633.671	1	0
634.010	1	14
634.349	1	9
634.689	1	20
635.028	1	7
635.367	1	0
635.706	1	1
636.045	1	4
636.384	1	11
636.724	1	10
637.063	1	6
637.402	1	12
637.741	1	10
638.080	1	3
638.419	1	9
638.759	1	6
639.098	1	0
639.437	1	-1
639.776	1	4
640.115	1	-1
640.454	1	21
640.793	1	3
641.132	1	20
641.472	1	-2
641.811	1	10
642.150	1	-6
642.489	1	4
642.828	1	6
643.167	1	11
643.506	1	-1
643.845	1	4
644.184	1	11
644.524	1	-3
644.863	1	4
645.202	1	7
645.541	1	-2
645.880	1	2
646.219	1	10
646.558	1	3
646.897	1	-5
647.236	1	8
647.575	1	4
647.914	1	-1
648.253	1	9
648.592	1	10
648.931	1	8
649.270	1	23
649.610	1	21
649.949	1	12
650.288	1	5
650.627	1	3
650.966	1	-2
651.305	1	7
651.644	1	-7
651.983	1	-2
652.322	1	10
652.661	1	6
653.000	1	1
653.339	1	4
653.678	1	7
654.017	1	4
654.356	1	13
654.695	1	6
655.034	1	9
655.373	1	8
655.712	1	-1
656.051	1	7
656.390	1	-2
656.729	1	7
657.068	1	0
657.406	1	17
657.745	1	4
658.084	1	23
658.423	1	0
658.762	1	-5
659.101	1	-5
659.440	1	5
659.779	1	11
660.118	1	11
660.457	1	10
660.796	1	5
661.135	1	-3
661.474	1	1
661.813	1	4
662.152	1	4
662.491	1	-3
662.829	1	2
663.168	1	-9
663.507	1	7
663.846	1	6
664.185	1	7
664.524	1	3
664.863	1	15
665.202	1	-1
665.541	1	1
665.879	1	-6
666.218	1	-7
666.557	1	1
666.896	1	-1
667.235	1	9
667.574	1	-2
667.913	1	0
668.251	1	6
668.590	1	3
668.929	1	2
669.268	1	1
669.607	1	-8
669.946	1	17
670.285	1	5
670.623	1	3
670.962	1	-1
671.301	1	5
671.640	1	-5
671.979	1	7
672.317	1	8
672.656	1	6
672.995	1	8
673.334	1	16
673.673	1	16
674.011	1	16
674.350	1	8
674.689	1	3
675.028	1	10
675.367	1	8
675.705	1	-7
676.044	1	-2
676.383	1	-4
676.722	1	2
677.060	1	8
677.399	1	2
677.738	1	-9
678.077	1	6
678.416	1	3
678.754	1	4
679.093	1	1
679.432	1	4
679.771	1	6
680.109	1	2
680.448	1	2
680.787	1	7
681.125	1	5
681.464	1	-3
681.803	1	-11
682.142	1	20
682.480	1	-3
682.819	1	7
683.158	1	1
683.496	1	-2
683.835	1	12
684.174	1	-2
684.512	1	-1
684.851	1	2
685.190	1	6
685.529	1	7
685.867	1	9
686.206	1	-1
686.545	1	11
686.883	1	-5
687.222	1	-3
687.561	1	9
687.899	1	4
688.238	1	6
688.577	1	3
688.746	1	4