File: Analysis/GaN_68K_200ms/GaN_sample E_spot4_UVVIS_68 K_200um_200 ms 2x2mm1_220.txt
340.368	1	-1
340.710	1	2
341.052	1	7
341.394	1	1
341.737	1	17
342.079	1	1
342.421	1	-6
342.763	1	1
343.105	1	15
343.447	1	8
343.789	1	5
344.131	1	-1
344.473	1	14
344.815	1	4
345.157	1	6
345.499	1	10
345.841	1	2
346.183	1	4
346.526	1	8
346.868	1	5
347.210	1	6
347.552	1	9
347.894	1	-1
348.236	1	4
348.578	1	5
348.920	1	4
349.262	1	-5
349.604	1	14
349.946	1	10
350.288	1	4
350.630	1	-1
350.972	1	4
351.314	1	5
351.656	1	5
351.998	1	1
352.340	1	1
352.682	1	4
353.024	1	-11
353.366	1	5
353.708	1	10
354.050	1	10
354.392	1	6
354.734	1	6
355.076	1	3
355.418	1	6
355.760	1	5
356.102	1	3
356.444	1	10
356.785	1	13
357.127	1	5
357.469	1	8
357.811	1	18
358.153	1	8
358.495	1	13
358.837	1	3
359.179	1	5
359.521	1	8
359.863	1	-4
360.205	1	3
360.547	1	4
360.889	1	13
361.231	1	6
361.572	1	6
361.914	1	-1
362.256	1	14
362.598	1	10
362.940	1	5
363.282	1	7
363.624	1	6
363.966	1	24
364.308	1	8
364.649	1	13
364.991	1	12
365.333	1	25
365.675	1	10
366.017	1	14
366.359	1	24
366.701	1	15
367.042	1	21
367.384	1	25
367.726	1	26
368.068	1	4
368.410	1	8
368.752	1	12
369.093	1	16
369.435	1	9
369.777	1	1
370.119	1	8
370.461	1	9
370.803	1	11
371.144	1	16
371.486	1	19
371.828	1	19
372.170	1	19
372.512	1	8
372.853	1	14
373.195	1	6
373.537	1	14
373.879	1	16
374.220	1	4
374.562	1	6
374.904	1	7
375.246	1	2
375.588	1	8
375.929	1	16
376.271	1	11
376.613	1	9
376.955	1	-1
377.296	1	1
377.638	1	10
377.980	1	12
378.321	1	11
378.663	1	7
379.005	1	9
379.347	1	13
379.688	1	-1
380.030	1	3
380.372	1	5
380.714	1	14
381.055	1	10
381.397	1	7
381.739	1	10
382.080	1	-6
382.422	1	13
382.764	1	-2
383.105	1	14
383.447	1	20
383.789	1	9
384.130	1	9
384.472	1	0
384.814	1	11
385.156	1	14
385.497	1	19
385.839	1	17
386.180	1	4
386.522	1	16
386.864	1	20
387.205	1	20
387.547	1	22
387.889	1	15
388.230	1	26
388.572	1	15
388.914	1	18
389.255	1	25
389.597	1	14
389.939	1	22
390.280	1	32
390.622	1	15
390.963	1	31
391.305	1	22
391.647	1	26
391.988	1	8
392.330	1	25
392.671	1	27
393.013	1	17
393.355	1	21
393.696	1	11
394.038	1	10
394.379	1	8
394.721	1	5
395.062	1	4
395.404	1	18
395.746	1	17
396.087	1	10
396.429	1	12
396.770	1	22
397.112	1	13
397.453	1	7
397.795	1	15
398.136	1	25
398.478	1	7
398.819	1	27
399.161	1	22
399.503	1	12
399.844	1	11
400.186	1	20
400.527	1	12
400.869	1	28
401.210	1	2
401.552	1	26
401.893	1	13
402.235	1	17
402.576	1	23
402.918	1	8
403.259	1	5
403.601	1	4
403.942	1	18
404.284	1	9
404.625	1	13
404.967	1	10
405.308	1	12
405.649	1	9
405.991	1	15
406.332	1	4
406.674	1	11
407.015	1	3
407.357	1	10
407.698	1	3
408.040	1	16
408.381	1	14
408.722	1	9
409.064	1	17
409.405	1	20
409.747	1	10
410.088	1	8
410.430	1	24
410.771	1	10
411.112	1	16
411.454	1	28
411.795	1	15
412.137	1	19
412.478	1	10
412.819	1	6
413.161	1	6
413.502	1	7
413.844	1	9
414.185	1	17
414.526	1	12
414.868	1	20
415.209	1	12
415.550	1	8
415.892	1	12
416.233	1	9
416.575	1	7
416.916	1	9
417.257	1	8
417.599	1	9
417.940	1	8
418.281	1	9
418.623	1	12
418.964	1	5
419.305	1	4
419.647	1	12
419.988	1	-4
420.329	1	14
420.671	1	13
421.012	1	9
421.353	1	16
421.695	1	12
422.036	1	8
422.377	1	5
422.718	1	0
423.060	1	8
423.401	1	5
423.742	1	12
424.084	1	11
424.425	1	10
424.766	1	10
425.107	1	8
425.449	1	9
425.790	1	5
426.131	1	6
426.472	1	4
426.814	1	13
427.155	1	0
427.496	1	13
427.837	1	-1
428.179	1	10
428.520	1	-5
428.861	1	15
429.202	1	13
429.544	1	11
429.885	1	7
430.226	1	7
430.567	1	23
430.909	1	2
431.250	1	5
431.591	1	15
431.932	1	13
432.273	1	6
432.615	1	16
432.956	1	9
433.297	1	11
433.638	1	6
433.979	1	5
434.320	1	14
434.662	1	3
435.003	1	13
435.344	1	15
435.685	1	14
436.026	1	8
436.368	1	0
436.709	1	2
437.050	1	6
437.391	1	7
437.732	1	10
438.073	1	16
438.414	1	3
438.756	1	9
439.097	1	12
439.438	1	17
439.779	1	6
440.120	1	12
440.461	1	-3
440.802	1	6
441.143	1	18
441.485	1	4
441.826	1	-1
442.167	1	1
442.508	1	3
442.849	1	13
443.190	1	-4
443.531	1	9
443.872	1	11
444.213	1	1
444.554	1	3
444.895	1	8
445.237	1	1
445.578	1	16
445.919	1	3
446.260	1	8
446.601	1	-9
446.942	1	12
447.283	1	13
447.624	1	17
447.965	1	-1
448.306	1	3
448.647	1	14
448.988	1	-4
449.329	1	4
449.670	1	16
450.011	1	10
450.352	1	7
450.693	1	5
451.034	1	5
451.375	1	7
451.716	1	11
452.057	1	21
452.398	1	7
452.739	1	1
453.080	1	14
453.421	1	7
453.762	1	16
454.103	1	2
454.444	1	3
454.785	1	4
455.126	1	6
455.467	1	6
455.808	1	11
456.149	1	-1
456.490	1	-2
456.831	1	13
457.172	1	5
457.513	1	11
457.854	1	2
458.195	1	-1
458.536	1	9
458.877	1	0
459.218	1	5
459.559	1	2
459.899	1	12
460.240	1	8
460.581	1	14
460.922	1	9
461.263	1	13
461.604	1	-3
461.945	1	13
462.286	1	6
462.627	1	1
462.968	1	-1
463.309	1	6
463.649	1	-3
463.990	1	9
464.331	1	20
464.672	1	-3
465.013	1	-9
465.354	1	10
465.695	1	7
466.036	1	-2
466.376	1	6
466.717	1	-3
467.058	1	16
467.399	1	9
467.740	1	9
468.081	1	3
468.422	1	14
468.762	1	-10
469.103	1	-8
469.444	1	4
469.785	1	11
470.126	1	8
470.467	1	0
470.807	1	8
471.148	1	11
471.489	1	-1
471.830	1	20
472.171	1	-3
472.511	1	18
472.852	1	0
473.193	1	-3
473.534	1	1
473.875	1	10
474.215	1	3
474.556	1	-3
474.897	1	2
475.238	1	7
475.578	1	6
475.919	1	8
476.260	1	6
476.601	1	6
476.942	1	6
477.282	1	-1
477.623	1	16
477.964	1	15
478.305	1	17
478.645	1	0
478.986	1	4
479.327	1	-7
479.667	1	11
480.008	1	9
480.349	1	7
480.690	1	15
481.030	1	1
481.371	1	6
481.712	1	17
482.053	1	6
482.393	1	-7
482.734	1	7
483.075	1	9
483.415	1	6
483.756	1	13
484.097	1	6
484.437	1	1
484.778	1	6
485.119	1	-2
485.459	1	2
485.800	1	-1
486.141	1	-4
486.481	1	10
486.822	1	12
487.163	1	3
487.503	1	-2
487.844	1	7
488.185	1	1
488.525	1	7
488.866	1	3
489.207	1	14
489.547	1	4
489.888	1	3
490.228	1	-6
490.569	1	7
490.910	1	-2
491.250	1	4
491.591	1	-3
491.932	1	11
492.272	1	15
492.613	1	10
492.953	1	3
493.294	1	14
493.635	1	3
493.975	1	11
494.316	1	10
494.656	1	10
494.997	1	9
495.337	1	7
495.678	1	10
496.019	1	-1
496.359	1	14
496.700	1	10
497.040	1	3
497.381	1	-15
497.721	1	5
498.062	1	3
498.403	1	7
498.743	1	6
499.084	1	-1
499.424	1	7
499.765	1	4
500.105	1	20
500.446	1	10
500.786	1	12
501.127	1	16
501.467	1	2
501.808	1	0
502.148	1	16
502.489	1	13
502.829	1	6
503.170	1	10
503.510	1	13
503.851	1	-5
504.191	1	5
504.532	1	4
504.872	1	1
505.213	1	2
505.553	1	21
505.894	1	11
506.234	1	9
506.575	1	9
506.915	1	0
507.256	1	12
507.596	1	9
507.936	1	16
508.277	1	0
508.617	1	16
508.958	1	17
509.298	1	19
509.639	1	15
509.979	1	12
510.319	1	9
510.660	1	10
511.000	1	11
511.341	1	5
511.681	1	11
512.022	1	3
512.362	1	15
512.702	1	-1
513.043	1	9
513.383	1	3
513.724	1	17
514.064	1	18
514.404	1	6
514.745	1	-3
515.085	1	7
515.425	1	11
515.766	1	14
516.106	1	9
516.447	1	10
516.787	1	4
517.127	1	10
517.468	1	0
517.808	1	11
518.148	1	13
518.489	1	12
518.829	1	2
519.169	1	13
519.510	1	13
519.850	1	10
520.190	1	16
520.531	1	18
520.871	1	4
521.211	1	21
521.552	1	16
521.892	1	8
522.232	1	10
522.573	1	9
522.913	1	15
523.253	1	12
523.593	1	0
523.934	1	10
524.274	1	15
524.614	1	6
524.955	1	11
525.295	1	5
525.635	1	18
525.975	1	12
526.316	1	7
526.656	1	24
526.996	1	20
527.337	1	12
527.677	1	18
528.017	1	1
528.357	1	25
528.698	1	10
529.038	1	11
529.378	1	17
529.718	1	8
530.058	1	10
530.399	1	28
530.739	1	6
531.079	1	11
531.419	1	22
531.760	1	16
532.100	1	9
532.440	1	5
532.780	1	7
533.120	1	7
533.461	1	25
533.801	1	13
534.141	1	17
534.481	1	12
534.821	1	18
535.162	1	18
535.502	1	13
535.842	1	11
536.182	1	6
536.522	1	21
536.862	1	20
537.203	1	20
537.543	1	21
537.883	1	15
538.223	1	19
538.563	1	11
538.903	1	5
539.243	1	7
539.584	1	15
539.924	1	15
540.264	1	16
540.604	1	15
540.944	1	9
541.284	1	14
541.624	1	14
541.964	1	8
542.305	1	1
542.645	1	7
542.985	1	3
543.325	1	6
543.665	1	13
544.005	1	15
544.345	1	4
544.685	1	7
545.025	1	0
545.365	1	9
545.705	1	22
546.045	1	12
546.386	1	18
546.726	1	-2
547.066	1	4
547.406	1	20
547.746	1	7
548.086	1	23
548.426	1	8
548.766	1	11
549.106	1	6
549.446	1	8
549.786	1	15
550.126	1	10
550.466	1	9
550.806	1	12
551.146	1	0
551.486	1	13
551.826	1	26
552.166	1	6
552.506	1	5
552.846	1	8
553.186	1	13
553.526	1	4
553.866	1	12
554.206	1	20
554.546	1	-4
554.886	1	13
555.226	1	2
555.566	1	19
555.906	1	15
556.246	1	16
556.586	1	19
556.926	1	10
557.266	1	22
557.606	1	-6
557.946	1	14
558.286	1	16
558.626	1	14
558.966	1	8
559.306	1	4
559.646	1	8
559.986	1	11
560.325	1	-3
560.665	1	21
561.005	1	18
561.345	1	-3
561.685	1	-10
562.025	1	7
562.365	1	10
562.705	1	17
563.045	1	5
563.385	1	11
563.725	1	6
564.064	1	20
564.404	1	6
564.744	1	14
565.084	1	-1
565.424	1	4
565.764	1	16
566.104	1	5
566.444	1	10
566.783	1	10
567.123	1	28
567.463	1	8
567.803	1	5
568.143	1	-2
568.483	1	2
568.823	1	14
569.162	1	7
569.502	1	7
569.842	1	4
570.182	1	-1
570.522	1	13
570.862	1	5
571.201	1	17
571.541	1	-2
571.881	1	13
572.221	1	10
572.561	1	-3
572.900	1	12
573.240	1	-8
573.580	1	14
573.920	1	6
574.260	1	7
574.599	1	6
574.939	1	-4
575.279	1	12
575.619	1	2
575.959	1	-1
576.298	1	4
576.638	1	4
576.978	1	4
577.318	1	9
577.657	1	-10
577.997	1	0
578.337	1	0
578.677	1	3
579.016	1	22
579.356	1	-3
579.696	1	11
580.036	1	6
580.375	1	5
580.715	1	8
581.055	1	18
581.394	1	6
581.734	1	18
582.074	1	7
582.414	1	9
582.753	1	9
583.093	1	3
583.433	1	-4
583.772	1	13
584.112	1	5
584.452	1	13
584.791	1	2
585.131	1	3
585.471	1	6
585.811	1	3
586.150	1	7
586.490	1	-5
586.830	1	-2
587.169	1	-1
587.509	1	4
587.849	1	12
588.188	1	6
588.528	1	14
588.867	1	12
589.207	1	-5
589.547	1	2
589.886	1	-2
590.226	1	3
590.566	1	5
590.905	1	11
591.245	1	-4
591.585	1	0
591.924	1	0
592.264	1	5
592.603	1	1
592.943	1	0
593.283	1	5
593.622	1	6
593.962	1	12
594.301	1	22
594.641	1	-2
594.981	1	9
595.320	1	7
595.660	1	4
595.999	1	6
596.339	1	11
596.678	1	-6
597.018	1	15
597.358	1	10
597.697	1	0
598.037	1	4
598.376	1	18
598.716	1	-4
599.055	1	9
599.395	1	13
599.734	1	3
600.074	1	-2
600.413	1	-5
600.753	1	8
601.092	1	-4
601.432	1	-2
601.771	1	-1
602.111	1	-2
602.451	1	3
602.790	1	13
603.130	1	1
603.469	1	4
603.809	1	9
604.148	1	9
604.487	1	7
604.827	1	-6
605.166	1	-2
605.506	1	10
605.845	1	5
606.185	1	8
606.524	1	8
606.864	1	0
607.203	1	16
607.543	1	1
607.882	1	-3
608.222	1	2
608.561	1	8
608.901	1	4
609.240	1	10
609.579	1	7
609.919	1	-7
610.258	1	6
610.598	1	12
610.937	1	5
611.277	1	9
611.616	1	-4
611.955	1	3
612.295	1	4
612.634	1	4
612.974	1	10
613.313	1	4
613.652	1	-2
613.992	1	0
614.331	1	6
614.671	1	4
615.010	1	2
615.349	1	11
615.689	1	3
616.028	1	4
616.368	1	-10
616.707	1	-5
617.046	1	16
617.386	1	9
617.725	1	17
618.064	1	5
618.404	1	6
618.743	1	6
619.082	1	13
619.422	1	8
619.761	1	7
620.100	1	10
620.440	1	-1
620.779	1	7
621.118	1	-7
621.458	1	-1
621.797	1	4
622.136	1	4
622.476	1	14
622.815	1	2
623.154	1	4
623.494	1	-2
623.833	1	10
624.172	1	11
624.511	1	1
624.851	1	-12
625.190	1	1
625.529	1	12
625.869	1	7
626.208	1	0
626.547	1	8
626.886	1	-4
627.226	1	15
627.565	1	15
627.904	1	2
628.243	1	-1
628.583	1	7
628.922	1	0
629.261	1	8
629.600	1	4
629.940	1	2
630.279	1	-3
630.618	1	-3
630.957	1	0
631.297	1	-2
631.636	1	4
631.975	1	8
632.314	1	17
632.653	1	0
632.993	1	13
633.332	1	10
633.671	1	1
634.010	1	1
634.349	1	7
634.689	1	16
635.028	1	6
635.367	1	1
635.706	1	-4
636.045	1	4
636.384	1	12
636.724	1	19
637.063	1	7
637.402	1	12
637.741	1	5
638.080	1	1
638.419	1	15
638.759	1	7
639.098	1	4
639.437	1	-4
639.776	1	5
640.115	1	2
640.454	1	5
640.793	1	4
641.132	1	12
641.472	1	-1
641.811	1	0
642.150	1	1
642.489	1	3
642.828	1	0
643.167	1	15
643.506	1	-2
643.845	1	10
644.184	1	14
644.524	1	-2
644.863	1	-1
645.202	1	-1
645.541	1	0
645.880	1	8
646.219	1	3
646.558	1	1
646.897	1	1
647.236	1	7
647.575	1	3
647.914	1	-6
648.253	1	6
648.592	1	2
648.931	1	13
649.270	1	15
649.610	1	11
649.949	1	5
650.288	1	-1
650.627	1	1
650.966	1	1
651.305	1	0
651.644	1	0
651.983	1	5
652.322	1	10
652.661	1	7
653.000	1	3
653.339	1	2
653.678	1	1
654.017	1	4
654.356	1	11
654.695	1	2
655.034	1	-4
655.373	1	3
655.712	1	2
656.051	1	16
656.390	1	10
656.729	1	7
657.068	1	-2
657.406	1	8
657.745	1	-3
658.084	1	5
658.423	1	-14
658.762	1	5
659.101	1	11
659.440	1	11
659.779	1	-7
660.118	1	12
660.457	1	1
660.796	1	1
661.135	1	5
661.474	1	4
661.813	1	2
662.152	1	1
662.491	1	9
662.829	1	5
663.168	1	4
663.507	1	0
663.846	1	8
664.185	1	3
664.524	1	-1
664.863	1	8
665.202	1	-2
665.541	1	0
665.879	1	11
666.218	1	-5
666.557	1	11
666.896	1	0
667.235	1	6
667.574	1	2
667.913	1	11
668.251	1	3
668.590	1	1
668.929	1	11
669.268	1	-2
669.607	1	-4
669.946	1	2
670.285	1	11
670.623	1	0
670.962	1	7
671.301	1	3
671.640	1	-9
671.979	1	6
672.317	1	1
672.656	1	5
672.995	1	5
673.334	1	10
673.673	1	15
674.011	1	5
674.350	1	4
674.689	1	-4
675.028	1	6
675.367	1	7
675.705	1	0
676.044	1	1
676.383	1	-2
676.722	1	-3
677.060	1	11
677.399	1	-3
677.738	1	4
678.077	1	0
678.416	1	8
678.754	1	-4
679.093	1	10
679.432	1	-3
679.771	1	-5
680.109	1	11
680.448	1	6
680.787	1	4
681.125	1	11
681.464	1	1
681.803	1	-3
682.142	1	16
682.480	1	1
682.819	1	1
683.158	1	4
683.496	1	-6
683.835	1	8
684.174	1	7
684.512	1	0
684.851	1	3
685.190	1	21
685.529	1	4
685.867	1	-2
686.206	1	6
686.545	1	10
686.883	1	-2
687.222	1	-1
687.561	1	12
687.899	1	0
688.238	1	3
688.577	1	1
688.746	1	10