File: Analysis/GaN_68K_200ms/GaN_sample E_spot4_UVVIS_68 K_200um_200 ms 2x2mm1_686.txt
340.368	1	-1
340.710	1	-4
341.052	1	1
341.394	1	-6
341.737	1	1
342.079	1	-11
342.421	1	-11
342.763	1	-3
343.105	1	4
343.447	1	-2
343.789	1	-8
344.131	1	-1
344.473	1	-11
344.815	1	4
345.157	1	1
345.499	1	3
345.841	1	4
346.183	1	-7
346.526	1	4
346.868	1	-1
347.210	1	-4
347.552	1	-4
347.894	1	4
348.236	1	5
348.578	1	6
348.920	1	2
349.262	1	-12
349.604	1	9
349.946	1	2
350.288	1	5
350.630	1	-6
350.972	1	1
351.314	1	3
351.656	1	1
351.998	1	-5
352.340	1	0
352.682	1	-4
353.024	1	-10
353.366	1	5
353.708	1	7
354.050	1	8
354.392	1	1
354.734	1	-1
355.076	1	4
355.418	1	-10
355.760	1	3
356.102	1	1
356.444	1	7
356.785	1	10
357.127	1	3
357.469	1	-7
357.811	1	8
358.153	1	1
358.495	1	7
358.837	1	4
359.179	1	3
359.521	1	-3
359.863	1	-8
360.205	1	-1
360.547	1	12
360.889	1	4
361.231	1	4
361.572	1	4
361.914	1	-3
362.256	1	11
362.598	1	4
362.940	1	-3
363.282	1	4
363.624	1	-1
363.966	1	5
364.308	1	-2
364.649	1	0
364.991	1	0
365.333	1	10
365.675	1	0
366.017	1	-2
366.359	1	-6
366.701	1	0
367.042	1	9
367.384	1	4
367.726	1	12
368.068	1	8
368.410	1	6
368.752	1	1
369.093	1	-1
369.435	1	-6
369.777	1	-3
370.119	1	4
370.461	1	-1
370.803	1	-5
371.144	1	1
371.486	1	4
371.828	1	-2
372.170	1	14
372.512	1	-11
372.853	1	7
373.195	1	-8
373.537	1	1
373.879	1	18
374.220	1	4
374.562	1	4
374.904	1	-3
375.246	1	0
375.588	1	-1
375.929	1	1
376.271	1	-5
376.613	1	12
376.955	1	-6
377.296	1	9
377.638	1	-11
377.980	1	6
378.321	1	6
378.663	1	-8
379.005	1	9
379.347	1	2
379.688	1	-6
380.030	1	-1
380.372	1	1
380.714	1	4
381.055	1	7
381.397	1	-8
381.739	1	6
382.080	1	0
382.422	1	11
382.764	1	1
383.105	1	1
383.447	1	0
383.789	1	-2
384.130	1	0
384.472	1	-12
384.814	1	-1
385.156	1	15
385.497	1	1
385.839	1	7
386.180	1	-8
386.522	1	2
386.864	1	-9
387.205	1	-4
387.547	1	-4
387.889	1	10
388.230	1	2
388.572	1	-4
388.914	1	5
389.255	1	7
389.597	1	-10
389.939	1	-5
390.280	1	4
390.622	1	-2
390.963	1	1
391.305	1	5
391.647	1	3
391.988	1	-7
392.330	1	9
392.671	1	10
393.013	1	3
393.355	1	5
393.696	1	-6
394.038	1	-9
394.379	1	-3
394.721	1	-3
395.062	1	-10
395.404	1	-1
395.746	1	-3
396.087	1	3
396.429	1	8
396.770	1	3
397.112	1	-13
397.453	1	-7
397.795	1	7
398.136	1	3
398.478	1	-3
398.819	1	2
399.161	1	7
399.503	1	4
399.844	1	10
400.186	1	2
400.527	1	6
400.869	1	13
401.210	1	-2
401.552	1	12
401.893	1	-2
402.235	1	10
402.576	1	25
402.918	1	-4
403.259	1	-6
403.601	1	-10
403.942	1	5
404.284	1	-7
404.625	1	5
404.967	1	7
405.308	1	-3
405.649	1	-7
405.991	1	7
406.332	1	2
406.674	1	2
407.015	1	-8
407.357	1	-3
407.698	1	-7
408.040	1	-6
408.381	1	9
408.722	1	-3
409.064	1	6
409.405	1	-4
409.747	1	2
410.088	1	-1
410.430	1	8
410.771	1	10
411.112	1	-1
411.454	1	21
411.795	1	5
412.137	1	10
412.478	1	-4
412.819	1	-10
413.161	1	-4
413.502	1	-4
413.844	1	0
414.185	1	2
414.526	1	0
414.868	1	3
415.209	1	9
415.550	1	-4
415.892	1	-3
416.233	1	1
416.575	1	-4
416.916	1	-6
417.257	1	5
417.599	1	0
417.940	1	1
418.281	1	-6
418.623	1	-1
418.964	1	6
419.305	1	-3
419.647	1	5
419.988	1	5
420.329	1	5
420.671	1	-3
421.012	1	8
421.353	1	3
421.695	1	8
422.036	1	-8
422.377	1	1
422.718	1	1
423.060	1	1
423.401	1	-1
423.742	1	1
424.084	1	3
424.425	1	4
424.766	1	12
425.107	1	-1
425.449	1	7
425.790	1	-3
426.131	1	2
426.472	1	-5
426.814	1	8
427.155	1	0
427.496	1	1
427.837	1	-4
428.179	1	-7
428.520	1	-10
428.861	1	-2
429.202	1	14
429.544	1	0
429.885	1	1
430.226	1	-3
430.567	1	7
430.909	1	-10
431.250	1	-12
431.591	1	5
431.932	1	1
432.273	1	1
432.615	1	5
432.956	1	0
433.297	1	8
433.638	1	-3
433.979	1	-3
434.320	1	-7
434.662	1	-2
435.003	1	12
435.344	1	1
435.685	1	6
436.026	1	15
436.368	1	-6
436.709	1	-7
437.050	1	3
437.391	1	4
437.732	1	3
438.073	1	4
438.414	1	-3
438.756	1	3
439.097	1	4
439.438	1	13
439.779	1	-2
440.120	1	3
440.461	1	-8
440.802	1	3
441.143	1	9
441.485	1	4
441.826	1	-14
442.167	1	-1
442.508	1	-4
442.849	1	3
443.190	1	-7
443.531	1	-6
443.872	1	1
444.213	1	-15
444.554	1	-7
444.895	1	1
445.237	1	-2
445.578	1	-3
445.919	1	4
446.260	1	8
446.601	1	0
446.942	1	3
447.283	1	6
447.624	1	7
447.965	1	-8
448.306	1	-4
448.647	1	4
448.988	1	-8
449.329	1	-1
449.670	1	11
450.011	1	-3
450.352	1	15
450.693	1	5
451.034	1	5
451.375	1	10
451.716	1	2
452.057	1	11
452.398	1	9
452.739	1	-4
453.080	1	10
453.421	1	-1
453.762	1	6
454.103	1	-5
454.444	1	12
454.785	1	-9
455.126	1	-3
455.467	1	6
455.808	1	-2
456.149	1	4
456.490	1	5
456.831	1	11
457.172	1	2
457.513	1	7
457.854	1	-3
458.195	1	-11
458.536	1	13
458.877	1	-3
459.218	1	0
459.559	1	0
459.899	1	7
460.240	1	-8
460.581	1	10
460.922	1	-9
461.263	1	6
461.604	1	-2
461.945	1	10
462.286	1	4
462.627	1	5
462.968	1	-10
463.309	1	2
463.649	1	0
463.990	1	-4
464.331	1	4
464.672	1	7
465.013	1	-5
465.354	1	8
465.695	1	0
466.036	1	1
466.376	1	-8
466.717	1	-5
467.058	1	15
467.399	1	-1
467.740	1	-5
468.081	1	1
468.422	1	1
468.762	1	-1
469.103	1	-15
469.444	1	-11
469.785	1	4
470.126	1	2
470.467	1	-14
470.807	1	2
471.148	1	1
471.489	1	2
471.830	1	-1
472.171	1	1
472.511	1	2
472.852	1	-3
473.193	1	-11
473.534	1	-2
473.875	1	8
474.215	1	-3
474.556	1	-9
474.897	1	-1
475.238	1	-2
475.578	1	3
475.919	1	2
476.260	1	-3
476.601	1	4
476.942	1	-5
477.282	1	-12
477.623	1	8
477.964	1	5
478.305	1	1
478.645	1	-13
478.986	1	0
479.327	1	0
479.667	1	-3
480.008	1	10
480.349	1	7
480.690	1	2
481.030	1	-12
481.371	1	3
481.712	1	8
482.053	1	8
482.393	1	-8
482.734	1	14
483.075	1	3
483.415	1	11
483.756	1	12
484.097	1	-7
484.437	1	-18
484.778	1	-5
485.119	1	5
485.459	1	7
485.800	1	1
486.141	1	-7
486.481	1	-5
486.822	1	1
487.163	1	-4
487.503	1	-11
487.844	1	-3
488.185	1	-4
488.525	1	-3
488.866	1	8
489.207	1	6
489.547	1	0
489.888	1	4
490.228	1	-5
490.569	1	4
490.910	1	-8
491.250	1	-8
491.591	1	-3
491.932	1	14
492.272	1	0
492.613	1	0
492.953	1	0
493.294	1	13
493.635	1	-5
493.975	1	-7
494.316	1	5
494.656	1	-5
494.997	1	-5
495.337	1	11
495.678	1	17
496.019	1	-9
496.359	1	-1
496.700	1	0
497.040	1	-2
497.381	1	-3
497.721	1	2
498.062	1	-6
498.403	1	13
498.743	1	3
499.084	1	-2
499.424	1	12
499.765	1	-4
500.105	1	7
500.446	1	5
500.786	1	0
501.127	1	13
501.467	1	-5
501.808	1	-11
502.148	1	7
502.489	1	2
502.829	1	0
503.170	1	3
503.510	1	4
503.851	1	-19
504.191	1	-1
504.532	1	-5
504.872	1	-8
505.213	1	2
505.553	1	3
505.894	1	3
506.234	1	14
506.575	1	0
506.915	1	-1
507.256	1	-5
507.596	1	10
507.936	1	8
508.277	1	-6
508.617	1	5
508.958	1	4
509.298	1	4
509.639	1	8
509.979	1	-4
510.319	1	-1
510.660	1	14
511.000	1	2
511.341	1	-4
511.681	1	1
512.022	1	-9
512.362	1	-3
512.702	1	-8
513.043	1	6
513.383	1	-6
513.724	1	3
514.064	1	4
514.404	1	3
514.745	1	-2
515.085	1	0
515.425	1	-4
515.766	1	6
516.106	1	-1
516.447	1	-8
516.787	1	0
517.127	1	6
517.468	1	-3
517.808	1	0
518.148	1	2
518.489	1	9
518.829	1	-8
519.169	1	9
519.510	1	3
519.850	1	-5
520.190	1	-4
520.531	1	-3
520.871	1	3
521.211	1	7
521.552	1	7
521.892	1	-6
522.232	1	-9
522.573	1	6
522.913	1	6
523.253	1	-5
523.593	1	-10
523.934	1	4
524.274	1	-8
524.614	1	0
524.955	1	-9
525.295	1	-2
525.635	1	11
525.975	1	-4
526.316	1	1
526.656	1	12
526.996	1	9
527.337	1	8
527.677	1	19
528.017	1	-3
528.357	1	9
528.698	1	-2
529.038	1	8
529.378	1	0
529.718	1	2
530.058	1	0
530.399	1	8
530.739	1	-13
531.079	1	9
531.419	1	10
531.760	1	11
532.100	1	12
532.440	1	-5
532.780	1	-8
533.120	1	-8
533.461	1	14
533.801	1	3
534.141	1	9
534.481	1	2
534.821	1	5
535.162	1	0
535.502	1	1
535.842	1	1
536.182	1	-5
536.522	1	14
536.862	1	8
537.203	1	0
537.543	1	-3
537.883	1	4
538.223	1	12
538.563	1	10
538.903	1	-1
539.243	1	-2
539.584	1	-3
539.924	1	5
540.264	1	5
540.604	1	5
540.944	1	-6
541.284	1	2
541.624	1	1
541.964	1	-3
542.305	1	-9
542.645	1	-4
542.985	1	-6
543.325	1	1
543.665	1	8
544.005	1	1
544.345	1	0
544.685	1	7
545.025	1	-8
545.365	1	-2
545.705	1	4
546.045	1	-1
546.386	1	2
546.726	1	-4
547.066	1	-10
547.406	1	9
547.746	1	2
548.086	1	2
548.426	1	-8
548.766	1	6
549.106	1	1
549.446	1	-2
549.786	1	-1
550.126	1	-3
550.466	1	2
550.806	1	8
551.146	1	-6
551.486	1	6
551.826	1	2
552.166	1	-4
552.506	1	-6
552.846	1	1
553.186	1	-4
553.526	1	-12
553.866	1	2
554.206	1	4
554.546	1	-7
554.886	1	-7
555.226	1	-8
555.566	1	8
555.906	1	12
556.246	1	-2
556.586	1	7
556.926	1	4
557.266	1	5
557.606	1	-6
557.946	1	6
558.286	1	-3
558.626	1	3
558.966	1	7
559.306	1	4
559.646	1	4
559.986	1	-5
560.325	1	-7
560.665	1	5
561.005	1	5
561.345	1	0
561.685	1	4
562.025	1	-6
562.365	1	2
562.705	1	4
563.045	1	6
563.385	1	-8
563.725	1	8
564.064	1	6
564.404	1	0
564.744	1	-1
565.084	1	-8
565.424	1	0
565.764	1	15
566.104	1	-2
566.444	1	13
566.783	1	1
567.123	1	12
567.463	1	2
567.803	1	-10
568.143	1	-7
568.483	1	-3
568.823	1	10
569.162	1	-3
569.502	1	-3
569.842	1	-6
570.182	1	-2
570.522	1	10
570.862	1	2
571.201	1	3
571.541	1	-6
571.881	1	6
572.221	1	0
572.561	1	-7
572.900	1	-1
573.240	1	2
573.580	1	4
573.920	1	-3
574.260	1	2
574.599	1	-8
574.939	1	-2
575.279	1	5
575.619	1	2
575.959	1	-16
576.298	1	-9
576.638	1	6
576.978	1	1
577.318	1	12
577.657	1	-14
577.997	1	-10
578.337	1	-8
578.677	1	4
579.016	1	8
579.356	1	-2
579.696	1	-7
580.036	1	0
580.375	1	2
580.715	1	5
581.055	1	11
581.394	1	-1
581.734	1	-2
582.074	1	-3
582.414	1	0
582.753	1	10
583.093	1	-6
583.433	1	-4
583.772	1	-2
584.112	1	11
584.452	1	-4
584.791	1	0
585.131	1	-10
585.471	1	0
585.811	1	-12
586.150	1	1
586.490	1	1
586.830	1	-5
587.169	1	1
587.509	1	-3
587.849	1	6
588.188	1	-5
588.528	1	4
588.867	1	1
589.207	1	-5
589.547	1	-5
589.886	1	3
590.226	1	7
590.566	1	0
590.905	1	5
591.245	1	4
591.585	1	0
591.924	1	4
592.264	1	1
592.603	1	-6
592.943	1	1
593.283	1	3
593.622	1	2
593.962	1	4
594.301	1	12
594.641	1	-4
594.981	1	-3
595.320	1	11
595.660	1	-1
595.999	1	6
596.339	1	6
596.678	1	-3
597.018	1	-4
597.358	1	4
597.697	1	-8
598.037	1	-5
598.376	1	-4
598.716	1	-3
599.055	1	2
599.395	1	13
599.734	1	-6
600.074	1	1
600.413	1	-6
600.753	1	-5
601.092	1	-14
601.432	1	0
601.771	1	9
602.111	1	-5
602.451	1	-4
602.790	1	-5
603.130	1	-3
603.469	1	1
603.809	1	5
604.148	1	-1
604.487	1	5
604.827	1	-2
605.166	1	-12
605.506	1	-10
605.845	1	-6
606.185	1	-1
606.524	1	-7
606.864	1	-6
607.203	1	7
607.543	1	-4
607.882	1	-10
608.222	1	1
608.561	1	7
608.901	1	17
609.240	1	4
609.579	1	0
609.919	1	-21
610.258	1	11
610.598	1	3
610.937	1	-3
611.277	1	-1
611.616	1	-8
611.955	1	4
612.295	1	1
612.634	1	-2
612.974	1	3
613.313	1	5
613.652	1	3
613.992	1	-6
614.331	1	-3
614.671	1	2
615.010	1	9
615.349	1	5
615.689	1	5
616.028	1	5
616.368	1	-3
616.707	1	-3
617.046	1	-2
617.386	1	3
617.725	1	7
618.064	1	-6
618.404	1	4
618.743	1	-6
619.082	1	4
619.422	1	7
619.761	1	0
620.100	1	8
620.440	1	-1
620.779	1	-5
621.118	1	2
621.458	1	3
621.797	1	-3
622.136	1	2
622.476	1	3
622.815	1	6
623.154	1	2
623.494	1	2
623.833	1	-5
624.172	1	4
624.511	1	-4
624.851	1	-7
625.190	1	-4
625.529	1	4
625.869	1	7
626.208	1	-10
626.547	1	3
626.886	1	-1
627.226	1	10
627.565	1	-1
627.904	1	-2
628.243	1	1
628.583	1	7
628.922	1	0
629.261	1	5
629.600	1	5
629.940	1	6
630.279	1	-11
630.618	1	-9
630.957	1	-1
631.297	1	-5
631.636	1	3
631.975	1	3
632.314	1	11
632.653	1	-10
632.993	1	5
633.332	1	6
633.671	1	-7
634.010	1	-9
634.349	1	4
634.689	1	2
635.028	1	-8
635.367	1	-1
635.706	1	-5
636.045	1	-5
636.384	1	8
636.724	1	5
637.063	1	1
637.402	1	-1
637.741	1	0
638.080	1	2
638.419	1	11
638.759	1	2
639.098	1	-3
639.437	1	-14
639.776	1	-6
640.115	1	-1
640.454	1	7
640.793	1	6
641.132	1	9
641.472	1	-15
641.811	1	6
642.150	1	-5
642.489	1	-3
642.828	1	2
643.167	1	4
643.506	1	-7
643.845	1	3
644.184	1	14
644.524	1	-14
644.863	1	1
645.202	1	-3
645.541	1	-15
645.880	1	-2
646.219	1	-1
646.558	1	10
646.897	1	4
647.236	1	4
647.575	1	12
647.914	1	-16
648.253	1	3
648.592	1	2
648.931	1	4
649.270	1	13
649.610	1	11
649.949	1	-4
650.288	1	-3
650.627	1	4
650.966	1	-7
651.305	1	-4
651.644	1	2
651.983	1	-4
652.322	1	5
652.661	1	1
653.000	1	-4
653.339	1	-2
653.678	1	4
654.017	1	-5
654.356	1	-8
654.695	1	2
655.034	1	-7
655.373	1	4
655.712	1	-9
656.051	1	6
656.390	1	-3
656.729	1	4
657.068	1	-5
657.406	1	15
657.745	1	-3
658.084	1	5
658.423	1	-9
658.762	1	-9
659.101	1	-3
659.440	1	-3
659.779	1	-6
660.118	1	2
660.457	1	6
660.796	1	-1
661.135	1	-6
661.474	1	-2
661.813	1	-8
662.152	1	-7
662.491	1	1
662.829	1	3
663.168	1	-2
663.507	1	-8
663.846	1	5
664.185	1	-7
664.524	1	-7
664.863	1	-2
665.202	1	-9
665.541	1	3
665.879	1	2
666.218	1	-16
666.557	1	4
666.896	1	-9
667.235	1	-5
667.574	1	-2
667.913	1	-4
668.251	1	6
668.590	1	-10
668.929	1	1
669.268	1	-2
669.607	1	-16
669.946	1	8
670.285	1	6
670.623	1	2
670.962	1	-4
671.301	1	0
671.640	1	-10
671.979	1	3
672.317	1	-2
672.656	1	1
672.995	1	2
673.334	1	9
673.673	1	10
674.011	1	-1
674.350	1	0
674.689	1	-13
675.028	1	-4
675.367	1	3
675.705	1	-6
676.044	1	-6
676.383	1	-5
676.722	1	-5
677.060	1	8
677.399	1	-1
677.738	1	-2
678.077	1	1
678.416	1	-3
678.754	1	-5
679.093	1	-2
679.432	1	-11
679.771	1	4
680.109	1	-4
680.448	1	1
680.787	1	-5
681.125	1	1
681.464	1	-3
681.803	1	-10
682.142	1	10
682.480	1	-5
682.819	1	-1
683.158	1	0
683.496	1	3
683.835	1	3
684.174	1	0
684.512	1	14
684.851	1	-6
685.190	1	0
685.529	1	8
685.867	1	1
686.206	1	3
686.545	1	4
686.883	1	-5
687.222	1	-1
687.561	1	0
687.899	1	-5
688.238	1	0
688.577	1	3
688.746	1	2