File: Analysis/GaN_68K_200ms/GaN_sample E_spot4_UVVIS_68 K_200um_200 ms 2x2mm1_1.txt
340.368	1	-3
340.710	1	-11
341.052	1	5
341.394	1	-3
341.737	1	4
342.079	1	-3
342.421	1	3
342.763	1	0
343.105	1	14
343.447	1	2
343.789	1	3
344.131	1	3
344.473	1	0
344.815	1	10
345.157	1	3
345.499	1	7
345.841	1	3
346.183	1	2
346.526	1	7
346.868	1	0
347.210	1	-10
347.552	1	4
347.894	1	-2
348.236	1	-3
348.578	1	3
348.920	1	6
349.262	1	1
349.604	1	7
349.946	1	5
350.288	1	-1
350.630	1	-7
350.972	1	0
351.314	1	-8
351.656	1	-4
351.998	1	2
352.340	1	0
352.682	1	-3
353.024	1	-10
353.366	1	6
353.708	1	11
354.050	1	7
354.392	1	3
354.734	1	-15
355.076	1	-3
355.418	1	0
355.760	1	6
356.102	1	-9
356.444	1	10
356.785	1	13
357.127	1	4
357.469	1	5
357.811	1	12
358.153	1	2
358.495	1	7
358.837	1	-2
359.179	1	2
359.521	1	2
359.863	1	-5
360.205	1	-2
360.547	1	-3
360.889	1	4
361.231	1	-2
361.572	1	-4
361.914	1	4
362.256	1	1
362.598	1	8
362.940	1	0
363.282	1	-8
363.624	1	-2
363.966	1	5
364.308	1	-3
364.649	1	-8
364.991	1	2
365.333	1	8
365.675	1	-1
366.017	1	-2
366.359	1	5
366.701	1	-9
367.042	1	6
367.384	1	2
367.726	1	0
368.068	1	-5
368.410	1	-5
368.752	1	-3
369.093	1	2
369.435	1	-3
369.777	1	-7
370.119	1	5
370.461	1	0
370.803	1	-5
371.144	1	2
371.486	1	7
371.828	1	3
372.170	1	4
372.512	1	0
372.853	1	4
373.195	1	-17
373.537	1	-1
373.879	1	11
374.220	1	-7
374.562	1	-11
374.904	1	-1
375.246	1	-4
375.588	1	-1
375.929	1	-1
376.271	1	-3
376.613	1	-3
376.955	1	-5
377.296	1	5
377.638	1	3
377.980	1	-6
378.321	1	4
378.663	1	-3
379.005	1	13
379.347	1	4
379.688	1	-3
380.030	1	-4
380.372	1	8
380.714	1	5
381.055	1	3
381.397	1	-3
381.739	1	5
382.080	1	-7
382.422	1	12
382.764	1	-3
383.105	1	-1
383.447	1	17
383.789	1	-2
384.130	1	-8
384.472	1	-13
384.814	1	6
385.156	1	7
385.497	1	9
385.839	1	5
386.180	1	7
386.522	1	-2
386.864	1	1
387.205	1	-5
387.547	1	-11
387.889	1	-3
388.230	1	-6
388.572	1	2
388.914	1	12
389.255	1	-3
389.597	1	-9
389.939	1	1
390.280	1	7
390.622	1	-10
390.963	1	4
391.305	1	2
391.647	1	0
391.988	1	-1
392.330	1	8
392.671	1	8
393.013	1	6
393.355	1	11
393.696	1	-1
394.038	1	-1
394.379	1	-3
394.721	1	-4
395.062	1	-1
395.404	1	6
395.746	1	-6
396.087	1	2
396.429	1	1
396.770	1	4
397.112	1	-2
397.453	1	4
397.795	1	-2
398.136	1	9
398.478	1	6
398.819	1	1
399.161	1	2
399.503	1	0
399.844	1	-3
400.186	1	9
400.527	1	-3
400.869	1	6
401.210	1	-2
401.552	1	10
401.893	1	2
402.235	1	7
402.576	1	7
402.918	1	-10
403.259	1	0
403.601	1	1
403.942	1	0
404.284	1	-1
404.625	1	1
404.967	1	-5
405.308	1	-7
405.649	1	-1
405.991	1	13
406.332	1	-10
406.674	1	-2
407.015	1	-5
407.357	1	1
407.698	1	-4
408.040	1	-7
408.381	1	-7
408.722	1	-4
409.064	1	0
409.405	1	5
409.747	1	-8
410.088	1	-5
410.430	1	0
410.771	1	7
411.112	1	3
411.454	1	7
411.795	1	1
412.137	1	4
412.478	1	0
412.819	1	-8
413.161	1	-6
413.502	1	-10
413.844	1	-2
414.185	1	-1
414.526	1	1
414.868	1	8
415.209	1	-1
415.550	1	-4
415.892	1	-6
416.233	1	6
416.575	1	2
416.916	1	-9
417.257	1	3
417.599	1	-4
417.940	1	-2
418.281	1	-12
418.623	1	-3
418.964	1	0
419.305	1	-1
419.647	1	7
419.988	1	0
420.329	1	2
420.671	1	0
421.012	1	7
421.353	1	8
421.695	1	1
422.036	1	-10
422.377	1	2
422.718	1	8
423.060	1	4
423.401	1	3
423.742	1	2
424.084	1	6
424.425	1	-4
424.766	1	4
425.107	1	-7
425.449	1	7
425.790	1	3
426.131	1	-1
426.472	1	-6
426.814	1	-1
427.155	1	-4
427.496	1	5
427.837	1	-4
428.179	1	-4
428.520	1	-14
428.861	1	2
429.202	1	6
429.544	1	5
429.885	1	-3
430.226	1	-5
430.567	1	8
430.909	1	-10
431.250	1	-7
431.591	1	5
431.932	1	-1
432.273	1	5
432.615	1	1
432.956	1	-8
433.297	1	6
433.638	1	0
433.979	1	-11
434.320	1	3
434.662	1	-4
435.003	1	3
435.344	1	-4
435.685	1	4
436.026	1	-2
436.368	1	1
436.709	1	-2
437.050	1	-2
437.391	1	0
437.732	1	-5
438.073	1	1
438.414	1	5
438.756	1	4
439.097	1	2
439.438	1	9
439.779	1	-6
440.120	1	6
440.461	1	-9
440.802	1	3
441.143	1	11
441.485	1	-1
441.826	1	-11
442.167	1	7
442.508	1	-1
442.849	1	1
443.190	1	-8
443.531	1	2
443.872	1	-3
444.213	1	-1
444.554	1	-4
444.895	1	-8
445.237	1	-1
445.578	1	13
445.919	1	-1
446.260	1	-2
446.601	1	-5
446.942	1	5
447.283	1	3
447.624	1	4
447.965	1	-11
448.306	1	-4
448.647	1	2
448.988	1	-9
449.329	1	2
449.670	1	6
450.011	1	-3
450.352	1	3
450.693	1	-2
451.034	1	6
451.375	1	2
451.716	1	7
452.057	1	10
452.398	1	1
452.739	1	4
453.080	1	8
453.421	1	4
453.762	1	5
454.103	1	-9
454.444	1	12
454.785	1	-5
455.126	1	3
455.467	1	3
455.808	1	1
456.149	1	-3
456.490	1	-3
456.831	1	8
457.172	1	-5
457.513	1	13
457.854	1	0
458.195	1	4
458.536	1	5
458.877	1	2
459.218	1	4
459.559	1	0
459.899	1	6
460.240	1	-3
460.581	1	10
460.922	1	11
461.263	1	4
461.604	1	0
461.945	1	2
462.286	1	2
462.627	1	-8
462.968	1	-7
463.309	1	6
463.649	1	-4
463.990	1	-1
464.331	1	6
464.672	1	-1
465.013	1	-5
465.354	1	2
465.695	1	7
466.036	1	3
466.376	1	-3
466.717	1	-9
467.058	1	5
467.399	1	1
467.740	1	-1
468.081	1	6
468.422	1	-3
468.762	1	-7
469.103	1	-7
469.444	1	-3
469.785	1	3
470.126	1	9
470.467	1	-4
470.807	1	5
471.148	1	-8
471.489	1	-11
471.830	1	13
472.171	1	0
472.511	1	18
472.852	1	-2
473.193	1	2
473.534	1	-8
473.875	1	9
474.215	1	-6
474.556	1	-4
474.897	1	4
475.238	1	-6
475.578	1	4
475.919	1	0
476.260	1	-3
476.601	1	-1
476.942	1	-5
477.282	1	-2
477.623	1	10
477.964	1	10
478.305	1	-1
478.645	1	-4
478.986	1	-11
479.327	1	-5
479.667	1	1
480.008	1	7
480.349	1	-1
480.690	1	-3
481.030	1	-10
481.371	1	-1
481.712	1	2
482.053	1	5
482.393	1	-6
482.734	1	4
483.075	1	6
483.415	1	15
483.756	1	2
484.097	1	-9
484.437	1	2
484.778	1	-3
485.119	1	0
485.459	1	-1
485.800	1	3
486.141	1	2
486.481	1	0
486.822	1	7
487.163	1	-9
487.503	1	-16
487.844	1	-2
488.185	1	-2
488.525	1	4
488.866	1	10
489.207	1	8
489.547	1	-9
489.888	1	4
490.228	1	-7
490.569	1	7
490.910	1	-4
491.250	1	-3
491.591	1	-13
491.932	1	7
492.272	1	5
492.613	1	3
492.953	1	3
493.294	1	6
493.635	1	1
493.975	1	5
494.316	1	8
494.656	1	-4
494.997	1	-2
495.337	1	2
495.678	1	2
496.019	1	-5
496.359	1	3
496.700	1	-3
497.040	1	0
497.381	1	-18
497.721	1	-8
498.062	1	-9
498.403	1	4
498.743	1	0
499.084	1	-6
499.424	1	8
499.765	1	1
500.105	1	2
500.446	1	13
500.786	1	4
501.127	1	8
501.467	1	1
501.808	1	-13
502.148	1	8
502.489	1	6
502.829	1	1
503.170	1	3
503.510	1	2
503.851	1	-8
504.191	1	-1
504.532	1	1
504.872	1	-7
505.213	1	5
505.553	1	-1
505.894	1	1
506.234	1	5
506.575	1	8
506.915	1	2
507.256	1	-7
507.596	1	0
507.936	1	-4
508.277	1	6
508.617	1	11
508.958	1	13
509.298	1	1
509.639	1	5
509.979	1	4
510.319	1	-7
510.660	1	1
511.000	1	4
511.341	1	-7
511.681	1	4
512.022	1	-3
512.362	1	2
512.702	1	-15
513.043	1	4
513.383	1	-3
513.724	1	4
514.064	1	-2
514.404	1	0
514.745	1	4
515.085	1	-1
515.425	1	-1
515.766	1	0
516.106	1	-8
516.447	1	-3
516.787	1	-7
517.127	1	2
517.468	1	-7
517.808	1	-5
518.148	1	-1
518.489	1	-3
518.829	1	-11
519.169	1	0
519.510	1	1
519.850	1	-10
520.190	1	1
520.531	1	10
520.871	1	-3
521.211	1	7
521.552	1	-1
521.892	1	-4
522.232	1	0
522.573	1	2
522.913	1	1
523.253	1	10
523.593	1	-17
523.934	1	2
524.274	1	-6
524.614	1	1
524.955	1	0
525.295	1	-9
525.635	1	13
525.975	1	-7
526.316	1	-1
526.656	1	14
526.996	1	13
527.337	1	-6
527.677	1	11
528.017	1	-4
528.357	1	10
528.698	1	1
529.038	1	9
529.378	1	1
529.718	1	4
530.058	1	0
530.399	1	3
530.739	1	4
531.079	1	-2
531.419	1	4
531.760	1	5
532.100	1	4
532.440	1	5
532.780	1	-2
533.120	1	-9
533.461	1	15
533.801	1	6
534.141	1	9
534.481	1	-5
534.821	1	0
535.162	1	4
535.502	1	0
535.842	1	5
536.182	1	-4
536.522	1	2
536.862	1	6
537.203	1	4
537.543	1	1
537.883	1	1
538.223	1	-1
538.563	1	3
538.903	1	-4
539.243	1	-9
539.584	1	5
539.924	1	0
540.264	1	4
540.604	1	-5
540.944	1	0
541.284	1	-7
541.624	1	-1
541.964	1	2
542.305	1	-4
542.645	1	1
542.985	1	-9
543.325	1	0
543.665	1	1
544.005	1	5
544.345	1	-16
544.685	1	4
545.025	1	-6
545.365	1	5
545.705	1	15
546.045	1	3
546.386	1	-4
546.726	1	-7
547.066	1	-5
547.406	1	5
547.746	1	10
548.086	1	-5
548.426	1	-4
548.766	1	3
549.106	1	1
549.446	1	1
549.786	1	4
550.126	1	-1
550.466	1	-3
550.806	1	3
551.146	1	-14
551.486	1	-4
551.826	1	3
552.166	1	-5
552.506	1	-10
552.846	1	9
553.186	1	-6
553.526	1	-6
553.866	1	-1
554.206	1	-1
554.546	1	-12
554.886	1	7
555.226	1	1
555.566	1	4
555.906	1	-5
556.246	1	-5
556.586	1	10
556.926	1	6
557.266	1	4
557.606	1	-6
557.946	1	8
558.286	1	2
558.626	1	-1
558.966	1	2
559.306	1	-5
559.646	1	-9
559.986	1	5
560.325	1	-16
560.665	1	0
561.005	1	4
561.345	1	-7
561.685	1	-5
562.025	1	-14
562.365	1	1
562.705	1	-8
563.045	1	8
563.385	1	1
563.725	1	-5
564.064	1	6
564.404	1	-2
564.744	1	5
565.084	1	-7
565.424	1	-1
565.764	1	8
566.104	1	-8
566.444	1	0
566.783	1	2
567.123	1	13
567.463	1	-8
567.803	1	-5
568.143	1	-13
568.483	1	-5
568.823	1	8
569.162	1	2
569.502	1	5
569.842	1	0
570.182	1	-10
570.522	1	8
570.862	1	9
571.201	1	0
571.541	1	-1
571.881	1	-3
572.221	1	2
572.561	1	-3
572.900	1	4
573.240	1	-6
573.580	1	-2
573.920	1	0
574.260	1	-6
574.599	1	-7
574.939	1	0
575.279	1	5
575.619	1	-1
575.959	1	-5
576.298	1	-4
576.638	1	0
576.978	1	0
577.318	1	5
577.657	1	-17
577.997	1	2
578.337	1	-11
578.677	1	0
579.016	1	7
579.356	1	1
579.696	1	12
580.036	1	-3
580.375	1	-1
580.715	1	9
581.055	1	4
581.394	1	-5
581.734	1	4
582.074	1	-9
582.414	1	6
582.753	1	3
583.093	1	0
583.433	1	-1
583.772	1	-1
584.112	1	-2
584.452	1	-1
584.791	1	-3
585.131	1	-15
585.471	1	-8
585.811	1	0
586.150	1	0
586.490	1	-5
586.830	1	0
587.169	1	0
587.509	1	8
587.849	1	4
588.188	1	-3
588.528	1	5
588.867	1	6
589.207	1	0
589.547	1	-9
589.886	1	-14
590.226	1	5
590.566	1	-2
590.905	1	4
591.245	1	-2
591.585	1	-8
591.924	1	0
592.264	1	-7
592.603	1	-14
592.943	1	3
593.283	1	-6
593.622	1	-7
593.962	1	6
594.301	1	7
594.641	1	1
594.981	1	-7
595.320	1	12
595.660	1	-2
595.999	1	-3
596.339	1	5
596.678	1	-7
597.018	1	1
597.358	1	2
597.697	1	9
598.037	1	2
598.376	1	9
598.716	1	-10
599.055	1	0
599.395	1	-2
599.734	1	1
600.074	1	-11
600.413	1	-8
600.753	1	10
601.092	1	-14
601.432	1	0
601.771	1	3
602.111	1	-2
602.451	1	-1
602.790	1	2
603.130	1	4
603.469	1	1
603.809	1	0
604.148	1	8
604.487	1	2
604.827	1	-4
605.166	1	-12
605.506	1	0
605.845	1	2
606.185	1	0
606.524	1	-12
606.864	1	0
607.203	1	12
607.543	1	0
607.882	1	-7
608.222	1	-1
608.561	1	4
608.901	1	-2
609.240	1	0
609.579	1	1
609.919	1	-8
610.258	1	13
610.598	1	9
610.937	1	10
611.277	1	6
611.616	1	-8
611.955	1	-1
612.295	1	-5
612.634	1	-5
612.974	1	-2
613.313	1	5
613.652	1	-16
613.992	1	11
614.331	1	-5
614.671	1	-2
615.010	1	-3
615.349	1	3
615.689	1	6
616.028	1	-5
616.368	1	-6
616.707	1	-4
617.046	1	2
617.386	1	5
617.725	1	3
618.064	1	-2
618.404	1	7
618.743	1	-6
619.082	1	3
619.422	1	-6
619.761	1	4
620.100	1	1
620.440	1	-6
620.779	1	-6
621.118	1	0
621.458	1	-4
621.797	1	7
622.136	1	2
622.476	1	3
622.815	1	0
623.154	1	5
623.494	1	0
623.833	1	2
624.172	1	15
624.511	1	-1
624.851	1	-4
625.190	1	4
625.529	1	2
625.869	1	2
626.208	1	-8
626.547	1	1
626.886	1	-9
627.226	1	-2
627.565	1	4
627.904	1	2
628.243	1	-7
628.583	1	4
628.922	1	-4
629.261	1	5
629.600	1	6
629.940	1	9
630.279	1	-6
630.618	1	0
630.957	1	-4
631.297	1	-4
631.636	1	-6
631.975	1	4
632.314	1	12
632.653	1	-17
632.993	1	7
633.332	1	2
633.671	1	7
634.010	1	-1
634.349	1	4
634.689	1	6
635.028	1	3
635.367	1	-3
635.706	1	-1
636.045	1	4
636.384	1	3
636.724	1	0
637.063	1	0
637.402	1	14
637.741	1	4
638.080	1	-2
638.419	1	0
638.759	1	2
639.098	1	4
639.437	1	-5
639.776	1	-1
640.115	1	-5
640.454	1	11
640.793	1	6
641.132	1	9
641.472	1	-7
641.811	1	2
642.150	1	-2
642.489	1	-6
642.828	1	-1
643.167	1	14
643.506	1	-5
643.845	1	-2
644.184	1	4
644.524	1	1
644.863	1	-13
645.202	1	-4
645.541	1	-7
645.880	1	3
646.219	1	6
646.558	1	-4
646.897	1	2
647.236	1	5
647.575	1	-3
647.914	1	-3
648.253	1	-4
648.592	1	5
648.931	1	8
649.270	1	11
649.610	1	11
649.949	1	-2
650.288	1	-3
650.627	1	-4
650.966	1	2
651.305	1	0
651.644	1	-6
651.983	1	0
652.322	1	9
652.661	1	3
653.000	1	6
653.339	1	14
653.678	1	3
654.017	1	-1
654.356	1	16
654.695	1	2
655.034	1	7
655.373	1	-1
655.712	1	1
656.051	1	7
656.390	1	-1
656.729	1	5
657.068	1	-2
657.406	1	6
657.745	1	-11
658.084	1	7
658.423	1	-7
658.762	1	0
659.101	1	-8
659.440	1	4
659.779	1	-11
660.118	1	-6
660.457	1	-1
660.796	1	-2
661.135	1	-4
661.474	1	7
661.813	1	-9
662.152	1	1
662.491	1	2
662.829	1	-7
663.168	1	-10
663.507	1	9
663.846	1	8
664.185	1	7
664.524	1	-6
664.863	1	2
665.202	1	-6
665.541	1	-7
665.879	1	-1
666.218	1	-12
666.557	1	2
666.896	1	-11
667.235	1	0
667.574	1	-2
667.913	1	4
668.251	1	-3
668.590	1	-6
668.929	1	8
669.268	1	-5
669.607	1	-14
669.946	1	-1
670.285	1	7
670.623	1	5
670.962	1	-5
671.301	1	-9
671.640	1	-14
671.979	1	11
672.317	1	4
672.656	1	-1
672.995	1	-4
673.334	1	5
673.673	1	20
674.011	1	3
674.350	1	-3
674.689	1	-5
675.028	1	-3
675.367	1	-5
675.705	1	-6
676.044	1	-9
676.383	1	-7
676.722	1	-1
677.060	1	-3
677.399	1	2
677.738	1	-2
678.077	1	7
678.416	1	1
678.754	1	5
679.093	1	-1
679.432	1	-12
679.771	1	-7
680.109	1	5
680.448	1	6
680.787	1	7
681.125	1	1
681.464	1	-6
681.803	1	-10
682.142	1	14
682.480	1	2
682.819	1	5
683.158	1	-4
683.496	1	-3
683.835	1	6
684.174	1	0
684.512	1	-8
684.851	1	-1
685.190	1	5
685.529	1	0
685.867	1	0
686.206	1	8
686.545	1	3
686.883	1	-2
687.222	1	-2
687.561	1	-2
687.899	1	-5
688.238	1	-8
688.577	1	-4
688.746	1	4