File: Analysis/GaN_68K_200ms/GaN_sample E_spot4_UVVIS_68 K_200um_200 ms 2x2mm1_320.txt
340.368	1	-6
340.710	1	1
341.052	1	8
341.394	1	-3
341.737	1	-1
342.079	1	-4
342.421	1	2
342.763	1	-4
343.105	1	8
343.447	1	2
343.789	1	0
344.131	1	-4
344.473	1	1
344.815	1	16
345.157	1	3
345.499	1	7
345.841	1	2
346.183	1	7
346.526	1	4
346.868	1	7
347.210	1	-5
347.552	1	0
347.894	1	0
348.236	1	3
348.578	1	0
348.920	1	4
349.262	1	0
349.604	1	15
349.946	1	2
350.288	1	3
350.630	1	-7
350.972	1	13
351.314	1	0
351.656	1	9
351.998	1	2
352.340	1	1
352.682	1	-2
353.024	1	-2
353.366	1	9
353.708	1	-2
354.050	1	10
354.392	1	12
354.734	1	1
355.076	1	-6
355.418	1	-3
355.760	1	15
356.102	1	-3
356.444	1	12
356.785	1	20
357.127	1	3
357.469	1	4
357.811	1	8
358.153	1	2
358.495	1	11
358.837	1	5
359.179	1	4
359.521	1	2
359.863	1	-6
360.205	1	1
360.547	1	15
360.889	1	-1
361.231	1	6
361.572	1	-1
361.914	1	2
362.256	1	4
362.598	1	4
362.940	1	1
363.282	1	-3
363.624	1	1
363.966	1	5
364.308	1	0
364.649	1	2
364.991	1	3
365.333	1	13
365.675	1	-5
366.017	1	9
366.359	1	6
366.701	1	-6
367.042	1	7
367.384	1	12
367.726	1	3
368.068	1	-1
368.410	1	4
368.752	1	-6
369.093	1	10
369.435	1	10
369.777	1	-3
370.119	1	13
370.461	1	7
370.803	1	0
371.144	1	13
371.486	1	6
371.828	1	5
372.170	1	11
372.512	1	-7
372.853	1	0
373.195	1	-6
373.537	1	5
373.879	1	5
374.220	1	12
374.562	1	-4
374.904	1	13
375.246	1	4
375.588	1	1
375.929	1	16
376.271	1	-5
376.613	1	9
376.955	1	-8
377.296	1	10
377.638	1	-3
377.980	1	9
378.321	1	13
378.663	1	-3
379.005	1	11
379.347	1	0
379.688	1	3
380.030	1	-5
380.372	1	4
380.714	1	9
381.055	1	2
381.397	1	-7
381.739	1	2
382.080	1	-8
382.422	1	19
382.764	1	3
383.105	1	-6
383.447	1	9
383.789	1	0
384.130	1	3
384.472	1	-7
384.814	1	14
385.156	1	18
385.497	1	8
385.839	1	16
386.180	1	15
386.522	1	14
386.864	1	0
387.205	1	8
387.547	1	5
387.889	1	10
388.230	1	2
388.572	1	6
388.914	1	12
389.255	1	4
389.597	1	3
389.939	1	19
390.280	1	21
390.622	1	1
390.963	1	7
391.305	1	11
391.647	1	4
391.988	1	0
392.330	1	9
392.671	1	13
393.013	1	8
393.355	1	13
393.696	1	5
394.038	1	3
394.379	1	-6
394.721	1	11
395.062	1	-8
395.404	1	17
395.746	1	2
396.087	1	13
396.429	1	7
396.770	1	8
397.112	1	5
397.453	1	-1
397.795	1	11
398.136	1	9
398.478	1	5
398.819	1	8
399.161	1	7
399.503	1	11
399.844	1	5
400.186	1	18
400.527	1	3
400.869	1	15
401.210	1	5
401.552	1	13
401.893	1	9
402.235	1	12
402.576	1	18
402.918	1	8
403.259	1	-1
403.601	1	-7
403.942	1	14
404.284	1	13
404.625	1	10
404.967	1	14
405.308	1	12
405.649	1	5
405.991	1	7
406.332	1	-4
406.674	1	11
407.015	1	1
407.357	1	15
407.698	1	-1
408.040	1	-4
408.381	1	10
408.722	1	6
409.064	1	7
409.405	1	-5
409.747	1	5
410.088	1	6
410.430	1	18
410.771	1	6
411.112	1	5
411.454	1	14
411.795	1	8
412.137	1	19
412.478	1	3
412.819	1	2
413.161	1	9
413.502	1	10
413.844	1	2
414.185	1	5
414.526	1	4
414.868	1	9
415.209	1	8
415.550	1	-3
415.892	1	-7
416.233	1	4
416.575	1	4
416.916	1	-2
417.257	1	8
417.599	1	8
417.940	1	-1
418.281	1	9
418.623	1	2
418.964	1	14
419.305	1	0
419.647	1	6
419.988	1	-2
420.329	1	4
420.671	1	9
421.012	1	14
421.353	1	15
421.695	1	5
422.036	1	10
422.377	1	6
422.718	1	1
423.060	1	-4
423.401	1	4
423.742	1	6
424.084	1	10
424.425	1	0
424.766	1	7
425.107	1	-3
425.449	1	0
425.790	1	-1
426.131	1	1
426.472	1	-11
426.814	1	15
427.155	1	0
427.496	1	13
427.837	1	-4
428.179	1	3
428.520	1	-4
428.861	1	5
429.202	1	13
429.544	1	6
429.885	1	-2
430.226	1	-2
430.567	1	9
430.909	1	-5
431.250	1	-1
431.591	1	5
431.932	1	9
432.273	1	0
432.615	1	4
432.956	1	1
433.297	1	12
433.638	1	0
433.979	1	2
434.320	1	4
434.662	1	6
435.003	1	11
435.344	1	13
435.685	1	1
436.026	1	1
436.368	1	5
436.709	1	-3
437.050	1	4
437.391	1	9
437.732	1	12
438.073	1	15
438.414	1	2
438.756	1	-3
439.097	1	10
439.438	1	11
439.779	1	4
440.120	1	11
440.461	1	-3
440.802	1	-1
441.143	1	1
441.485	1	10
441.826	1	-1
442.167	1	8
442.508	1	-1
442.849	1	5
443.190	1	0
443.531	1	1
443.872	1	0
444.213	1	-2
444.554	1	-8
444.895	1	-4
445.237	1	5
445.578	1	17
445.919	1	-3
446.260	1	0
446.601	1	3
446.942	1	0
447.283	1	7
447.624	1	8
447.965	1	-2
448.306	1	2
448.647	1	13
448.988	1	-11
449.329	1	5
449.670	1	8
450.011	1	9
450.352	1	8
450.693	1	17
451.034	1	4
451.375	1	7
451.716	1	6
452.057	1	3
452.398	1	-1
452.739	1	5
453.080	1	14
453.421	1	10
453.762	1	9
454.103	1	-7
454.444	1	9
454.785	1	-1
455.126	1	14
455.467	1	7
455.808	1	3
456.149	1	0
456.490	1	10
456.831	1	15
457.172	1	-1
457.513	1	5
457.854	1	-2
458.195	1	-3
458.536	1	9
458.877	1	4
459.218	1	15
459.559	1	4
459.899	1	11
460.240	1	7
460.581	1	6
460.922	1	1
461.263	1	7
461.604	1	4
461.945	1	5
462.286	1	13
462.627	1	-5
462.968	1	-4
463.309	1	5
463.649	1	0
463.990	1	7
464.331	1	-3
464.672	1	-4
465.013	1	-6
465.354	1	9
465.695	1	23
466.036	1	6
466.376	1	2
466.717	1	-1
467.058	1	11
467.399	1	10
467.740	1	2
468.081	1	6
468.422	1	2
468.762	1	-1
469.103	1	-2
469.444	1	2
469.785	1	9
470.126	1	8
470.467	1	-8
470.807	1	-7
471.148	1	-3
471.489	1	-1
471.830	1	11
472.171	1	8
472.511	1	14
472.852	1	2
473.193	1	-2
473.534	1	3
473.875	1	6
474.215	1	7
474.556	1	-6
474.897	1	9
475.238	1	2
475.578	1	5
475.919	1	-1
476.260	1	6
476.601	1	5
476.942	1	0
477.282	1	-2
477.623	1	5
477.964	1	9
478.305	1	5
478.645	1	0
478.986	1	-8
479.327	1	-7
479.667	1	11
480.008	1	4
480.349	1	7
480.690	1	7
481.030	1	-6
481.371	1	3
481.712	1	-2
482.053	1	11
482.393	1	-8
482.734	1	10
483.075	1	1
483.415	1	10
483.756	1	1
484.097	1	1
484.437	1	-1
484.778	1	10
485.119	1	6
485.459	1	10
485.800	1	1
486.141	1	-16
486.481	1	-2
486.822	1	3
487.163	1	-11
487.503	1	-14
487.844	1	9
488.185	1	-9
488.525	1	2
488.866	1	11
489.207	1	7
489.547	1	-14
489.888	1	1
490.228	1	-5
490.569	1	6
490.910	1	-2
491.250	1	1
491.591	1	-6
491.932	1	3
492.272	1	14
492.613	1	-4
492.953	1	4
493.294	1	13
493.635	1	5
493.975	1	10
494.316	1	20
494.656	1	1
494.997	1	-4
495.337	1	2
495.678	1	23
496.019	1	9
496.359	1	0
496.700	1	1
497.040	1	-2
497.381	1	-9
497.721	1	-13
498.062	1	0
498.403	1	8
498.743	1	7
499.084	1	-13
499.424	1	22
499.765	1	0
500.105	1	6
500.446	1	12
500.786	1	9
501.127	1	15
501.467	1	7
501.808	1	-4
502.148	1	10
502.489	1	6
502.829	1	6
503.170	1	3
503.510	1	2
503.851	1	-16
504.191	1	10
504.532	1	-2
504.872	1	-2
505.213	1	-6
505.553	1	5
505.894	1	12
506.234	1	16
506.575	1	-5
506.915	1	-1
507.256	1	-9
507.596	1	0
507.936	1	12
508.277	1	1
508.617	1	13
508.958	1	11
509.298	1	20
509.639	1	12
509.979	1	0
510.319	1	-2
510.660	1	7
511.000	1	9
511.341	1	1
511.681	1	-1
512.022	1	-2
512.362	1	8
512.702	1	-7
513.043	1	8
513.383	1	-3
513.724	1	7
514.064	1	10
514.404	1	5
514.745	1	8
515.085	1	7
515.425	1	-5
515.766	1	9
516.106	1	2
516.447	1	3
516.787	1	1
517.127	1	8
517.468	1	2
517.808	1	2
518.148	1	-2
518.489	1	9
518.829	1	-8
519.169	1	8
519.510	1	7
519.850	1	-2
520.190	1	3
520.531	1	1
520.871	1	-4
521.211	1	9
521.552	1	4
521.892	1	5
522.232	1	2
522.573	1	7
522.913	1	4
523.253	1	0
523.593	1	-9
523.934	1	11
524.274	1	-4
524.614	1	-1
524.955	1	4
525.295	1	-2
525.635	1	13
525.975	1	-1
526.316	1	4
526.656	1	23
526.996	1	20
527.337	1	0
527.677	1	16
528.017	1	-11
528.357	1	12
528.698	1	4
529.038	1	10
529.378	1	5
529.718	1	5
530.058	1	5
530.399	1	12
530.739	1	6
531.079	1	2
531.419	1	17
531.760	1	5
532.100	1	9
532.440	1	4
532.780	1	-3
533.120	1	2
533.461	1	15
533.801	1	3
534.141	1	11
534.481	1	8
534.821	1	8
535.162	1	3
535.502	1	6
535.842	1	11
536.182	1	13
536.522	1	12
536.862	1	8
537.203	1	11
537.543	1	11
537.883	1	11
538.223	1	15
538.563	1	0
538.903	1	-3
539.243	1	5
539.584	1	9
539.924	1	11
540.264	1	13
540.604	1	2
540.944	1	3
541.284	1	4
541.624	1	5
541.964	1	14
542.305	1	-9
542.645	1	5
542.985	1	-1
543.325	1	2
543.665	1	15
544.005	1	3
544.345	1	-4
544.685	1	10
545.025	1	0
545.365	1	6
545.705	1	5
546.045	1	18
546.386	1	3
546.726	1	5
547.066	1	-1
547.406	1	11
547.746	1	5
548.086	1	15
548.426	1	4
548.766	1	9
549.106	1	3
549.446	1	3
549.786	1	2
550.126	1	0
550.466	1	2
550.806	1	15
551.146	1	1
551.486	1	10
551.826	1	8
552.166	1	4
552.506	1	-7
552.846	1	0
553.186	1	5
553.526	1	1
553.866	1	5
554.206	1	6
554.546	1	-2
554.886	1	7
555.226	1	-1
555.566	1	4
555.906	1	11
556.246	1	7
556.586	1	12
556.926	1	-2
557.266	1	10
557.606	1	-2
557.946	1	12
558.286	1	-3
558.626	1	6
558.966	1	7
559.306	1	3
559.646	1	-2
559.986	1	-6
560.325	1	-11
560.665	1	4
561.005	1	7
561.345	1	2
561.685	1	-6
562.025	1	-1
562.365	1	11
562.705	1	11
563.045	1	7
563.385	1	1
563.725	1	1
564.064	1	8
564.404	1	2
564.744	1	13
565.084	1	3
565.424	1	7
565.764	1	12
566.104	1	2
566.444	1	15
566.783	1	3
567.123	1	10
567.463	1	3
567.803	1	-4
568.143	1	-8
568.483	1	-3
568.823	1	3
569.162	1	8
569.502	1	-3
569.842	1	1
570.182	1	-1
570.522	1	9
570.862	1	3
571.201	1	1
571.541	1	6
571.881	1	6
572.221	1	8
572.561	1	-9
572.900	1	11
573.240	1	-4
573.580	1	3
573.920	1	-5
574.260	1	-3
574.599	1	4
574.939	1	6
575.279	1	11
575.619	1	9
575.959	1	-11
576.298	1	-8
576.638	1	-2
576.978	1	-1
577.318	1	9
577.657	1	-1
577.997	1	-6
578.337	1	4
578.677	1	1
579.016	1	11
579.356	1	-5
579.696	1	-1
580.036	1	-3
580.375	1	2
580.715	1	10
581.055	1	4
581.394	1	-3
581.734	1	3
582.074	1	-2
582.414	1	7
582.753	1	9
583.093	1	-1
583.433	1	-6
583.772	1	5
584.112	1	3
584.452	1	5
584.791	1	9
585.131	1	-8
585.471	1	3
585.811	1	-6
586.150	1	6
586.490	1	-10
586.830	1	-10
587.169	1	5
587.509	1	6
587.849	1	9
588.188	1	-3
588.528	1	5
588.867	1	8
589.207	1	-15
589.547	1	-8
589.886	1	1
590.226	1	6
590.566	1	1
590.905	1	13
591.245	1	0
591.585	1	-2
591.924	1	-6
592.264	1	-8
592.603	1	8
592.943	1	3
593.283	1	2
593.622	1	5
593.962	1	15
594.301	1	11
594.641	1	1
594.981	1	0
595.320	1	6
595.660	1	8
595.999	1	4
596.339	1	11
596.678	1	-2
597.018	1	11
597.358	1	5
597.697	1	-4
598.037	1	4
598.376	1	8
598.716	1	-6
599.055	1	-3
599.395	1	4
599.734	1	5
600.074	1	-5
600.413	1	8
600.753	1	8
601.092	1	-11
601.432	1	3
601.771	1	9
602.111	1	-2
602.451	1	-2
602.790	1	-4
603.130	1	6
603.469	1	1
603.809	1	11
604.148	1	1
604.487	1	3
604.827	1	-10
605.166	1	-1
605.506	1	9
605.845	1	0
606.185	1	-1
606.524	1	4
606.864	1	-1
607.203	1	4
607.543	1	-6
607.882	1	-8
608.222	1	0
608.561	1	10
608.901	1	13
609.240	1	2
609.579	1	-3
609.919	1	-2
610.258	1	14
610.598	1	1
610.937	1	3
611.277	1	6
611.616	1	4
611.955	1	6
612.295	1	6
612.634	1	-7
612.974	1	15
613.313	1	8
613.652	1	-2
613.992	1	4
614.331	1	9
614.671	1	1
615.010	1	1
615.349	1	5
615.689	1	2
616.028	1	5
616.368	1	5
616.707	1	3
617.046	1	12
617.386	1	-1
617.725	1	3
618.064	1	7
618.404	1	5
618.743	1	-6
619.082	1	6
619.422	1	6
619.761	1	8
620.100	1	3
620.440	1	0
620.779	1	4
621.118	1	-7
621.458	1	15
621.797	1	8
622.136	1	7
622.476	1	5
622.815	1	-2
623.154	1	4
623.494	1	6
623.833	1	1
624.172	1	14
624.511	1	4
624.851	1	-6
625.190	1	-2
625.529	1	5
625.869	1	2
626.208	1	-2
626.547	1	-5
626.886	1	-9
627.226	1	-8
627.565	1	12
627.904	1	11
628.243	1	-9
628.583	1	-2
628.922	1	2
629.261	1	6
629.600	1	5
629.940	1	10
630.279	1	-4
630.618	1	0
630.957	1	5
631.297	1	-7
631.636	1	-8
631.975	1	8
632.314	1	13
632.653	1	-8
632.993	1	8
633.332	1	0
633.671	1	11
634.010	1	1
634.349	1	5
634.689	1	14
635.028	1	11
635.367	1	2
635.706	1	1
636.045	1	1
636.384	1	9
636.724	1	2
637.063	1	9
637.402	1	12
637.741	1	9
638.080	1	0
638.419	1	10
638.759	1	-1
639.098	1	4
639.437	1	-4
639.776	1	-3
640.115	1	0
640.454	1	16
640.793	1	5
641.132	1	15
641.472	1	-3
641.811	1	-2
642.150	1	-2
642.489	1	-3
642.828	1	6
643.167	1	9
643.506	1	-1
643.845	1	0
644.184	1	10
644.524	1	-7
644.863	1	-11
645.202	1	2
645.541	1	-1
645.880	1	2
646.219	1	4
646.558	1	1
646.897	1	6
647.236	1	3
647.575	1	0
647.914	1	1
648.253	1	3
648.592	1	6
648.931	1	12
649.270	1	9
649.610	1	13
649.949	1	-4
650.288	1	2
650.627	1	6
650.966	1	3
651.305	1	-3
651.644	1	4
651.983	1	8
652.322	1	12
652.661	1	1
653.000	1	0
653.339	1	9
653.678	1	-2
654.017	1	8
654.356	1	10
654.695	1	12
655.034	1	7
655.373	1	1
655.712	1	-2
656.051	1	6
656.390	1	1
656.729	1	8
657.068	1	3
657.406	1	10
657.745	1	-4
658.084	1	5
658.423	1	-4
658.762	1	-7
659.101	1	-5
659.440	1	11
659.779	1	2
660.118	1	8
660.457	1	-4
660.796	1	1
661.135	1	6
661.474	1	8
661.813	1	-1
662.152	1	5
662.491	1	1
662.829	1	-1
663.168	1	-4
663.507	1	-4
663.846	1	9
664.185	1	5
664.524	1	-5
664.863	1	1
665.202	1	-8
665.541	1	7
665.879	1	-2
666.218	1	0
666.557	1	-2
666.896	1	3
667.235	1	0
667.574	1	4
667.913	1	6
668.251	1	4
668.590	1	-10
668.929	1	5
669.268	1	3
669.607	1	-7
669.946	1	6
670.285	1	7
670.623	1	4
670.962	1	6
671.301	1	-5
671.640	1	-19
671.979	1	14
672.317	1	-8
672.656	1	4
672.995	1	5
673.334	1	10
673.673	1	18
674.011	1	1
674.350	1	-3
674.689	1	-1
675.028	1	8
675.367	1	1
675.705	1	-5
676.044	1	-5
676.383	1	-1
676.722	1	0
677.060	1	8
677.399	1	-2
677.738	1	-10
678.077	1	8
678.416	1	1
678.754	1	3
679.093	1	2
679.432	1	-4
679.771	1	14
680.109	1	8
680.448	1	6
680.787	1	3
681.125	1	5
681.464	1	0
681.803	1	-13
682.142	1	3
682.480	1	1
682.819	1	6
683.158	1	2
683.496	1	-5
683.835	1	1
684.174	1	-2
684.512	1	1
684.851	1	3
685.190	1	2
685.529	1	10
685.867	1	-1
686.206	1	6
686.545	1	10
686.883	1	-6
687.222	1	-10
687.561	1	1
687.899	1	0
688.238	1	6
688.577	1	-4
688.746	1	14