File: Analysis/GaN_68K_200ms/GaN_sample E_spot4_UVVIS_68 K_200um_200 ms 2x2mm1_809.txt
340.368	1	-1
340.710	1	-6
341.052	1	5
341.394	1	-2
341.737	1	5
342.079	1	-5
342.421	1	-9
342.763	1	-6
343.105	1	-1
343.447	1	14
343.789	1	-12
344.131	1	-9
344.473	1	-7
344.815	1	11
345.157	1	8
345.499	1	-1
345.841	1	-3
346.183	1	-4
346.526	1	0
346.868	1	1
347.210	1	-3
347.552	1	-1
347.894	1	-7
348.236	1	4
348.578	1	12
348.920	1	5
349.262	1	-7
349.604	1	7
349.946	1	1
350.288	1	1
350.630	1	-4
350.972	1	-5
351.314	1	-7
351.656	1	-6
351.998	1	4
352.340	1	-6
352.682	1	0
353.024	1	-13
353.366	1	7
353.708	1	10
354.050	1	-3
354.392	1	3
354.734	1	0
355.076	1	4
355.418	1	-5
355.760	1	0
356.102	1	-5
356.444	1	-1
356.785	1	11
357.127	1	0
357.469	1	3
357.811	1	15
358.153	1	4
358.495	1	12
358.837	1	-2
359.179	1	-11
359.521	1	2
359.863	1	-7
360.205	1	3
360.547	1	2
360.889	1	0
361.231	1	-7
361.572	1	-3
361.914	1	-9
362.256	1	14
362.598	1	3
362.940	1	0
363.282	1	1
363.624	1	-3
363.966	1	-4
364.308	1	-1
364.649	1	0
364.991	1	1
365.333	1	-3
365.675	1	2
366.017	1	3
366.359	1	-6
366.701	1	-20
367.042	1	9
367.384	1	6
367.726	1	2
368.068	1	-5
368.410	1	-7
368.752	1	-12
369.093	1	1
369.435	1	-3
369.777	1	-1
370.119	1	6
370.461	1	-5
370.803	1	-4
371.144	1	3
371.486	1	2
371.828	1	-4
372.170	1	7
372.512	1	-9
372.853	1	4
373.195	1	-9
373.537	1	-6
373.879	1	10
374.220	1	-4
374.562	1	-4
374.904	1	-6
375.246	1	5
375.588	1	-5
375.929	1	-2
376.271	1	-4
376.613	1	3
376.955	1	-9
377.296	1	8
377.638	1	0
377.980	1	4
378.321	1	4
378.663	1	-2
379.005	1	5
379.347	1	3
379.688	1	-2
380.030	1	-4
380.372	1	-6
380.714	1	7
381.055	1	-2
381.397	1	-5
381.739	1	7
382.080	1	-12
382.422	1	16
382.764	1	-6
383.105	1	4
383.447	1	4
383.789	1	0
384.130	1	-7
384.472	1	2
384.814	1	7
385.156	1	9
385.497	1	12
385.839	1	9
386.180	1	-1
386.522	1	0
386.864	1	0
387.205	1	-2
387.547	1	-5
387.889	1	3
388.230	1	-4
388.572	1	0
388.914	1	10
389.255	1	-2
389.597	1	-1
389.939	1	6
390.280	1	12
390.622	1	-7
390.963	1	4
391.305	1	2
391.647	1	2
391.988	1	-5
392.330	1	8
392.671	1	2
393.013	1	12
393.355	1	12
393.696	1	5
394.038	1	-1
394.379	1	-7
394.721	1	-6
395.062	1	1
395.404	1	14
395.746	1	-1
396.087	1	-1
396.429	1	3
396.770	1	8
397.112	1	-2
397.453	1	-5
397.795	1	1
398.136	1	6
398.478	1	1
398.819	1	7
399.161	1	2
399.503	1	-7
399.844	1	10
400.186	1	12
400.527	1	5
400.869	1	14
401.210	1	-2
401.552	1	7
401.893	1	5
402.235	1	11
402.576	1	6
402.918	1	-7
403.259	1	-8
403.601	1	-6
403.942	1	4
404.284	1	-1
404.625	1	3
404.967	1	5
405.308	1	-1
405.649	1	3
405.991	1	5
406.332	1	-1
406.674	1	6
407.015	1	-6
407.357	1	7
407.698	1	-9
408.040	1	3
408.381	1	-11
408.722	1	-4
409.064	1	1
409.405	1	2
409.747	1	-8
410.088	1	-1
410.430	1	6
410.771	1	8
411.112	1	8
411.454	1	8
411.795	1	7
412.137	1	7
412.478	1	6
412.819	1	-6
413.161	1	-9
413.502	1	-2
413.844	1	-4
414.185	1	0
414.526	1	1
414.868	1	13
415.209	1	7
415.550	1	-10
415.892	1	-7
416.233	1	1
416.575	1	0
416.916	1	-4
417.257	1	3
417.599	1	0
417.940	1	7
418.281	1	-1
418.623	1	-5
418.964	1	4
419.305	1	2
419.647	1	7
419.988	1	-1
420.329	1	3
420.671	1	0
421.012	1	11
421.353	1	7
421.695	1	0
422.036	1	-3
422.377	1	7
422.718	1	2
423.060	1	3
423.401	1	3
423.742	1	-2
424.084	1	-3
424.425	1	0
424.766	1	6
425.107	1	2
425.449	1	-4
425.790	1	-10
426.131	1	-1
426.472	1	2
426.814	1	7
427.155	1	0
427.496	1	-1
427.837	1	2
428.179	1	-13
428.520	1	-4
428.861	1	0
429.202	1	2
429.544	1	3
429.885	1	-5
430.226	1	-3
430.567	1	11
430.909	1	-12
431.250	1	-5
431.591	1	7
431.932	1	0
432.273	1	2
432.615	1	3
432.956	1	-1
433.297	1	3
433.638	1	6
433.979	1	1
434.320	1	-3
434.662	1	-9
435.003	1	5
435.344	1	3
435.685	1	4
436.026	1	0
436.368	1	-4
436.709	1	-14
437.050	1	4
437.391	1	6
437.732	1	-1
438.073	1	5
438.414	1	1
438.756	1	-1
439.097	1	6
439.438	1	15
439.779	1	-4
440.120	1	2
440.461	1	-2
440.802	1	3
441.143	1	12
441.485	1	-6
441.826	1	-12
442.167	1	1
442.508	1	-5
442.849	1	2
443.190	1	-5
443.531	1	-5
443.872	1	6
444.213	1	-3
444.554	1	-9
444.895	1	-11
445.237	1	4
445.578	1	10
445.919	1	-3
446.260	1	-3
446.601	1	-14
446.942	1	12
447.283	1	3
447.624	1	5
447.965	1	-13
448.306	1	4
448.647	1	15
448.988	1	-7
449.329	1	-3
449.670	1	9
450.011	1	0
450.352	1	-2
450.693	1	-1
451.034	1	1
451.375	1	12
451.716	1	7
452.057	1	16
452.398	1	10
452.739	1	5
453.080	1	9
453.421	1	0
453.762	1	9
454.103	1	1
454.444	1	4
454.785	1	-8
455.126	1	-6
455.467	1	2
455.808	1	-6
456.149	1	-2
456.490	1	-6
456.831	1	9
457.172	1	5
457.513	1	7
457.854	1	-2
458.195	1	-2
458.536	1	8
458.877	1	6
459.218	1	7
459.559	1	-3
459.899	1	11
460.240	1	5
460.581	1	8
460.922	1	5
461.263	1	2
461.604	1	-1
461.945	1	7
462.286	1	6
462.627	1	-10
462.968	1	-8
463.309	1	1
463.649	1	4
463.990	1	-6
464.331	1	6
464.672	1	0
465.013	1	-12
465.354	1	8
465.695	1	8
466.036	1	6
466.376	1	-7
466.717	1	-1
467.058	1	9
467.399	1	2
467.740	1	2
468.081	1	-5
468.422	1	2
468.762	1	-6
469.103	1	-8
469.444	1	-4
469.785	1	9
470.126	1	-1
470.467	1	-3
470.807	1	-8
471.148	1	-1
471.489	1	-7
471.830	1	16
472.171	1	8
472.511	1	-5
472.852	1	-8
473.193	1	-5
473.534	1	-5
473.875	1	3
474.215	1	-7
474.556	1	-10
474.897	1	7
475.238	1	-4
475.578	1	-5
475.919	1	14
476.260	1	1
476.601	1	0
476.942	1	1
477.282	1	-5
477.623	1	7
477.964	1	6
478.305	1	3
478.645	1	-6
478.986	1	4
479.327	1	-4
479.667	1	1
480.008	1	11
480.349	1	2
480.690	1	2
481.030	1	2
481.371	1	2
481.712	1	4
482.053	1	5
482.393	1	-14
482.734	1	-5
483.075	1	6
483.415	1	1
483.756	1	5
484.097	1	-12
484.437	1	-11
484.778	1	1
485.119	1	0
485.459	1	1
485.800	1	-8
486.141	1	-15
486.481	1	7
486.822	1	4
487.163	1	-11
487.503	1	-13
487.844	1	-3
488.185	1	-2
488.525	1	-1
488.866	1	10
489.207	1	6
489.547	1	-9
489.888	1	-2
490.228	1	-7
490.569	1	4
490.910	1	-5
491.250	1	-1
491.591	1	-6
491.932	1	-2
492.272	1	-1
492.613	1	5
492.953	1	-2
493.294	1	7
493.635	1	-6
493.975	1	-10
494.316	1	0
494.656	1	-4
494.997	1	-1
495.337	1	4
495.678	1	4
496.019	1	-4
496.359	1	0
496.700	1	-2
497.040	1	4
497.381	1	-15
497.721	1	-5
498.062	1	2
498.403	1	3
498.743	1	1
499.084	1	-9
499.424	1	10
499.765	1	-12
500.105	1	-3
500.446	1	10
500.786	1	9
501.127	1	6
501.467	1	-6
501.808	1	-9
502.148	1	3
502.489	1	0
502.829	1	5
503.170	1	2
503.510	1	6
503.851	1	-14
504.191	1	1
504.532	1	-15
504.872	1	-7
505.213	1	-2
505.553	1	5
505.894	1	5
506.234	1	9
506.575	1	-4
506.915	1	-1
507.256	1	-3
507.596	1	3
507.936	1	6
508.277	1	-3
508.617	1	4
508.958	1	8
509.298	1	15
509.639	1	6
509.979	1	0
510.319	1	-5
510.660	1	2
511.000	1	6
511.341	1	-12
511.681	1	-6
512.022	1	-4
512.362	1	3
512.702	1	-4
513.043	1	8
513.383	1	2
513.724	1	4
514.064	1	5
514.404	1	11
514.745	1	-10
515.085	1	-5
515.425	1	-7
515.766	1	-1
516.106	1	-2
516.447	1	1
516.787	1	-5
517.127	1	5
517.468	1	3
517.808	1	-7
518.148	1	-4
518.489	1	6
518.829	1	-9
519.169	1	6
519.510	1	1
519.850	1	-13
520.190	1	-4
520.531	1	11
520.871	1	-7
521.211	1	-2
521.552	1	7
521.892	1	-12
522.232	1	-9
522.573	1	3
522.913	1	7
523.253	1	2
523.593	1	-7
523.934	1	2
524.274	1	-1
524.614	1	3
524.955	1	-2
525.295	1	-10
525.635	1	8
525.975	1	-7
526.316	1	5
526.656	1	17
526.996	1	9
527.337	1	-2
527.677	1	13
528.017	1	-9
528.357	1	0
528.698	1	-5
529.038	1	5
529.378	1	-2
529.718	1	5
530.058	1	3
530.399	1	9
530.739	1	1
531.079	1	7
531.419	1	1
531.760	1	1
532.100	1	5
532.440	1	1
532.780	1	5
533.120	1	-7
533.461	1	9
533.801	1	8
534.141	1	10
534.481	1	1
534.821	1	0
535.162	1	12
535.502	1	11
535.842	1	-9
536.182	1	3
536.522	1	6
536.862	1	9
537.203	1	2
537.543	1	10
537.883	1	8
538.223	1	5
538.563	1	-11
538.903	1	-9
539.243	1	-4
539.584	1	-1
539.924	1	-1
540.264	1	3
540.604	1	0
540.944	1	-2
541.284	1	1
541.624	1	-1
541.964	1	5
542.305	1	-12
542.645	1	-5
542.985	1	1
543.325	1	1
543.665	1	3
544.005	1	-3
544.345	1	-11
544.685	1	-1
545.025	1	-7
545.365	1	-3
545.705	1	7
546.045	1	6
546.386	1	-3
546.726	1	-4
547.066	1	2
547.406	1	4
547.746	1	9
548.086	1	5
548.426	1	1
548.766	1	6
549.106	1	0
549.446	1	-4
549.786	1	2
550.126	1	4
550.466	1	-5
550.806	1	5
551.146	1	3
551.486	1	3
551.826	1	2
552.166	1	2
552.506	1	-1
552.846	1	-1
553.186	1	0
553.526	1	5
553.866	1	6
554.206	1	2
554.546	1	-10
554.886	1	6
555.226	1	-13
555.566	1	1
555.906	1	3
556.246	1	6
556.586	1	4
556.926	1	6
557.266	1	10
557.606	1	-11
557.946	1	6
558.286	1	3
558.626	1	6
558.966	1	-2
559.306	1	-3
559.646	1	-7
559.986	1	-8
560.325	1	-10
560.665	1	-1
561.005	1	3
561.345	1	-3
561.685	1	-4
562.025	1	-8
562.365	1	-4
562.705	1	15
563.045	1	0
563.385	1	-6
563.725	1	2
564.064	1	6
564.404	1	1
564.744	1	-1
565.084	1	-4
565.424	1	-3
565.764	1	8
566.104	1	6
566.444	1	18
566.783	1	0
567.123	1	14
567.463	1	5
567.803	1	-8
568.143	1	-8
568.483	1	-8
568.823	1	10
569.162	1	-2
569.502	1	-3
569.842	1	-6
570.182	1	-10
570.522	1	1
570.862	1	9
571.201	1	1
571.541	1	-14
571.881	1	1
572.221	1	3
572.561	1	-3
572.900	1	7
573.240	1	-2
573.580	1	4
573.920	1	4
574.260	1	-7
574.599	1	-10
574.939	1	4
575.279	1	2
575.619	1	6
575.959	1	-3
576.298	1	-4
576.638	1	9
576.978	1	3
577.318	1	10
577.657	1	-10
577.997	1	-10
578.337	1	0
578.677	1	-6
579.016	1	15
579.356	1	2
579.696	1	3
580.036	1	0
580.375	1	1
580.715	1	1
581.055	1	11
581.394	1	-4
581.734	1	-1
582.074	1	-1
582.414	1	1
582.753	1	9
583.093	1	-2
583.433	1	-4
583.772	1	-5
584.112	1	-2
584.452	1	-2
584.791	1	-2
585.131	1	-9
585.471	1	4
585.811	1	-3
586.150	1	2
586.490	1	-4
586.830	1	-7
587.169	1	-7
587.509	1	-1
587.849	1	6
588.188	1	-5
588.528	1	-2
588.867	1	3
589.207	1	-7
589.547	1	-3
589.886	1	-8
590.226	1	6
590.566	1	2
590.905	1	7
591.245	1	3
591.585	1	-4
591.924	1	-5
592.264	1	-4
592.603	1	-2
592.943	1	-4
593.283	1	1
593.622	1	-1
593.962	1	7
594.301	1	11
594.641	1	-7
594.981	1	5
595.320	1	2
595.660	1	-6
595.999	1	6
596.339	1	-1
596.678	1	-2
597.018	1	7
597.358	1	0
597.697	1	-13
598.037	1	4
598.376	1	6
598.716	1	-8
599.055	1	2
599.395	1	10
599.734	1	-4
600.074	1	3
600.413	1	1
600.753	1	1
601.092	1	-4
601.432	1	3
601.771	1	7
602.111	1	-3
602.451	1	-4
602.790	1	-2
603.130	1	4
603.469	1	-1
603.809	1	10
604.148	1	-3
604.487	1	0
604.827	1	-14
605.166	1	-10
605.506	1	4
605.845	1	1
606.185	1	3
606.524	1	-5
606.864	1	-7
607.203	1	8
607.543	1	-9
607.882	1	-5
608.222	1	3
608.561	1	7
608.901	1	1
609.240	1	2
609.579	1	2
609.919	1	-8
610.258	1	7
610.598	1	7
610.937	1	1
611.277	1	5
611.616	1	-8
611.955	1	4
612.295	1	-2
612.634	1	0
612.974	1	-2
613.313	1	-1
613.652	1	-4
613.992	1	6
614.331	1	1
614.671	1	-3
615.010	1	1
615.349	1	0
615.689	1	0
616.028	1	3
616.368	1	2
616.707	1	0
617.046	1	6
617.386	1	1
617.725	1	9
618.064	1	3
618.404	1	6
618.743	1	-6
619.082	1	-1
619.422	1	3
619.761	1	-4
620.100	1	9
620.440	1	1
620.779	1	-7
621.118	1	-4
621.458	1	6
621.797	1	1
622.136	1	-4
622.476	1	1
622.815	1	-3
623.154	1	0
623.494	1	-5
623.833	1	-8
624.172	1	9
624.511	1	-4
624.851	1	4
625.190	1	-2
625.529	1	0
625.869	1	0
626.208	1	-3
626.547	1	6
626.886	1	-9
627.226	1	-8
627.565	1	10
627.904	1	0
628.243	1	-11
628.583	1	4
628.922	1	-4
629.261	1	-4
629.600	1	5
629.940	1	3
630.279	1	-3
630.618	1	-3
630.957	1	-8
631.297	1	-6
631.636	1	-5
631.975	1	8
632.314	1	2
632.653	1	-10
632.993	1	11
633.332	1	8
633.671	1	-2
634.010	1	1
634.349	1	2
634.689	1	1
635.028	1	4
635.367	1	-7
635.706	1	-4
636.045	1	5
636.384	1	5
636.724	1	10
637.063	1	7
637.402	1	2
637.741	1	6
638.080	1	9
638.419	1	8
638.759	1	1
639.098	1	-3
639.437	1	2
639.776	1	-4
640.115	1	0
640.454	1	8
640.793	1	6
641.132	1	3
641.472	1	-10
641.811	1	4
642.150	1	5
642.489	1	-1
642.828	1	6
643.167	1	5
643.506	1	0
643.845	1	5
644.184	1	16
644.524	1	-11
644.863	1	-8
645.202	1	2
645.541	1	-7
645.880	1	-3
646.219	1	3
646.558	1	-1
646.897	1	-15
647.236	1	1
647.575	1	7
647.914	1	-5
648.253	1	5
648.592	1	4
648.931	1	9
649.270	1	11
649.610	1	5
649.949	1	-6
650.288	1	-7
650.627	1	-1
650.966	1	7
651.305	1	0
651.644	1	-9
651.983	1	0
652.322	1	4
652.661	1	1
653.000	1	-5
653.339	1	7
653.678	1	6
654.017	1	2
654.356	1	13
654.695	1	9
655.034	1	4
655.373	1	-6
655.712	1	-5
656.051	1	5
656.390	1	0
656.729	1	-2
657.068	1	-7
657.406	1	-2
657.745	1	-3
658.084	1	3
658.423	1	-12
658.762	1	-10
659.101	1	-10
659.440	1	8
659.779	1	-10
660.118	1	8
660.457	1	-3
660.796	1	-8
661.135	1	-1
661.474	1	0
661.813	1	-4
662.152	1	4
662.491	1	14
662.829	1	-2
663.168	1	-1
663.507	1	3
663.846	1	1
664.185	1	-8
664.524	1	1
664.863	1	0
665.202	1	-3
665.541	1	-5
665.879	1	9
666.218	1	-10
666.557	1	-3
666.896	1	-1
667.235	1	-6
667.574	1	5
667.913	1	2
668.251	1	-9
668.590	1	0
668.929	1	0
669.268	1	-1
669.607	1	-14
669.946	1	8
670.285	1	-6
670.623	1	3
670.962	1	-4
671.301	1	5
671.640	1	-8
671.979	1	11
672.317	1	-10
672.656	1	5
672.995	1	2
673.334	1	5
673.673	1	19
674.011	1	8
674.350	1	-6
674.689	1	2
675.028	1	3
675.367	1	7
675.705	1	-15
676.044	1	-1
676.383	1	-4
676.722	1	-4
677.060	1	0
677.399	1	-9
677.738	1	5
678.077	1	3
678.416	1	10
678.754	1	-5
679.093	1	5
679.432	1	-3
679.771	1	-4
680.109	1	-2
680.448	1	-9
680.787	1	-5
681.125	1	4
681.464	1	-8
681.803	1	-7
682.142	1	11
682.480	1	0
682.819	1	1
683.158	1	0
683.496	1	-6
683.835	1	5
684.174	1	-5
684.512	1	1
684.851	1	-5
685.190	1	10
685.529	1	2
685.867	1	-2
686.206	1	0
686.545	1	2
686.883	1	-3
687.222	1	-8
687.561	1	-1
687.899	1	-1
688.238	1	-1
688.577	1	-3
688.746	1	5