File: Analysis/GaN_68K_200ms/GaN_sample E_spot4_UVVIS_68 K_200um_200 ms 2x2mm1_188.txt
340.368	1	0
340.710	1	3
341.052	1	5
341.394	1	5
341.737	1	5
342.079	1	-7
342.421	1	2
342.763	1	-5
343.105	1	11
343.447	1	2
343.789	1	5
344.131	1	-4
344.473	1	3
344.815	1	8
345.157	1	8
345.499	1	12
345.841	1	11
346.183	1	-3
346.526	1	11
346.868	1	1
347.210	1	4
347.552	1	6
347.894	1	3
348.236	1	2
348.578	1	11
348.920	1	19
349.262	1	-1
349.604	1	6
349.946	1	13
350.288	1	7
350.630	1	4
350.972	1	6
351.314	1	1
351.656	1	3
351.998	1	3
352.340	1	8
352.682	1	-5
353.024	1	0
353.366	1	-4
353.708	1	7
354.050	1	8
354.392	1	7
354.734	1	-1
355.076	1	7
355.418	1	9
355.760	1	11
356.102	1	2
356.444	1	11
356.785	1	19
357.127	1	3
357.469	1	9
357.811	1	18
358.153	1	7
358.495	1	22
358.837	1	11
359.179	1	14
359.521	1	9
359.863	1	2
360.205	1	-2
360.547	1	10
360.889	1	11
361.231	1	12
361.572	1	8
361.914	1	10
362.256	1	19
362.598	1	12
362.940	1	14
363.282	1	13
363.624	1	22
363.966	1	20
364.308	1	23
364.649	1	17
364.991	1	21
365.333	1	24
365.675	1	19
366.017	1	26
366.359	1	29
366.701	1	16
367.042	1	37
367.384	1	28
367.726	1	40
368.068	1	22
368.410	1	19
368.752	1	23
369.093	1	20
369.435	1	30
369.777	1	13
370.119	1	27
370.461	1	23
370.803	1	17
371.144	1	20
371.486	1	21
371.828	1	25
372.170	1	21
372.512	1	16
372.853	1	18
373.195	1	4
373.537	1	18
373.879	1	16
374.220	1	15
374.562	1	12
374.904	1	22
375.246	1	10
375.588	1	12
375.929	1	20
376.271	1	17
376.613	1	15
376.955	1	11
377.296	1	9
377.638	1	10
377.980	1	19
378.321	1	12
378.663	1	8
379.005	1	14
379.347	1	14
379.688	1	8
380.030	1	1
380.372	1	11
380.714	1	9
381.055	1	2
381.397	1	12
381.739	1	20
382.080	1	6
382.422	1	22
382.764	1	15
383.105	1	15
383.447	1	29
383.789	1	23
384.130	1	14
384.472	1	20
384.814	1	26
385.156	1	34
385.497	1	31
385.839	1	33
386.180	1	24
386.522	1	37
386.864	1	24
387.205	1	39
387.547	1	33
387.889	1	41
388.230	1	36
388.572	1	29
388.914	1	37
389.255	1	30
389.597	1	22
389.939	1	35
390.280	1	37
390.622	1	27
390.963	1	33
391.305	1	27
391.647	1	31
391.988	1	22
392.330	1	34
392.671	1	29
393.013	1	33
393.355	1	33
393.696	1	33
394.038	1	18
394.379	1	10
394.721	1	31
395.062	1	25
395.404	1	28
395.746	1	24
396.087	1	20
396.429	1	29
396.770	1	30
397.112	1	32
397.453	1	20
397.795	1	33
398.136	1	42
398.478	1	24
398.819	1	38
399.161	1	29
399.503	1	24
399.844	1	28
400.186	1	39
400.527	1	24
400.869	1	29
401.210	1	20
401.552	1	27
401.893	1	29
402.235	1	27
402.576	1	32
402.918	1	20
403.259	1	19
403.601	1	10
403.942	1	19
404.284	1	16
404.625	1	19
404.967	1	26
405.308	1	23
405.649	1	21
405.991	1	28
406.332	1	15
406.674	1	25
407.015	1	9
407.357	1	27
407.698	1	11
408.040	1	16
408.381	1	15
408.722	1	10
409.064	1	9
409.405	1	18
409.747	1	14
410.088	1	23
410.430	1	27
410.771	1	21
411.112	1	19
411.454	1	27
411.795	1	23
412.137	1	28
412.478	1	16
412.819	1	18
413.161	1	13
413.502	1	22
413.844	1	15
414.185	1	22
414.526	1	17
414.868	1	23
415.209	1	19
415.550	1	16
415.892	1	7
416.233	1	19
416.575	1	12
416.916	1	16
417.257	1	21
417.599	1	22
417.940	1	4
418.281	1	16
418.623	1	7
418.964	1	17
419.305	1	17
419.647	1	25
419.988	1	20
420.329	1	11
420.671	1	13
421.012	1	18
421.353	1	31
421.695	1	11
422.036	1	11
422.377	1	14
422.718	1	16
423.060	1	15
423.401	1	9
423.742	1	18
424.084	1	15
424.425	1	16
424.766	1	11
425.107	1	16
425.449	1	6
425.790	1	7
426.131	1	19
426.472	1	15
426.814	1	15
427.155	1	3
427.496	1	15
427.837	1	18
428.179	1	6
428.520	1	7
428.861	1	11
429.202	1	18
429.544	1	7
429.885	1	12
430.226	1	-4
430.567	1	15
430.909	1	4
431.250	1	5
431.591	1	14
431.932	1	12
432.273	1	4
432.615	1	11
432.956	1	11
433.297	1	23
433.638	1	3
433.979	1	9
434.320	1	4
434.662	1	-2
435.003	1	10
435.344	1	17
435.685	1	16
436.026	1	8
436.368	1	4
436.709	1	4
437.050	1	20
437.391	1	17
437.732	1	13
438.073	1	24
438.414	1	10
438.756	1	19
439.097	1	15
439.438	1	13
439.779	1	2
440.120	1	7
440.461	1	-5
440.802	1	11
441.143	1	16
441.485	1	8
441.826	1	-3
442.167	1	4
442.508	1	2
442.849	1	8
443.190	1	0
443.531	1	15
443.872	1	7
444.213	1	3
444.554	1	8
444.895	1	4
445.237	1	0
445.578	1	13
445.919	1	5
446.260	1	5
446.601	1	3
446.942	1	13
447.283	1	3
447.624	1	7
447.965	1	-5
448.306	1	5
448.647	1	20
448.988	1	-2
449.329	1	12
449.670	1	19
450.011	1	2
450.352	1	8
450.693	1	6
451.034	1	14
451.375	1	15
451.716	1	5
452.057	1	17
452.398	1	18
452.739	1	4
453.080	1	23
453.421	1	5
453.762	1	13
454.103	1	18
454.444	1	16
454.785	1	1
455.126	1	4
455.467	1	2
455.808	1	13
456.149	1	7
456.490	1	5
456.831	1	15
457.172	1	6
457.513	1	9
457.854	1	2
458.195	1	2
458.536	1	11
458.877	1	4
459.218	1	4
459.559	1	6
459.899	1	17
460.240	1	6
460.581	1	8
460.922	1	7
461.263	1	9
461.604	1	4
461.945	1	7
462.286	1	22
462.627	1	3
462.968	1	1
463.309	1	2
463.649	1	8
463.990	1	3
464.331	1	0
464.672	1	1
465.013	1	-6
465.354	1	13
465.695	1	11
466.036	1	8
466.376	1	8
466.717	1	-4
467.058	1	14
467.399	1	5
467.740	1	4
468.081	1	6
468.422	1	5
468.762	1	-3
469.103	1	1
469.444	1	0
469.785	1	11
470.126	1	9
470.467	1	5
470.807	1	-1
471.148	1	0
471.489	1	-1
471.830	1	14
472.171	1	5
472.511	1	8
472.852	1	1
473.193	1	-1
473.534	1	0
473.875	1	12
474.215	1	-1
474.556	1	-7
474.897	1	11
475.238	1	-2
475.578	1	12
475.919	1	7
476.260	1	11
476.601	1	1
476.942	1	15
477.282	1	-8
477.623	1	12
477.964	1	8
478.305	1	4
478.645	1	-4
478.986	1	2
479.327	1	6
479.667	1	9
480.008	1	7
480.349	1	6
480.690	1	3
481.030	1	-5
481.371	1	10
481.712	1	11
482.053	1	11
482.393	1	-3
482.734	1	10
483.075	1	7
483.415	1	12
483.756	1	20
484.097	1	-4
484.437	1	-6
484.778	1	2
485.119	1	8
485.459	1	18
485.800	1	-2
486.141	1	-5
486.481	1	14
486.822	1	2
487.163	1	-1
487.503	1	-9
487.844	1	11
488.185	1	8
488.525	1	0
488.866	1	13
489.207	1	10
489.547	1	8
489.888	1	3
490.228	1	10
490.569	1	20
490.910	1	6
491.250	1	6
491.591	1	-9
491.932	1	9
492.272	1	16
492.613	1	7
492.953	1	1
493.294	1	10
493.635	1	9
493.975	1	10
494.316	1	15
494.656	1	8
494.997	1	10
495.337	1	3
495.678	1	15
496.019	1	9
496.359	1	10
496.700	1	17
497.040	1	6
497.381	1	-7
497.721	1	3
498.062	1	6
498.403	1	14
498.743	1	1
499.084	1	3
499.424	1	20
499.765	1	13
500.105	1	8
500.446	1	17
500.786	1	8
501.127	1	17
501.467	1	2
501.808	1	0
502.148	1	7
502.489	1	25
502.829	1	14
503.170	1	14
503.510	1	10
503.851	1	-2
504.191	1	7
504.532	1	-2
504.872	1	4
505.213	1	9
505.553	1	8
505.894	1	15
506.234	1	11
506.575	1	4
506.915	1	10
507.256	1	16
507.596	1	15
507.936	1	16
508.277	1	4
508.617	1	22
508.958	1	26
509.298	1	32
509.639	1	18
509.979	1	1
510.319	1	4
510.660	1	22
511.000	1	17
511.341	1	13
511.681	1	16
512.022	1	9
512.362	1	21
512.702	1	5
513.043	1	17
513.383	1	12
513.724	1	27
514.064	1	21
514.404	1	15
514.745	1	9
515.085	1	11
515.425	1	16
515.766	1	13
516.106	1	20
516.447	1	17
516.787	1	18
517.127	1	30
517.468	1	17
517.808	1	13
518.148	1	14
518.489	1	19
518.829	1	12
519.169	1	21
519.510	1	16
519.850	1	17
520.190	1	11
520.531	1	22
520.871	1	16
521.211	1	22
521.552	1	15
521.892	1	9
522.232	1	18
522.573	1	26
522.913	1	18
523.253	1	17
523.593	1	15
523.934	1	20
524.274	1	18
524.614	1	13
524.955	1	19
525.295	1	11
525.635	1	31
525.975	1	10
526.316	1	18
526.656	1	40
526.996	1	36
527.337	1	13
527.677	1	32
528.017	1	12
528.357	1	22
528.698	1	14
529.038	1	23
529.378	1	26
529.718	1	19
530.058	1	28
530.399	1	42
530.739	1	24
531.079	1	17
531.419	1	29
531.760	1	27
532.100	1	24
532.440	1	19
532.780	1	21
533.120	1	15
533.461	1	28
533.801	1	27
534.141	1	22
534.481	1	15
534.821	1	20
535.162	1	22
535.502	1	22
535.842	1	20
536.182	1	17
536.522	1	27
536.862	1	22
537.203	1	30
537.543	1	20
537.883	1	15
538.223	1	22
538.563	1	31
538.903	1	30
539.243	1	15
539.584	1	21
539.924	1	21
540.264	1	19
540.604	1	21
540.944	1	13
541.284	1	18
541.624	1	17
541.964	1	20
542.305	1	9
542.645	1	27
542.985	1	10
543.325	1	15
543.665	1	31
544.005	1	13
544.345	1	5
544.685	1	21
545.025	1	18
545.365	1	15
545.705	1	20
546.045	1	20
546.386	1	14
546.726	1	18
547.066	1	9
547.406	1	31
547.746	1	20
548.086	1	24
548.426	1	13
548.766	1	17
549.106	1	25
549.446	1	17
549.786	1	17
550.126	1	19
550.466	1	13
550.806	1	26
551.146	1	18
551.486	1	19
551.826	1	16
552.166	1	20
552.506	1	3
552.846	1	12
553.186	1	12
553.526	1	14
553.866	1	23
554.206	1	20
554.546	1	11
554.886	1	17
555.226	1	12
555.566	1	12
555.906	1	18
556.246	1	23
556.586	1	24
556.926	1	25
557.266	1	17
557.606	1	3
557.946	1	25
558.286	1	17
558.626	1	9
558.966	1	13
559.306	1	14
559.646	1	10
559.986	1	4
560.325	1	9
560.665	1	19
561.005	1	15
561.345	1	11
561.685	1	2
562.025	1	11
562.365	1	13
562.705	1	20
563.045	1	21
563.385	1	8
563.725	1	13
564.064	1	21
564.404	1	8
564.744	1	16
565.084	1	-1
565.424	1	15
565.764	1	22
566.104	1	8
566.444	1	18
566.783	1	12
567.123	1	21
567.463	1	8
567.803	1	8
568.143	1	12
568.483	1	1
568.823	1	18
569.162	1	17
569.502	1	7
569.842	1	4
570.182	1	9
570.522	1	11
570.862	1	20
571.201	1	23
571.541	1	7
571.881	1	16
572.221	1	11
572.561	1	7
572.900	1	24
573.240	1	6
573.580	1	12
573.920	1	11
574.260	1	10
574.599	1	14
574.939	1	4
575.279	1	15
575.619	1	11
575.959	1	1
576.298	1	1
576.638	1	2
576.978	1	2
577.318	1	20
577.657	1	-7
577.997	1	-4
578.337	1	10
578.677	1	1
579.016	1	20
579.356	1	9
579.696	1	10
580.036	1	3
580.375	1	3
580.715	1	11
581.055	1	11
581.394	1	8
581.734	1	22
582.074	1	7
582.414	1	7
582.753	1	11
583.093	1	11
583.433	1	3
583.772	1	12
584.112	1	7
584.452	1	9
584.791	1	10
585.131	1	3
585.471	1	8
585.811	1	8
586.150	1	4
586.490	1	2
586.830	1	4
587.169	1	9
587.509	1	6
587.849	1	12
588.188	1	10
588.528	1	8
588.867	1	7
589.207	1	4
589.547	1	-1
589.886	1	-5
590.226	1	8
590.566	1	7
590.905	1	15
591.245	1	1
591.585	1	4
591.924	1	5
592.264	1	5
592.603	1	5
592.943	1	5
593.283	1	6
593.622	1	12
593.962	1	16
594.301	1	24
594.641	1	5
594.981	1	3
595.320	1	8
595.660	1	7
595.999	1	13
596.339	1	16
596.678	1	8
597.018	1	3
597.358	1	12
597.697	1	-1
598.037	1	16
598.376	1	14
598.716	1	-4
599.055	1	2
599.395	1	9
599.734	1	13
600.074	1	2
600.413	1	13
600.753	1	-1
601.092	1	-1
601.432	1	1
601.771	1	9
602.111	1	0
602.451	1	3
602.790	1	8
603.130	1	7
603.469	1	7
603.809	1	9
604.148	1	16
604.487	1	10
604.827	1	-8
605.166	1	4
605.506	1	10
605.845	1	2
606.185	1	1
606.524	1	4
606.864	1	10
607.203	1	17
607.543	1	8
607.882	1	7
608.222	1	8
608.561	1	16
608.901	1	7
609.240	1	-1
609.579	1	2
609.919	1	4
610.258	1	12
610.598	1	10
610.937	1	7
611.277	1	18
611.616	1	-3
611.955	1	7
612.295	1	8
612.634	1	-4
612.974	1	8
613.313	1	15
613.652	1	1
613.992	1	12
614.331	1	13
614.671	1	8
615.010	1	11
615.349	1	8
615.689	1	13
616.028	1	3
616.368	1	-1
616.707	1	-1
617.046	1	1
617.386	1	-2
617.725	1	21
618.064	1	3
618.404	1	13
618.743	1	11
619.082	1	6
619.422	1	7
619.761	1	17
620.100	1	14
620.440	1	7
620.779	1	1
621.118	1	4
621.458	1	14
621.797	1	1
622.136	1	8
622.476	1	8
622.815	1	3
623.154	1	5
623.494	1	2
623.833	1	2
624.172	1	19
624.511	1	4
624.851	1	1
625.190	1	1
625.529	1	15
625.869	1	10
626.208	1	-2
626.547	1	1
626.886	1	6
627.226	1	3
627.565	1	8
627.904	1	-2
628.243	1	1
628.583	1	4
628.922	1	-4
629.261	1	5
629.600	1	4
629.940	1	14
630.279	1	9
630.618	1	3
630.957	1	2
631.297	1	4
631.636	1	5
631.975	1	5
632.314	1	11
632.653	1	4
632.993	1	8
633.332	1	4
633.671	1	1
634.010	1	1
634.349	1	9
634.689	1	5
635.028	1	19
635.367	1	4
635.706	1	-6
636.045	1	5
636.384	1	17
636.724	1	5
637.063	1	3
637.402	1	4
637.741	1	14
638.080	1	7
638.419	1	12
638.759	1	1
639.098	1	3
639.437	1	0
639.776	1	-3
640.115	1	8
640.454	1	18
640.793	1	11
641.132	1	14
641.472	1	-1
641.811	1	9
642.150	1	8
642.489	1	3
642.828	1	-5
643.167	1	19
643.506	1	-4
643.845	1	4
644.184	1	13
644.524	1	0
644.863	1	1
645.202	1	8
645.541	1	-6
645.880	1	8
646.219	1	0
646.558	1	8
646.897	1	1
647.236	1	6
647.575	1	5
647.914	1	-5
648.253	1	2
648.592	1	5
648.931	1	11
649.270	1	11
649.610	1	9
649.949	1	4
650.288	1	-1
650.627	1	-4
650.966	1	3
651.305	1	-1
651.644	1	0
651.983	1	8
652.322	1	10
652.661	1	8
653.000	1	1
653.339	1	7
653.678	1	-1
654.017	1	1
654.356	1	10
654.695	1	17
655.034	1	5
655.373	1	2
655.712	1	-3
656.051	1	11
656.390	1	7
656.729	1	6
657.068	1	3
657.406	1	8
657.745	1	-3
658.084	1	16
658.423	1	-6
658.762	1	-6
659.101	1	-1
659.440	1	19
659.779	1	5
660.118	1	13
660.457	1	2
660.796	1	-2
661.135	1	14
661.474	1	8
661.813	1	8
662.152	1	-5
662.491	1	2
662.829	1	0
663.168	1	1
663.507	1	-1
663.846	1	-2
664.185	1	0
664.524	1	-3
664.863	1	5
665.202	1	-9
665.541	1	7
665.879	1	-8
666.218	1	0
666.557	1	3
666.896	1	-5
667.235	1	5
667.574	1	5
667.913	1	4
668.251	1	2
668.590	1	5
668.929	1	2
669.268	1	-4
669.607	1	-1
669.946	1	9
670.285	1	3
670.623	1	8
670.962	1	2
671.301	1	-2
671.640	1	-9
671.979	1	23
672.317	1	10
672.656	1	9
672.995	1	15
673.334	1	8
673.673	1	17
674.011	1	3
674.350	1	2
674.689	1	6
675.028	1	7
675.367	1	14
675.705	1	-9
676.044	1	-3
676.383	1	8
676.722	1	10
677.060	1	4
677.399	1	-2
677.738	1	1
678.077	1	14
678.416	1	11
678.754	1	2
679.093	1	8
679.432	1	5
679.771	1	9
680.109	1	11
680.448	1	4
680.787	1	0
681.125	1	5
681.464	1	-2
681.803	1	2
682.142	1	12
682.480	1	-6
682.819	1	-1
683.158	1	2
683.496	1	0
683.835	1	8
684.174	1	0
684.512	1	-5
684.851	1	13
685.190	1	7
685.529	1	7
685.867	1	5
686.206	1	7
686.545	1	6
686.883	1	9
687.222	1	2
687.561	1	14
687.899	1	0
688.238	1	4
688.577	1	2
688.746	1	3