File: Analysis/GaN_68K_200ms/GaN_sample E_spot4_UVVIS_68 K_200um_200 ms 2x2mm1_184.txt
340.368	1	6
340.710	1	-4
341.052	1	7
341.394	1	-4
341.737	1	5
342.079	1	-2
342.421	1	6
342.763	1	-3
343.105	1	14
343.447	1	9
343.789	1	5
344.131	1	1
344.473	1	1
344.815	1	4
345.157	1	12
345.499	1	13
345.841	1	10
346.183	1	-2
346.526	1	11
346.868	1	6
347.210	1	5
347.552	1	8
347.894	1	0
348.236	1	9
348.578	1	8
348.920	1	12
349.262	1	3
349.604	1	18
349.946	1	8
350.288	1	-3
350.630	1	-7
350.972	1	3
351.314	1	5
351.656	1	15
351.998	1	2
352.340	1	3
352.682	1	-2
353.024	1	-2
353.366	1	5
353.708	1	4
354.050	1	16
354.392	1	11
354.734	1	9
355.076	1	10
355.418	1	6
355.760	1	9
356.102	1	-1
356.444	1	6
356.785	1	17
357.127	1	5
357.469	1	-1
357.811	1	17
358.153	1	5
358.495	1	12
358.837	1	7
359.179	1	13
359.521	1	6
359.863	1	-5
360.205	1	9
360.547	1	12
360.889	1	16
361.231	1	9
361.572	1	8
361.914	1	6
362.256	1	24
362.598	1	13
362.940	1	10
363.282	1	12
363.624	1	20
363.966	1	15
364.308	1	15
364.649	1	16
364.991	1	25
365.333	1	30
365.675	1	24
366.017	1	31
366.359	1	29
366.701	1	17
367.042	1	37
367.384	1	33
367.726	1	45
368.068	1	25
368.410	1	24
368.752	1	10
369.093	1	28
369.435	1	21
369.777	1	10
370.119	1	30
370.461	1	24
370.803	1	16
371.144	1	29
371.486	1	25
371.828	1	19
372.170	1	21
372.512	1	18
372.853	1	19
373.195	1	10
373.537	1	22
373.879	1	22
374.220	1	18
374.562	1	7
374.904	1	19
375.246	1	15
375.588	1	19
375.929	1	13
376.271	1	13
376.613	1	8
376.955	1	5
377.296	1	11
377.638	1	12
377.980	1	12
378.321	1	15
378.663	1	9
379.005	1	11
379.347	1	14
379.688	1	8
380.030	1	4
380.372	1	20
380.714	1	13
381.055	1	9
381.397	1	-2
381.739	1	24
382.080	1	6
382.422	1	23
382.764	1	8
383.105	1	23
383.447	1	29
383.789	1	29
384.130	1	19
384.472	1	10
384.814	1	25
385.156	1	29
385.497	1	35
385.839	1	39
386.180	1	35
386.522	1	35
386.864	1	27
387.205	1	44
387.547	1	24
387.889	1	50
388.230	1	37
388.572	1	30
388.914	1	40
389.255	1	43
389.597	1	26
389.939	1	41
390.280	1	44
390.622	1	20
390.963	1	39
391.305	1	46
391.647	1	30
391.988	1	28
392.330	1	34
392.671	1	33
393.013	1	35
393.355	1	40
393.696	1	26
394.038	1	22
394.379	1	27
394.721	1	30
395.062	1	24
395.404	1	31
395.746	1	19
396.087	1	25
396.429	1	32
396.770	1	33
397.112	1	30
397.453	1	30
397.795	1	25
398.136	1	30
398.478	1	22
398.819	1	41
399.161	1	24
399.503	1	31
399.844	1	28
400.186	1	27
400.527	1	31
400.869	1	30
401.210	1	23
401.552	1	38
401.893	1	18
402.235	1	27
402.576	1	24
402.918	1	17
403.259	1	16
403.601	1	11
403.942	1	30
404.284	1	14
404.625	1	19
404.967	1	26
405.308	1	20
405.649	1	20
405.991	1	27
406.332	1	21
406.674	1	20
407.015	1	8
407.357	1	22
407.698	1	13
408.040	1	17
408.381	1	20
408.722	1	17
409.064	1	23
409.405	1	18
409.747	1	10
410.088	1	22
410.430	1	30
410.771	1	17
411.112	1	30
411.454	1	34
411.795	1	21
412.137	1	26
412.478	1	25
412.819	1	17
413.161	1	15
413.502	1	11
413.844	1	19
414.185	1	7
414.526	1	16
414.868	1	28
415.209	1	20
415.550	1	9
415.892	1	8
416.233	1	18
416.575	1	9
416.916	1	15
417.257	1	28
417.599	1	11
417.940	1	14
418.281	1	13
418.623	1	12
418.964	1	15
419.305	1	12
419.647	1	15
419.988	1	10
420.329	1	18
420.671	1	16
421.012	1	11
421.353	1	24
421.695	1	10
422.036	1	17
422.377	1	20
422.718	1	17
423.060	1	12
423.401	1	16
423.742	1	12
424.084	1	25
424.425	1	16
424.766	1	11
425.107	1	6
425.449	1	19
425.790	1	8
426.131	1	15
426.472	1	9
426.814	1	14
427.155	1	8
427.496	1	24
427.837	1	1
428.179	1	1
428.520	1	10
428.861	1	5
429.202	1	21
429.544	1	19
429.885	1	3
430.226	1	9
430.567	1	21
430.909	1	1
431.250	1	0
431.591	1	17
431.932	1	14
432.273	1	3
432.615	1	18
432.956	1	16
433.297	1	12
433.638	1	4
433.979	1	0
434.320	1	15
434.662	1	11
435.003	1	12
435.344	1	12
435.685	1	12
436.026	1	2
436.368	1	1
436.709	1	9
437.050	1	16
437.391	1	9
437.732	1	16
438.073	1	15
438.414	1	17
438.756	1	20
439.097	1	16
439.438	1	22
439.779	1	9
440.120	1	10
440.461	1	0
440.802	1	12
441.143	1	9
441.485	1	17
441.826	1	-3
442.167	1	8
442.508	1	7
442.849	1	8
443.190	1	-3
443.531	1	3
443.872	1	8
444.213	1	1
444.554	1	0
444.895	1	11
445.237	1	1
445.578	1	8
445.919	1	8
446.260	1	6
446.601	1	6
446.942	1	7
447.283	1	13
447.624	1	9
447.965	1	13
448.306	1	7
448.647	1	20
448.988	1	-8
449.329	1	11
449.670	1	14
450.011	1	16
450.352	1	11
450.693	1	13
451.034	1	12
451.375	1	3
451.716	1	15
452.057	1	21
452.398	1	14
452.739	1	3
453.080	1	24
453.421	1	8
453.762	1	7
454.103	1	5
454.444	1	21
454.785	1	3
455.126	1	12
455.467	1	19
455.808	1	8
456.149	1	6
456.490	1	4
456.831	1	19
457.172	1	2
457.513	1	10
457.854	1	2
458.195	1	7
458.536	1	4
458.877	1	4
459.218	1	13
459.559	1	8
459.899	1	17
460.240	1	12
460.581	1	13
460.922	1	6
461.263	1	16
461.604	1	3
461.945	1	13
462.286	1	2
462.627	1	7
462.968	1	9
463.309	1	6
463.649	1	10
463.990	1	8
464.331	1	8
464.672	1	10
465.013	1	0
465.354	1	0
465.695	1	12
466.036	1	3
466.376	1	8
466.717	1	-1
467.058	1	11
467.399	1	12
467.740	1	-7
468.081	1	5
468.422	1	4
468.762	1	-6
469.103	1	7
469.444	1	5
469.785	1	11
470.126	1	9
470.467	1	2
470.807	1	7
471.148	1	5
471.489	1	7
471.830	1	18
472.171	1	3
472.511	1	12
472.852	1	4
473.193	1	-8
473.534	1	13
473.875	1	16
474.215	1	9
474.556	1	-1
474.897	1	4
475.238	1	2
475.578	1	8
475.919	1	4
476.260	1	4
476.601	1	2
476.942	1	5
477.282	1	-10
477.623	1	14
477.964	1	11
478.305	1	9
478.645	1	5
478.986	1	7
479.327	1	6
479.667	1	-2
480.008	1	7
480.349	1	4
480.690	1	9
481.030	1	4
481.371	1	6
481.712	1	10
482.053	1	11
482.393	1	-11
482.734	1	13
483.075	1	6
483.415	1	18
483.756	1	17
484.097	1	-1
484.437	1	7
484.778	1	5
485.119	1	11
485.459	1	14
485.800	1	3
486.141	1	1
486.481	1	8
486.822	1	8
487.163	1	-3
487.503	1	-1
487.844	1	10
488.185	1	0
488.525	1	-1
488.866	1	17
489.207	1	18
489.547	1	-2
489.888	1	10
490.228	1	-4
490.569	1	24
490.910	1	6
491.250	1	13
491.591	1	4
491.932	1	10
492.272	1	25
492.613	1	14
492.953	1	13
493.294	1	25
493.635	1	9
493.975	1	6
494.316	1	10
494.656	1	0
494.997	1	1
495.337	1	5
495.678	1	11
496.019	1	2
496.359	1	7
496.700	1	16
497.040	1	6
497.381	1	1
497.721	1	1
498.062	1	6
498.403	1	9
498.743	1	15
499.084	1	7
499.424	1	17
499.765	1	17
500.105	1	24
500.446	1	23
500.786	1	9
501.127	1	10
501.467	1	14
501.808	1	2
502.148	1	18
502.489	1	22
502.829	1	11
503.170	1	20
503.510	1	11
503.851	1	6
504.191	1	9
504.532	1	10
504.872	1	5
505.213	1	12
505.553	1	16
505.894	1	6
506.234	1	25
506.575	1	13
506.915	1	18
507.256	1	17
507.596	1	24
507.936	1	16
508.277	1	15
508.617	1	30
508.958	1	27
509.298	1	20
509.639	1	21
509.979	1	14
510.319	1	16
510.660	1	21
511.000	1	20
511.341	1	6
511.681	1	13
512.022	1	9
512.362	1	11
512.702	1	12
513.043	1	7
513.383	1	7
513.724	1	23
514.064	1	16
514.404	1	22
514.745	1	18
515.085	1	12
515.425	1	18
515.766	1	14
516.106	1	6
516.447	1	19
516.787	1	16
517.127	1	24
517.468	1	11
517.808	1	15
518.148	1	9
518.489	1	23
518.829	1	9
519.169	1	28
519.510	1	25
519.850	1	14
520.190	1	21
520.531	1	21
520.871	1	6
521.211	1	22
521.552	1	21
521.892	1	14
522.232	1	10
522.573	1	14
522.913	1	17
523.253	1	25
523.593	1	5
523.934	1	29
524.274	1	14
524.614	1	21
524.955	1	16
525.295	1	6
525.635	1	33
525.975	1	14
526.316	1	24
526.656	1	42
526.996	1	33
527.337	1	15
527.677	1	25
528.017	1	14
528.357	1	30
528.698	1	21
529.038	1	23
529.378	1	26
529.718	1	26
530.058	1	26
530.399	1	29
530.739	1	15
531.079	1	27
531.419	1	23
531.760	1	33
532.100	1	29
532.440	1	26
532.780	1	20
533.120	1	19
533.461	1	36
533.801	1	25
534.141	1	27
534.481	1	22
534.821	1	25
535.162	1	11
535.502	1	21
535.842	1	25
536.182	1	30
536.522	1	28
536.862	1	23
537.203	1	25
537.543	1	26
537.883	1	28
538.223	1	21
538.563	1	20
538.903	1	22
539.243	1	16
539.584	1	19
539.924	1	19
540.264	1	14
540.604	1	22
540.944	1	18
541.284	1	17
541.624	1	24
541.964	1	24
542.305	1	14
542.645	1	17
542.985	1	13
543.325	1	12
543.665	1	28
544.005	1	19
544.345	1	12
544.685	1	29
545.025	1	21
545.365	1	22
545.705	1	18
546.045	1	30
546.386	1	22
546.726	1	18
547.066	1	8
547.406	1	22
547.746	1	34
548.086	1	24
548.426	1	17
548.766	1	21
549.106	1	18
549.446	1	11
549.786	1	22
550.126	1	20
550.466	1	12
550.806	1	18
551.146	1	16
551.486	1	28
551.826	1	28
552.166	1	8
552.506	1	16
552.846	1	20
553.186	1	22
553.526	1	13
553.866	1	19
554.206	1	11
554.546	1	5
554.886	1	17
555.226	1	13
555.566	1	22
555.906	1	6
556.246	1	16
556.586	1	20
556.926	1	21
557.266	1	17
557.606	1	0
557.946	1	18
558.286	1	21
558.626	1	20
558.966	1	10
559.306	1	13
559.646	1	18
559.986	1	6
560.325	1	2
560.665	1	20
561.005	1	9
561.345	1	15
561.685	1	14
562.025	1	10
562.365	1	17
562.705	1	24
563.045	1	24
563.385	1	2
563.725	1	22
564.064	1	17
564.404	1	20
564.744	1	21
565.084	1	1
565.424	1	18
565.764	1	17
566.104	1	14
566.444	1	26
566.783	1	11
567.123	1	26
567.463	1	8
567.803	1	9
568.143	1	9
568.483	1	5
568.823	1	19
569.162	1	18
569.502	1	14
569.842	1	10
570.182	1	7
570.522	1	8
570.862	1	12
571.201	1	20
571.541	1	7
571.881	1	7
572.221	1	16
572.561	1	9
572.900	1	23
573.240	1	11
573.580	1	7
573.920	1	5
574.260	1	4
574.599	1	5
574.939	1	13
575.279	1	13
575.619	1	17
575.959	1	10
576.298	1	-10
576.638	1	11
576.978	1	12
577.318	1	18
577.657	1	1
577.997	1	8
578.337	1	11
578.677	1	15
579.016	1	21
579.356	1	6
579.696	1	12
580.036	1	4
580.375	1	6
580.715	1	22
581.055	1	15
581.394	1	1
581.734	1	8
582.074	1	1
582.414	1	9
582.753	1	16
583.093	1	4
583.433	1	2
583.772	1	13
584.112	1	11
584.452	1	6
584.791	1	2
585.131	1	-2
585.471	1	-1
585.811	1	0
586.150	1	12
586.490	1	1
586.830	1	1
587.169	1	6
587.509	1	12
587.849	1	21
588.188	1	1
588.528	1	8
588.867	1	16
589.207	1	7
589.547	1	10
589.886	1	2
590.226	1	14
590.566	1	6
590.905	1	10
591.245	1	10
591.585	1	-2
591.924	1	4
592.264	1	9
592.603	1	-5
592.943	1	5
593.283	1	7
593.622	1	7
593.962	1	10
594.301	1	18
594.641	1	1
594.981	1	2
595.320	1	9
595.660	1	-1
595.999	1	13
596.339	1	16
596.678	1	7
597.018	1	7
597.358	1	4
597.697	1	2
598.037	1	3
598.376	1	10
598.716	1	-4
599.055	1	7
599.395	1	10
599.734	1	13
600.074	1	8
600.413	1	4
600.753	1	7
601.092	1	-6
601.432	1	4
601.771	1	12
602.111	1	10
602.451	1	6
602.790	1	22
603.130	1	10
603.469	1	-4
603.809	1	3
604.148	1	5
604.487	1	18
604.827	1	-13
605.166	1	10
605.506	1	11
605.845	1	7
606.185	1	8
606.524	1	-3
606.864	1	-2
607.203	1	11
607.543	1	-1
607.882	1	1
608.222	1	1
608.561	1	6
608.901	1	9
609.240	1	-1
609.579	1	7
609.919	1	-4
610.258	1	16
610.598	1	-1
610.937	1	4
611.277	1	11
611.616	1	0
611.955	1	11
612.295	1	5
612.634	1	5
612.974	1	10
613.313	1	9
613.652	1	1
613.992	1	11
614.331	1	1
614.671	1	12
615.010	1	7
615.349	1	-3
615.689	1	8
616.028	1	2
616.368	1	-1
616.707	1	8
617.046	1	9
617.386	1	8
617.725	1	11
618.064	1	5
618.404	1	14
618.743	1	13
619.082	1	11
619.422	1	3
619.761	1	18
620.100	1	8
620.440	1	7
620.779	1	6
621.118	1	4
621.458	1	10
621.797	1	9
622.136	1	8
622.476	1	2
622.815	1	4
623.154	1	7
623.494	1	0
623.833	1	8
624.172	1	11
624.511	1	6
624.851	1	3
625.190	1	-2
625.529	1	12
625.869	1	11
626.208	1	-3
626.547	1	16
626.886	1	4
627.226	1	1
627.565	1	14
627.904	1	14
628.243	1	0
628.583	1	3
628.922	1	3
629.261	1	4
629.600	1	7
629.940	1	3
630.279	1	1
630.618	1	5
630.957	1	2
631.297	1	1
631.636	1	8
631.975	1	6
632.314	1	17
632.653	1	-1
632.993	1	11
633.332	1	11
633.671	1	3
634.010	1	14
634.349	1	7
634.689	1	6
635.028	1	-1
635.367	1	6
635.706	1	-17
636.045	1	11
636.384	1	6
636.724	1	-3
637.063	1	12
637.402	1	12
637.741	1	6
638.080	1	9
638.419	1	10
638.759	1	4
639.098	1	9
639.437	1	-4
639.776	1	4
640.115	1	-3
640.454	1	10
640.793	1	9
641.132	1	15
641.472	1	0
641.811	1	7
642.150	1	3
642.489	1	2
642.828	1	7
643.167	1	10
643.506	1	9
643.845	1	3
644.184	1	12
644.524	1	-3
644.863	1	-2
645.202	1	12
645.541	1	-5
645.880	1	4
646.219	1	11
646.558	1	-8
646.897	1	2
647.236	1	5
647.575	1	7
647.914	1	-6
648.253	1	11
648.592	1	8
648.931	1	18
649.270	1	14
649.610	1	13
649.949	1	6
650.288	1	0
650.627	1	11
650.966	1	-2
651.305	1	-1
651.644	1	0
651.983	1	4
652.322	1	3
652.661	1	9
653.000	1	6
653.339	1	4
653.678	1	7
654.017	1	5
654.356	1	16
654.695	1	10
655.034	1	6
655.373	1	10
655.712	1	6
656.051	1	10
656.390	1	8
656.729	1	2
657.068	1	3
657.406	1	7
657.745	1	2
658.084	1	8
658.423	1	-10
658.762	1	-9
659.101	1	2
659.440	1	8
659.779	1	1
660.118	1	11
660.457	1	-2
660.796	1	0
661.135	1	1
661.474	1	-1
661.813	1	8
662.152	1	3
662.491	1	7
662.829	1	-6
663.168	1	-7
663.507	1	3
663.846	1	18
664.185	1	0
664.524	1	-5
664.863	1	1
665.202	1	3
665.541	1	5
665.879	1	7
666.218	1	-7
666.557	1	1
666.896	1	4
667.235	1	2
667.574	1	9
667.913	1	6
668.251	1	7
668.590	1	-1
668.929	1	3
669.268	1	-2
669.607	1	-6
669.946	1	14
670.285	1	7
670.623	1	12
670.962	1	3
671.301	1	2
671.640	1	-8
671.979	1	15
672.317	1	5
672.656	1	2
672.995	1	-1
673.334	1	9
673.673	1	28
674.011	1	12
674.350	1	3
674.689	1	5
675.028	1	9
675.367	1	8
675.705	1	-6
676.044	1	0
676.383	1	2
676.722	1	0
677.060	1	5
677.399	1	2
677.738	1	-1
678.077	1	10
678.416	1	4
678.754	1	3
679.093	1	1
679.432	1	-5
679.771	1	2
680.109	1	8
680.448	1	2
680.787	1	-1
681.125	1	7
681.464	1	-1
681.803	1	-13
682.142	1	19
682.480	1	-5
682.819	1	-5
683.158	1	8
683.496	1	-3
683.835	1	-1
684.174	1	1
684.512	1	2
684.851	1	-2
685.190	1	13
685.529	1	4
685.867	1	2
686.206	1	0
686.545	1	9
686.883	1	3
687.222	1	-5
687.561	1	0
687.899	1	3
688.238	1	1
688.577	1	4
688.746	1	6