File: Analysis/GaN_68K_200ms/GaN_sample E_spot4_UVVIS_68 K_200um_200 ms 2x2mm1_712.txt
340.368	1	-4
340.710	1	-4
341.052	1	7
341.394	1	-10
341.737	1	8
342.079	1	-11
342.421	1	-5
342.763	1	-8
343.105	1	6
343.447	1	8
343.789	1	-2
344.131	1	-2
344.473	1	-3
344.815	1	4
345.157	1	2
345.499	1	-1
345.841	1	7
346.183	1	3
346.526	1	-5
346.868	1	9
347.210	1	1
347.552	1	5
347.894	1	-1
348.236	1	5
348.578	1	7
348.920	1	11
349.262	1	0
349.604	1	14
349.946	1	14
350.288	1	3
350.630	1	-4
350.972	1	-7
351.314	1	-9
351.656	1	-2
351.998	1	-10
352.340	1	5
352.682	1	-3
353.024	1	1
353.366	1	10
353.708	1	2
354.050	1	0
354.392	1	3
354.734	1	-1
355.076	1	9
355.418	1	-6
355.760	1	2
356.102	1	-6
356.444	1	3
356.785	1	15
357.127	1	2
357.469	1	-2
357.811	1	16
358.153	1	2
358.495	1	9
358.837	1	3
359.179	1	2
359.521	1	3
359.863	1	-9
360.205	1	-5
360.547	1	-1
360.889	1	-4
361.231	1	-1
361.572	1	2
361.914	1	0
362.256	1	9
362.598	1	-4
362.940	1	1
363.282	1	-1
363.624	1	3
363.966	1	4
364.308	1	3
364.649	1	0
364.991	1	3
365.333	1	0
365.675	1	-1
366.017	1	5
366.359	1	0
366.701	1	-6
367.042	1	8
367.384	1	12
367.726	1	14
368.068	1	1
368.410	1	-4
368.752	1	-4
369.093	1	2
369.435	1	0
369.777	1	2
370.119	1	4
370.461	1	-11
370.803	1	-7
371.144	1	-5
371.486	1	8
371.828	1	-1
372.170	1	9
372.512	1	-7
372.853	1	10
373.195	1	-2
373.537	1	0
373.879	1	15
374.220	1	2
374.562	1	-4
374.904	1	4
375.246	1	4
375.588	1	2
375.929	1	3
376.271	1	-6
376.613	1	4
376.955	1	-2
377.296	1	11
377.638	1	-3
377.980	1	3
378.321	1	2
378.663	1	2
379.005	1	3
379.347	1	4
379.688	1	-11
380.030	1	0
380.372	1	3
380.714	1	7
381.055	1	-3
381.397	1	5
381.739	1	11
382.080	1	-3
382.422	1	5
382.764	1	-7
383.105	1	-2
383.447	1	14
383.789	1	11
384.130	1	-5
384.472	1	-14
384.814	1	0
385.156	1	11
385.497	1	4
385.839	1	-1
386.180	1	9
386.522	1	6
386.864	1	-3
387.205	1	-4
387.547	1	-10
387.889	1	4
388.230	1	-1
388.572	1	5
388.914	1	9
389.255	1	-3
389.597	1	-14
389.939	1	1
390.280	1	9
390.622	1	-1
390.963	1	0
391.305	1	10
391.647	1	4
391.988	1	3
392.330	1	7
392.671	1	17
393.013	1	17
393.355	1	13
393.696	1	-5
394.038	1	-2
394.379	1	-11
394.721	1	3
395.062	1	-12
395.404	1	6
395.746	1	-8
396.087	1	7
396.429	1	4
396.770	1	2
397.112	1	-5
397.453	1	-11
397.795	1	-2
398.136	1	10
398.478	1	4
398.819	1	9
399.161	1	-5
399.503	1	0
399.844	1	-7
400.186	1	19
400.527	1	5
400.869	1	8
401.210	1	-12
401.552	1	5
401.893	1	8
402.235	1	8
402.576	1	15
402.918	1	-14
403.259	1	-13
403.601	1	-11
403.942	1	9
404.284	1	1
404.625	1	-2
404.967	1	1
405.308	1	-1
405.649	1	-2
405.991	1	2
406.332	1	-3
406.674	1	-2
407.015	1	-8
407.357	1	7
407.698	1	0
408.040	1	-13
408.381	1	-4
408.722	1	1
409.064	1	-1
409.405	1	10
409.747	1	-5
410.088	1	6
410.430	1	5
410.771	1	8
411.112	1	6
411.454	1	14
411.795	1	10
412.137	1	6
412.478	1	-3
412.819	1	0
413.161	1	-1
413.502	1	-11
413.844	1	-3
414.185	1	9
414.526	1	4
414.868	1	11
415.209	1	1
415.550	1	-6
415.892	1	-1
416.233	1	2
416.575	1	-7
416.916	1	-2
417.257	1	0
417.599	1	9
417.940	1	-5
418.281	1	5
418.623	1	-3
418.964	1	-3
419.305	1	0
419.647	1	6
419.988	1	-2
420.329	1	1
420.671	1	2
421.012	1	6
421.353	1	10
421.695	1	5
422.036	1	-1
422.377	1	0
422.718	1	1
423.060	1	-7
423.401	1	-1
423.742	1	5
424.084	1	8
424.425	1	-3
424.766	1	4
425.107	1	6
425.449	1	6
425.790	1	-2
426.131	1	-1
426.472	1	-6
426.814	1	5
427.155	1	-4
427.496	1	2
427.837	1	-8
428.179	1	1
428.520	1	-10
428.861	1	-6
429.202	1	7
429.544	1	2
429.885	1	-6
430.226	1	0
430.567	1	11
430.909	1	-11
431.250	1	-11
431.591	1	4
431.932	1	-6
432.273	1	0
432.615	1	3
432.956	1	0
433.297	1	3
433.638	1	0
433.979	1	1
434.320	1	-9
434.662	1	-9
435.003	1	-4
435.344	1	9
435.685	1	9
436.026	1	-7
436.368	1	-1
436.709	1	0
437.050	1	-5
437.391	1	10
437.732	1	4
438.073	1	1
438.414	1	-1
438.756	1	4
439.097	1	-3
439.438	1	9
439.779	1	-6
440.120	1	6
440.461	1	-2
440.802	1	0
441.143	1	2
441.485	1	-11
441.826	1	-5
442.167	1	-4
442.508	1	-2
442.849	1	6
443.190	1	-6
443.531	1	-3
443.872	1	-4
444.213	1	-4
444.554	1	-3
444.895	1	3
445.237	1	-10
445.578	1	7
445.919	1	-4
446.260	1	6
446.601	1	-7
446.942	1	0
447.283	1	3
447.624	1	5
447.965	1	-10
448.306	1	3
448.647	1	1
448.988	1	-11
449.329	1	1
449.670	1	3
450.011	1	-3
450.352	1	11
450.693	1	9
451.034	1	-6
451.375	1	11
451.716	1	11
452.057	1	7
452.398	1	-1
452.739	1	0
453.080	1	10
453.421	1	4
453.762	1	5
454.103	1	0
454.444	1	5
454.785	1	-7
455.126	1	1
455.467	1	5
455.808	1	-3
456.149	1	-16
456.490	1	1
456.831	1	11
457.172	1	-4
457.513	1	22
457.854	1	0
458.195	1	-3
458.536	1	1
458.877	1	0
459.218	1	2
459.559	1	-7
459.899	1	3
460.240	1	0
460.581	1	8
460.922	1	-3
461.263	1	9
461.604	1	3
461.945	1	8
462.286	1	12
462.627	1	1
462.968	1	-4
463.309	1	-11
463.649	1	-4
463.990	1	0
464.331	1	4
464.672	1	5
465.013	1	-5
465.354	1	-3
465.695	1	11
466.036	1	1
466.376	1	-2
466.717	1	-2
467.058	1	11
467.399	1	-1
467.740	1	-3
468.081	1	0
468.422	1	-4
468.762	1	-6
469.103	1	-9
469.444	1	-4
469.785	1	5
470.126	1	0
470.467	1	0
470.807	1	0
471.148	1	0
471.489	1	-4
471.830	1	15
472.171	1	7
472.511	1	5
472.852	1	-4
473.193	1	2
473.534	1	-1
473.875	1	7
474.215	1	-3
474.556	1	-13
474.897	1	9
475.238	1	-5
475.578	1	-1
475.919	1	1
476.260	1	0
476.601	1	0
476.942	1	1
477.282	1	-8
477.623	1	3
477.964	1	1
478.305	1	3
478.645	1	-10
478.986	1	-2
479.327	1	-9
479.667	1	2
480.008	1	12
480.349	1	2
480.690	1	-2
481.030	1	-4
481.371	1	0
481.712	1	-4
482.053	1	4
482.393	1	-3
482.734	1	1
483.075	1	-5
483.415	1	-2
483.756	1	14
484.097	1	-5
484.437	1	-13
484.778	1	-1
485.119	1	9
485.459	1	3
485.800	1	-5
486.141	1	-6
486.481	1	-3
486.822	1	12
487.163	1	-11
487.503	1	-15
487.844	1	5
488.185	1	-11
488.525	1	-6
488.866	1	6
489.207	1	7
489.547	1	-4
489.888	1	11
490.228	1	-8
490.569	1	13
490.910	1	-2
491.250	1	-1
491.591	1	-1
491.932	1	10
492.272	1	10
492.613	1	3
492.953	1	10
493.294	1	7
493.635	1	0
493.975	1	9
494.316	1	4
494.656	1	-1
494.997	1	0
495.337	1	8
495.678	1	3
496.019	1	-12
496.359	1	-1
496.700	1	-8
497.040	1	0
497.381	1	-17
497.721	1	-4
498.062	1	0
498.403	1	2
498.743	1	1
499.084	1	-14
499.424	1	12
499.765	1	3
500.105	1	6
500.446	1	7
500.786	1	2
501.127	1	6
501.467	1	4
501.808	1	-8
502.148	1	-6
502.489	1	5
502.829	1	3
503.170	1	5
503.510	1	-4
503.851	1	-17
504.191	1	0
504.532	1	-9
504.872	1	-8
505.213	1	0
505.553	1	7
505.894	1	5
506.234	1	2
506.575	1	-5
506.915	1	-8
507.256	1	-7
507.596	1	1
507.936	1	8
508.277	1	-4
508.617	1	6
508.958	1	4
509.298	1	9
509.639	1	6
509.979	1	1
510.319	1	-7
510.660	1	2
511.000	1	7
511.341	1	-11
511.681	1	0
512.022	1	-4
512.362	1	1
512.702	1	-2
513.043	1	2
513.383	1	-15
513.724	1	15
514.064	1	1
514.404	1	-1
514.745	1	10
515.085	1	-7
515.425	1	-2
515.766	1	-1
516.106	1	-4
516.447	1	-1
516.787	1	-5
517.127	1	7
517.468	1	4
517.808	1	4
518.148	1	-4
518.489	1	5
518.829	1	-8
519.169	1	10
519.510	1	1
519.850	1	-6
520.190	1	1
520.531	1	0
520.871	1	-8
521.211	1	-5
521.552	1	6
521.892	1	-10
522.232	1	-13
522.573	1	-1
522.913	1	-2
523.253	1	-1
523.593	1	-4
523.934	1	4
524.274	1	-13
524.614	1	3
524.955	1	0
525.295	1	-5
525.635	1	20
525.975	1	-13
526.316	1	-4
526.656	1	16
526.996	1	14
527.337	1	7
527.677	1	12
528.017	1	-13
528.357	1	10
528.698	1	-3
529.038	1	4
529.378	1	1
529.718	1	0
530.058	1	4
530.399	1	6
530.739	1	-2
531.079	1	8
531.419	1	-6
531.760	1	2
532.100	1	8
532.440	1	3
532.780	1	-12
533.120	1	-7
533.461	1	11
533.801	1	2
534.141	1	4
534.481	1	-3
534.821	1	-4
535.162	1	2
535.502	1	5
535.842	1	7
536.182	1	-1
536.522	1	6
536.862	1	5
537.203	1	2
537.543	1	1
537.883	1	5
538.223	1	5
538.563	1	10
538.903	1	1
539.243	1	-4
539.584	1	-3
539.924	1	5
540.264	1	5
540.604	1	4
540.944	1	1
541.284	1	5
541.624	1	4
541.964	1	6
542.305	1	-8
542.645	1	2
542.985	1	-2
543.325	1	-7
543.665	1	8
544.005	1	-3
544.345	1	-5
544.685	1	3
545.025	1	0
545.365	1	10
545.705	1	6
546.045	1	9
546.386	1	6
546.726	1	-2
547.066	1	-8
547.406	1	4
547.746	1	3
548.086	1	6
548.426	1	-6
548.766	1	8
549.106	1	2
549.446	1	2
549.786	1	8
550.126	1	-10
550.466	1	-2
550.806	1	3
551.146	1	-10
551.486	1	-2
551.826	1	-2
552.166	1	-7
552.506	1	-10
552.846	1	11
553.186	1	-5
553.526	1	-8
553.866	1	6
554.206	1	-2
554.546	1	-16
554.886	1	-1
555.226	1	4
555.566	1	9
555.906	1	6
556.246	1	-4
556.586	1	-2
556.926	1	0
557.266	1	4
557.606	1	-8
557.946	1	4
558.286	1	3
558.626	1	8
558.966	1	3
559.306	1	-2
559.646	1	-7
559.986	1	-9
560.325	1	-3
560.665	1	-7
561.005	1	-3
561.345	1	5
561.685	1	0
562.025	1	-7
562.365	1	1
562.705	1	6
563.045	1	3
563.385	1	-2
563.725	1	2
564.064	1	7
564.404	1	-12
564.744	1	-1
565.084	1	0
565.424	1	-3
565.764	1	14
566.104	1	-7
566.444	1	11
566.783	1	4
567.123	1	7
567.463	1	3
567.803	1	-10
568.143	1	-4
568.483	1	-9
568.823	1	6
569.162	1	5
569.502	1	-1
569.842	1	-1
570.182	1	-5
570.522	1	16
570.862	1	1
571.201	1	0
571.541	1	-15
571.881	1	10
572.221	1	14
572.561	1	-6
572.900	1	9
573.240	1	-6
573.580	1	-2
573.920	1	-9
574.260	1	-4
574.599	1	0
574.939	1	-3
575.279	1	-1
575.619	1	-10
575.959	1	-4
576.298	1	-10
576.638	1	-4
576.978	1	1
577.318	1	0
577.657	1	-12
577.997	1	-8
578.337	1	2
578.677	1	3
579.016	1	10
579.356	1	-11
579.696	1	2
580.036	1	-7
580.375	1	1
580.715	1	7
581.055	1	-6
581.394	1	0
581.734	1	7
582.074	1	5
582.414	1	10
582.753	1	5
583.093	1	-5
583.433	1	-14
583.772	1	-2
584.112	1	4
584.452	1	-8
584.791	1	-1
585.131	1	0
585.471	1	-5
585.811	1	-1
586.150	1	3
586.490	1	-11
586.830	1	-8
587.169	1	4
587.509	1	-3
587.849	1	8
588.188	1	4
588.528	1	1
588.867	1	-2
589.207	1	-9
589.547	1	-6
589.886	1	-1
590.226	1	3
590.566	1	6
590.905	1	7
591.245	1	-3
591.585	1	-10
591.924	1	0
592.264	1	-2
592.603	1	-4
592.943	1	-2
593.283	1	1
593.622	1	4
593.962	1	-4
594.301	1	5
594.641	1	2
594.981	1	5
595.320	1	7
595.660	1	1
595.999	1	3
596.339	1	0
596.678	1	1
597.018	1	2
597.358	1	3
597.697	1	-4
598.037	1	6
598.376	1	8
598.716	1	-14
599.055	1	0
599.395	1	1
599.734	1	1
600.074	1	0
600.413	1	8
600.753	1	0
601.092	1	-8
601.432	1	-4
601.771	1	5
602.111	1	-7
602.451	1	-1
602.790	1	1
603.130	1	1
603.469	1	5
603.809	1	-3
604.148	1	1
604.487	1	-3
604.827	1	-12
605.166	1	0
605.506	1	9
605.845	1	-1
606.185	1	-6
606.524	1	-8
606.864	1	-10
607.203	1	5
607.543	1	-8
607.882	1	-10
608.222	1	3
608.561	1	2
608.901	1	0
609.240	1	-10
609.579	1	2
609.919	1	-4
610.258	1	12
610.598	1	-6
610.937	1	-8
611.277	1	-1
611.616	1	-5
611.955	1	2
612.295	1	2
612.634	1	6
612.974	1	0
613.313	1	3
613.652	1	-12
613.992	1	7
614.331	1	4
614.671	1	7
615.010	1	6
615.349	1	-6
615.689	1	0
616.028	1	4
616.368	1	-6
616.707	1	-6
617.046	1	3
617.386	1	-1
617.725	1	7
618.064	1	13
618.404	1	3
618.743	1	-8
619.082	1	0
619.422	1	1
619.761	1	5
620.100	1	8
620.440	1	-1
620.779	1	-2
621.118	1	-2
621.458	1	8
621.797	1	0
622.136	1	-3
622.476	1	5
622.815	1	6
623.154	1	-9
623.494	1	6
623.833	1	-3
624.172	1	4
624.511	1	-7
624.851	1	-19
625.190	1	4
625.529	1	-6
625.869	1	1
626.208	1	-7
626.547	1	-2
626.886	1	-1
627.226	1	-7
627.565	1	10
627.904	1	5
628.243	1	-12
628.583	1	-1
628.922	1	-3
629.261	1	2
629.600	1	3
629.940	1	-2
630.279	1	-3
630.618	1	0
630.957	1	-2
631.297	1	-1
631.636	1	-3
631.975	1	2
632.314	1	9
632.653	1	-2
632.993	1	5
633.332	1	3
633.671	1	4
634.010	1	-3
634.349	1	4
634.689	1	6
635.028	1	-1
635.367	1	-5
635.706	1	-7
636.045	1	1
636.384	1	1
636.724	1	1
637.063	1	5
637.402	1	-3
637.741	1	6
638.080	1	-1
638.419	1	10
638.759	1	0
639.098	1	5
639.437	1	-11
639.776	1	1
640.115	1	-10
640.454	1	13
640.793	1	11
641.132	1	3
641.472	1	-9
641.811	1	1
642.150	1	5
642.489	1	1
642.828	1	8
643.167	1	7
643.506	1	-7
643.845	1	-3
644.184	1	1
644.524	1	-10
644.863	1	-12
645.202	1	0
645.541	1	-17
645.880	1	2
646.219	1	-4
646.558	1	-2
646.897	1	-1
647.236	1	0
647.575	1	2
647.914	1	-5
648.253	1	0
648.592	1	-1
648.931	1	4
649.270	1	5
649.610	1	12
649.949	1	-8
650.288	1	-15
650.627	1	-7
650.966	1	-7
651.305	1	-4
651.644	1	-2
651.983	1	4
652.322	1	6
652.661	1	0
653.000	1	6
653.339	1	5
653.678	1	-3
654.017	1	1
654.356	1	7
654.695	1	12
655.034	1	-1
655.373	1	-4
655.712	1	-3
656.051	1	2
656.390	1	-3
656.729	1	9
657.068	1	-12
657.406	1	7
657.745	1	-9
658.084	1	1
658.423	1	-1
658.762	1	-4
659.101	1	-4
659.440	1	7
659.779	1	-6
660.118	1	0
660.457	1	-4
660.796	1	-2
661.135	1	0
661.474	1	7
661.813	1	-5
662.152	1	6
662.491	1	-7
662.829	1	-6
663.168	1	2
663.507	1	-5
663.846	1	8
664.185	1	-7
664.524	1	-14
664.863	1	-7
665.202	1	-4
665.541	1	-2
665.879	1	0
666.218	1	-5
666.557	1	8
666.896	1	-6
667.235	1	1
667.574	1	1
667.913	1	2
668.251	1	-18
668.590	1	-9
668.929	1	2
669.268	1	0
669.607	1	-10
669.946	1	7
670.285	1	1
670.623	1	5
670.962	1	1
671.301	1	2
671.640	1	-18
671.979	1	7
672.317	1	9
672.656	1	10
672.995	1	-1
673.334	1	6
673.673	1	14
674.011	1	2
674.350	1	-6
674.689	1	4
675.028	1	-3
675.367	1	4
675.705	1	-11
676.044	1	-1
676.383	1	-6
676.722	1	-7
677.060	1	2
677.399	1	-9
677.738	1	0
678.077	1	2
678.416	1	1
678.754	1	-1
679.093	1	-4
679.432	1	-2
679.771	1	4
680.109	1	3
680.448	1	-4
680.787	1	3
681.125	1	5
681.464	1	0
681.803	1	-16
682.142	1	5
682.480	1	-5
682.819	1	10
683.158	1	1
683.496	1	-6
683.835	1	7
684.174	1	-4
684.512	1	-4
684.851	1	1
685.190	1	11
685.529	1	3
685.867	1	3
686.206	1	2
686.545	1	1
686.883	1	-14
687.222	1	-10
687.561	1	0
687.899	1	1
688.238	1	3
688.577	1	-12
688.746	1	-2