File: Analysis/GaN_68K_200ms/GaN_sample E_spot4_UVVIS_68 K_200um_200 ms 2x2mm1_277.txt
340.368	1	1
340.710	1	0
341.052	1	0
341.394	1	-8
341.737	1	8
342.079	1	-2
342.421	1	-4
342.763	1	3
343.105	1	11
343.447	1	4
343.789	1	4
344.131	1	-2
344.473	1	5
344.815	1	6
345.157	1	7
345.499	1	7
345.841	1	-8
346.183	1	4
346.526	1	6
346.868	1	3
347.210	1	1
347.552	1	3
347.894	1	9
348.236	1	4
348.578	1	2
348.920	1	7
349.262	1	-1
349.604	1	10
349.946	1	14
350.288	1	-3
350.630	1	-5
350.972	1	-3
351.314	1	2
351.656	1	3
351.998	1	-2
352.340	1	2
352.682	1	-4
353.024	1	-4
353.366	1	15
353.708	1	10
354.050	1	0
354.392	1	14
354.734	1	1
355.076	1	4
355.418	1	-6
355.760	1	-1
356.102	1	-1
356.444	1	9
356.785	1	19
357.127	1	8
357.469	1	1
357.811	1	16
358.153	1	11
358.495	1	13
358.837	1	7
359.179	1	10
359.521	1	6
359.863	1	8
360.205	1	0
360.547	1	6
360.889	1	7
361.231	1	1
361.572	1	-5
361.914	1	7
362.256	1	10
362.598	1	9
362.940	1	-3
363.282	1	6
363.624	1	3
363.966	1	12
364.308	1	3
364.649	1	3
364.991	1	11
365.333	1	20
365.675	1	7
366.017	1	10
366.359	1	10
366.701	1	4
367.042	1	20
367.384	1	12
367.726	1	16
368.068	1	9
368.410	1	10
368.752	1	4
369.093	1	8
369.435	1	12
369.777	1	6
370.119	1	9
370.461	1	10
370.803	1	9
371.144	1	12
371.486	1	15
371.828	1	15
372.170	1	12
372.512	1	2
372.853	1	7
373.195	1	2
373.537	1	6
373.879	1	12
374.220	1	8
374.562	1	10
374.904	1	3
375.246	1	11
375.588	1	6
375.929	1	3
376.271	1	4
376.613	1	10
376.955	1	-1
377.296	1	8
377.638	1	4
377.980	1	2
378.321	1	15
378.663	1	7
379.005	1	19
379.347	1	10
379.688	1	-2
380.030	1	3
380.372	1	3
380.714	1	13
381.055	1	1
381.397	1	-2
381.739	1	18
382.080	1	-1
382.422	1	8
382.764	1	1
383.105	1	10
383.447	1	17
383.789	1	8
384.130	1	6
384.472	1	-4
384.814	1	19
385.156	1	12
385.497	1	21
385.839	1	17
386.180	1	15
386.522	1	17
386.864	1	3
387.205	1	6
387.547	1	7
387.889	1	14
388.230	1	8
388.572	1	13
388.914	1	14
389.255	1	19
389.597	1	11
389.939	1	13
390.280	1	20
390.622	1	4
390.963	1	16
391.305	1	24
391.647	1	14
391.988	1	3
392.330	1	18
392.671	1	17
393.013	1	17
393.355	1	23
393.696	1	1
394.038	1	11
394.379	1	9
394.721	1	7
395.062	1	-5
395.404	1	17
395.746	1	10
396.087	1	3
396.429	1	17
396.770	1	18
397.112	1	2
397.453	1	-5
397.795	1	13
398.136	1	22
398.478	1	5
398.819	1	18
399.161	1	12
399.503	1	10
399.844	1	16
400.186	1	17
400.527	1	6
400.869	1	19
401.210	1	-3
401.552	1	21
401.893	1	1
402.235	1	19
402.576	1	13
402.918	1	-4
403.259	1	-3
403.601	1	0
403.942	1	3
404.284	1	-2
404.625	1	21
404.967	1	10
405.308	1	6
405.649	1	4
405.991	1	18
406.332	1	4
406.674	1	8
407.015	1	0
407.357	1	12
407.698	1	-9
408.040	1	-1
408.381	1	6
408.722	1	7
409.064	1	21
409.405	1	6
409.747	1	-6
410.088	1	6
410.430	1	9
410.771	1	0
411.112	1	5
411.454	1	17
411.795	1	11
412.137	1	17
412.478	1	18
412.819	1	12
413.161	1	3
413.502	1	4
413.844	1	4
414.185	1	9
414.526	1	8
414.868	1	28
415.209	1	7
415.550	1	-1
415.892	1	5
416.233	1	6
416.575	1	2
416.916	1	3
417.257	1	11
417.599	1	3
417.940	1	2
418.281	1	6
418.623	1	11
418.964	1	1
419.305	1	1
419.647	1	5
419.988	1	11
420.329	1	6
420.671	1	4
421.012	1	10
421.353	1	14
421.695	1	1
422.036	1	-1
422.377	1	12
422.718	1	3
423.060	1	7
423.401	1	6
423.742	1	4
424.084	1	11
424.425	1	9
424.766	1	8
425.107	1	3
425.449	1	18
425.790	1	2
426.131	1	21
426.472	1	-9
426.814	1	15
427.155	1	6
427.496	1	9
427.837	1	1
428.179	1	7
428.520	1	-4
428.861	1	10
429.202	1	18
429.544	1	10
429.885	1	2
430.226	1	-2
430.567	1	18
430.909	1	-4
431.250	1	-5
431.591	1	7
431.932	1	5
432.273	1	4
432.615	1	10
432.956	1	-4
433.297	1	13
433.638	1	4
433.979	1	6
434.320	1	-3
434.662	1	-1
435.003	1	9
435.344	1	3
435.685	1	11
436.026	1	7
436.368	1	7
436.709	1	-8
437.050	1	5
437.391	1	13
437.732	1	11
438.073	1	9
438.414	1	1
438.756	1	9
439.097	1	17
439.438	1	18
439.779	1	-8
440.120	1	0
440.461	1	-1
440.802	1	3
441.143	1	13
441.485	1	-1
441.826	1	-6
442.167	1	2
442.508	1	3
442.849	1	10
443.190	1	-1
443.531	1	-1
443.872	1	6
444.213	1	-6
444.554	1	-6
444.895	1	-1
445.237	1	-2
445.578	1	13
445.919	1	1
446.260	1	4
446.601	1	-7
446.942	1	6
447.283	1	4
447.624	1	8
447.965	1	1
448.306	1	6
448.647	1	10
448.988	1	-4
449.329	1	3
449.670	1	8
450.011	1	6
450.352	1	7
450.693	1	7
451.034	1	-2
451.375	1	8
451.716	1	5
452.057	1	12
452.398	1	15
452.739	1	4
453.080	1	14
453.421	1	5
453.762	1	5
454.103	1	12
454.444	1	14
454.785	1	-5
455.126	1	7
455.467	1	7
455.808	1	11
456.149	1	2
456.490	1	0
456.831	1	13
457.172	1	5
457.513	1	7
457.854	1	6
458.195	1	4
458.536	1	9
458.877	1	9
459.218	1	7
459.559	1	0
459.899	1	18
460.240	1	-2
460.581	1	-2
460.922	1	4
461.263	1	12
461.604	1	11
461.945	1	14
462.286	1	7
462.627	1	4
462.968	1	-4
463.309	1	10
463.649	1	5
463.990	1	3
464.331	1	1
464.672	1	9
465.013	1	-4
465.354	1	1
465.695	1	9
466.036	1	4
466.376	1	7
466.717	1	3
467.058	1	13
467.399	1	6
467.740	1	6
468.081	1	15
468.422	1	10
468.762	1	2
469.103	1	-8
469.444	1	0
469.785	1	6
470.126	1	1
470.467	1	-2
470.807	1	5
471.148	1	4
471.489	1	-5
471.830	1	11
472.171	1	-1
472.511	1	3
472.852	1	2
473.193	1	-9
473.534	1	5
473.875	1	8
474.215	1	-3
474.556	1	-3
474.897	1	6
475.238	1	1
475.578	1	5
475.919	1	-1
476.260	1	-2
476.601	1	4
476.942	1	8
477.282	1	-13
477.623	1	2
477.964	1	7
478.305	1	4
478.645	1	-1
478.986	1	7
479.327	1	-6
479.667	1	7
480.008	1	10
480.349	1	5
480.690	1	-3
481.030	1	-5
481.371	1	1
481.712	1	4
482.053	1	12
482.393	1	-7
482.734	1	-3
483.075	1	4
483.415	1	11
483.756	1	19
484.097	1	-2
484.437	1	-3
484.778	1	12
485.119	1	8
485.459	1	0
485.800	1	-3
486.141	1	0
486.481	1	4
486.822	1	3
487.163	1	-1
487.503	1	-3
487.844	1	7
488.185	1	-1
488.525	1	5
488.866	1	8
489.207	1	5
489.547	1	0
489.888	1	1
490.228	1	-1
490.569	1	14
490.910	1	2
491.250	1	2
491.591	1	-13
491.932	1	14
492.272	1	7
492.613	1	9
492.953	1	3
493.294	1	13
493.635	1	-1
493.975	1	3
494.316	1	6
494.656	1	5
494.997	1	-1
495.337	1	5
495.678	1	9
496.019	1	-2
496.359	1	7
496.700	1	-1
497.040	1	10
497.381	1	-13
497.721	1	-9
498.062	1	-8
498.403	1	5
498.743	1	8
499.084	1	-7
499.424	1	19
499.765	1	5
500.105	1	12
500.446	1	5
500.786	1	7
501.127	1	5
501.467	1	4
501.808	1	-17
502.148	1	5
502.489	1	11
502.829	1	1
503.170	1	6
503.510	1	-2
503.851	1	-3
504.191	1	8
504.532	1	-2
504.872	1	5
505.213	1	-2
505.553	1	13
505.894	1	8
506.234	1	8
506.575	1	-2
506.915	1	8
507.256	1	-3
507.596	1	14
507.936	1	6
508.277	1	2
508.617	1	9
508.958	1	16
509.298	1	20
509.639	1	18
509.979	1	4
510.319	1	-2
510.660	1	11
511.000	1	10
511.341	1	0
511.681	1	8
512.022	1	-3
512.362	1	2
512.702	1	-6
513.043	1	0
513.383	1	-2
513.724	1	16
514.064	1	2
514.404	1	5
514.745	1	-8
515.085	1	8
515.425	1	5
515.766	1	5
516.106	1	1
516.447	1	5
516.787	1	1
517.127	1	11
517.468	1	12
517.808	1	7
518.148	1	16
518.489	1	15
518.829	1	-2
519.169	1	10
519.510	1	12
519.850	1	-10
520.190	1	6
520.531	1	6
520.871	1	-1
521.211	1	6
521.552	1	15
521.892	1	-6
522.232	1	1
522.573	1	20
522.913	1	9
523.253	1	8
523.593	1	1
523.934	1	5
524.274	1	-2
524.614	1	8
524.955	1	0
525.295	1	5
525.635	1	15
525.975	1	-3
526.316	1	5
526.656	1	17
526.996	1	14
527.337	1	10
527.677	1	12
528.017	1	1
528.357	1	8
528.698	1	3
529.038	1	11
529.378	1	13
529.718	1	13
530.058	1	1
530.399	1	17
530.739	1	5
531.079	1	20
531.419	1	14
531.760	1	11
532.100	1	20
532.440	1	4
532.780	1	0
533.120	1	5
533.461	1	12
533.801	1	5
534.141	1	12
534.481	1	10
534.821	1	9
535.162	1	10
535.502	1	12
535.842	1	16
536.182	1	8
536.522	1	13
536.862	1	9
537.203	1	14
537.543	1	9
537.883	1	18
538.223	1	14
538.563	1	4
538.903	1	7
539.243	1	7
539.584	1	8
539.924	1	14
540.264	1	5
540.604	1	14
540.944	1	3
541.284	1	0
541.624	1	16
541.964	1	4
542.305	1	4
542.645	1	6
542.985	1	4
543.325	1	3
543.665	1	21
544.005	1	4
544.345	1	0
544.685	1	13
545.025	1	5
545.365	1	8
545.705	1	10
546.045	1	9
546.386	1	20
546.726	1	6
547.066	1	-7
547.406	1	14
547.746	1	7
548.086	1	7
548.426	1	6
548.766	1	9
549.106	1	9
549.446	1	2
549.786	1	14
550.126	1	7
550.466	1	2
550.806	1	16
551.146	1	5
551.486	1	6
551.826	1	9
552.166	1	11
552.506	1	-4
552.846	1	7
553.186	1	3
553.526	1	7
553.866	1	10
554.206	1	12
554.546	1	-7
554.886	1	8
555.226	1	3
555.566	1	9
555.906	1	7
556.246	1	8
556.586	1	10
556.926	1	5
557.266	1	16
557.606	1	-3
557.946	1	6
558.286	1	6
558.626	1	8
558.966	1	5
559.306	1	0
559.646	1	-1
559.986	1	-2
560.325	1	1
560.665	1	5
561.005	1	6
561.345	1	6
561.685	1	3
562.025	1	-6
562.365	1	9
562.705	1	14
563.045	1	5
563.385	1	-1
563.725	1	-1
564.064	1	6
564.404	1	6
564.744	1	3
565.084	1	-1
565.424	1	5
565.764	1	16
566.104	1	-1
566.444	1	2
566.783	1	3
567.123	1	25
567.463	1	3
567.803	1	2
568.143	1	-9
568.483	1	3
568.823	1	9
569.162	1	5
569.502	1	3
569.842	1	-7
570.182	1	-5
570.522	1	6
570.862	1	14
571.201	1	20
571.541	1	1
571.881	1	12
572.221	1	13
572.561	1	-2
572.900	1	13
573.240	1	-7
573.580	1	17
573.920	1	0
574.260	1	-3
574.599	1	1
574.939	1	-4
575.279	1	8
575.619	1	8
575.959	1	-5
576.298	1	-9
576.638	1	3
576.978	1	7
577.318	1	4
577.657	1	-5
577.997	1	-6
578.337	1	5
578.677	1	8
579.016	1	22
579.356	1	5
579.696	1	5
580.036	1	0
580.375	1	0
580.715	1	23
581.055	1	5
581.394	1	7
581.734	1	8
582.074	1	7
582.414	1	-1
582.753	1	4
583.093	1	3
583.433	1	1
583.772	1	8
584.112	1	-1
584.452	1	5
584.791	1	1
585.131	1	1
585.471	1	-5
585.811	1	-3
586.150	1	1
586.490	1	0
586.830	1	-6
587.169	1	8
587.509	1	6
587.849	1	3
588.188	1	-1
588.528	1	7
588.867	1	12
589.207	1	-8
589.547	1	-5
589.886	1	-2
590.226	1	4
590.566	1	-9
590.905	1	6
591.245	1	1
591.585	1	5
591.924	1	2
592.264	1	2
592.603	1	2
592.943	1	-2
593.283	1	9
593.622	1	-9
593.962	1	9
594.301	1	14
594.641	1	2
594.981	1	-4
595.320	1	5
595.660	1	1
595.999	1	13
596.339	1	8
596.678	1	5
597.018	1	10
597.358	1	0
597.697	1	2
598.037	1	-2
598.376	1	9
598.716	1	1
599.055	1	8
599.395	1	13
599.734	1	-1
600.074	1	-5
600.413	1	4
600.753	1	12
601.092	1	-1
601.432	1	-5
601.771	1	14
602.111	1	-6
602.451	1	4
602.790	1	1
603.130	1	7
603.469	1	0
603.809	1	11
604.148	1	3
604.487	1	10
604.827	1	-14
605.166	1	-5
605.506	1	8
605.845	1	0
606.185	1	-7
606.524	1	-1
606.864	1	-1
607.203	1	8
607.543	1	-2
607.882	1	-7
608.222	1	4
608.561	1	8
608.901	1	5
609.240	1	-1
609.579	1	12
609.919	1	-3
610.258	1	11
610.598	1	5
610.937	1	0
611.277	1	9
611.616	1	-3
611.955	1	7
612.295	1	2
612.634	1	-2
612.974	1	14
613.313	1	5
613.652	1	0
613.992	1	6
614.331	1	7
614.671	1	8
615.010	1	3
615.349	1	-1
615.689	1	1
616.028	1	4
616.368	1	2
616.707	1	-2
617.046	1	6
617.386	1	-3
617.725	1	10
618.064	1	14
618.404	1	12
618.743	1	0
619.082	1	-3
619.422	1	6
619.761	1	2
620.100	1	-1
620.440	1	7
620.779	1	2
621.118	1	5
621.458	1	7
621.797	1	0
622.136	1	2
622.476	1	16
622.815	1	1
623.154	1	2
623.494	1	5
623.833	1	8
624.172	1	12
624.511	1	5
624.851	1	-5
625.190	1	8
625.529	1	0
625.869	1	13
626.208	1	-3
626.547	1	-6
626.886	1	0
627.226	1	2
627.565	1	15
627.904	1	11
628.243	1	5
628.583	1	5
628.922	1	-4
629.261	1	7
629.600	1	7
629.940	1	3
630.279	1	-3
630.618	1	0
630.957	1	3
631.297	1	0
631.636	1	2
631.975	1	4
632.314	1	9
632.653	1	0
632.993	1	6
633.332	1	12
633.671	1	2
634.010	1	6
634.349	1	2
634.689	1	10
635.028	1	5
635.367	1	1
635.706	1	-2
636.045	1	8
636.384	1	5
636.724	1	6
637.063	1	7
637.402	1	2
637.741	1	16
638.080	1	12
638.419	1	19
638.759	1	12
639.098	1	0
639.437	1	-3
639.776	1	-13
640.115	1	-2
640.454	1	-1
640.793	1	18
641.132	1	-1
641.472	1	-5
641.811	1	4
642.150	1	8
642.489	1	0
642.828	1	3
643.167	1	9
643.506	1	-11
643.845	1	2
644.184	1	9
644.524	1	5
644.863	1	-9
645.202	1	8
645.541	1	-8
645.880	1	3
646.219	1	10
646.558	1	0
646.897	1	-2
647.236	1	6
647.575	1	-3
647.914	1	0
648.253	1	7
648.592	1	9
648.931	1	10
649.270	1	12
649.610	1	19
649.949	1	10
650.288	1	-2
650.627	1	0
650.966	1	-2
651.305	1	1
651.644	1	4
651.983	1	8
652.322	1	3
652.661	1	5
653.000	1	2
653.339	1	3
653.678	1	-4
654.017	1	4
654.356	1	1
654.695	1	0
655.034	1	3
655.373	1	1
655.712	1	-6
656.051	1	12
656.390	1	5
656.729	1	11
657.068	1	3
657.406	1	1
657.745	1	-2
658.084	1	10
658.423	1	-2
658.762	1	-4
659.101	1	-5
659.440	1	15
659.779	1	-1
660.118	1	5
660.457	1	1
660.796	1	-3
661.135	1	10
661.474	1	6
661.813	1	11
662.152	1	0
662.491	1	-1
662.829	1	0
663.168	1	-2
663.507	1	4
663.846	1	7
664.185	1	3
664.524	1	-10
664.863	1	15
665.202	1	3
665.541	1	-4
665.879	1	0
666.218	1	-8
666.557	1	10
666.896	1	9
667.235	1	-2
667.574	1	5
667.913	1	-4
668.251	1	4
668.590	1	0
668.929	1	3
669.268	1	5
669.607	1	-11
669.946	1	6
670.285	1	1
670.623	1	5
670.962	1	-4
671.301	1	0
671.640	1	-17
671.979	1	14
672.317	1	2
672.656	1	5
672.995	1	2
673.334	1	7
673.673	1	11
674.011	1	9
674.350	1	-1
674.689	1	4
675.028	1	-1
675.367	1	12
675.705	1	-4
676.044	1	-3
676.383	1	5
676.722	1	7
677.060	1	-2
677.399	1	-4
677.738	1	-3
678.077	1	5
678.416	1	0
678.754	1	2
679.093	1	-6
679.432	1	-2
679.771	1	0
680.109	1	13
680.448	1	0
680.787	1	9
681.125	1	17
681.464	1	-3
681.803	1	-10
682.142	1	16
682.480	1	-9
682.819	1	8
683.158	1	1
683.496	1	-2
683.835	1	-1
684.174	1	9
684.512	1	-8
684.851	1	5
685.190	1	4
685.529	1	7
685.867	1	6
686.206	1	10
686.545	1	14
686.883	1	-9
687.222	1	0
687.561	1	-3
687.899	1	-7
688.238	1	6
688.577	1	-6
688.746	1	1