File: Analysis/GaN_68K_200ms/GaN_sample E_spot4_UVVIS_68 K_200um_200 ms 2x2mm1_362.txt
340.368	1	3
340.710	1	-3
341.052	1	2
341.394	1	1
341.737	1	-8
342.079	1	-3
342.421	1	-7
342.763	1	0
343.105	1	17
343.447	1	3
343.789	1	0
344.131	1	-3
344.473	1	1
344.815	1	1
345.157	1	15
345.499	1	8
345.841	1	3
346.183	1	0
346.526	1	8
346.868	1	8
347.210	1	5
347.552	1	5
347.894	1	5
348.236	1	-2
348.578	1	-3
348.920	1	9
349.262	1	-10
349.604	1	1
349.946	1	2
350.288	1	1
350.630	1	-4
350.972	1	-3
351.314	1	-2
351.656	1	2
351.998	1	2
352.340	1	4
352.682	1	-3
353.024	1	2
353.366	1	2
353.708	1	13
354.050	1	9
354.392	1	3
354.734	1	-11
355.076	1	9
355.418	1	6
355.760	1	8
356.102	1	7
356.444	1	-2
356.785	1	10
357.127	1	5
357.469	1	-1
357.811	1	16
358.153	1	4
358.495	1	5
358.837	1	16
359.179	1	2
359.521	1	-3
359.863	1	-5
360.205	1	1
360.547	1	2
360.889	1	1
361.231	1	4
361.572	1	-4
361.914	1	4
362.256	1	14
362.598	1	3
362.940	1	9
363.282	1	9
363.624	1	7
363.966	1	-4
364.308	1	-7
364.649	1	0
364.991	1	8
365.333	1	13
365.675	1	-5
366.017	1	6
366.359	1	3
366.701	1	-2
367.042	1	10
367.384	1	8
367.726	1	5
368.068	1	1
368.410	1	12
368.752	1	-7
369.093	1	6
369.435	1	0
369.777	1	2
370.119	1	11
370.461	1	-3
370.803	1	0
371.144	1	11
371.486	1	19
371.828	1	3
372.170	1	16
372.512	1	-3
372.853	1	8
373.195	1	-3
373.537	1	13
373.879	1	19
374.220	1	12
374.562	1	-3
374.904	1	4
375.246	1	10
375.588	1	14
375.929	1	9
376.271	1	2
376.613	1	4
376.955	1	-2
377.296	1	7
377.638	1	-5
377.980	1	2
378.321	1	15
378.663	1	2
379.005	1	9
379.347	1	8
379.688	1	4
380.030	1	-6
380.372	1	4
380.714	1	4
381.055	1	4
381.397	1	-1
381.739	1	15
382.080	1	-2
382.422	1	10
382.764	1	3
383.105	1	2
383.447	1	1
383.789	1	6
384.130	1	3
384.472	1	2
384.814	1	0
385.156	1	16
385.497	1	12
385.839	1	12
386.180	1	5
386.522	1	9
386.864	1	7
387.205	1	3
387.547	1	0
387.889	1	17
388.230	1	9
388.572	1	11
388.914	1	7
389.255	1	9
389.597	1	3
389.939	1	8
390.280	1	14
390.622	1	2
390.963	1	7
391.305	1	19
391.647	1	12
391.988	1	-1
392.330	1	11
392.671	1	12
393.013	1	13
393.355	1	28
393.696	1	7
394.038	1	0
394.379	1	-3
394.721	1	6
395.062	1	0
395.404	1	8
395.746	1	1
396.087	1	1
396.429	1	1
396.770	1	14
397.112	1	7
397.453	1	-8
397.795	1	7
398.136	1	10
398.478	1	0
398.819	1	19
399.161	1	10
399.503	1	4
399.844	1	3
400.186	1	14
400.527	1	3
400.869	1	16
401.210	1	-5
401.552	1	17
401.893	1	9
402.235	1	13
402.576	1	20
402.918	1	1
403.259	1	0
403.601	1	1
403.942	1	12
404.284	1	9
404.625	1	11
404.967	1	4
405.308	1	0
405.649	1	9
405.991	1	19
406.332	1	10
406.674	1	10
407.015	1	-5
407.357	1	5
407.698	1	-6
408.040	1	3
408.381	1	6
408.722	1	4
409.064	1	5
409.405	1	13
409.747	1	-3
410.088	1	4
410.430	1	10
410.771	1	5
411.112	1	8
411.454	1	12
411.795	1	13
412.137	1	9
412.478	1	0
412.819	1	-5
413.161	1	6
413.502	1	0
413.844	1	2
414.185	1	10
414.526	1	7
414.868	1	12
415.209	1	3
415.550	1	-1
415.892	1	1
416.233	1	2
416.575	1	-4
416.916	1	-2
417.257	1	10
417.599	1	5
417.940	1	-2
418.281	1	3
418.623	1	-3
418.964	1	15
419.305	1	8
419.647	1	10
419.988	1	1
420.329	1	2
420.671	1	0
421.012	1	20
421.353	1	8
421.695	1	5
422.036	1	9
422.377	1	12
422.718	1	2
423.060	1	-3
423.401	1	2
423.742	1	3
424.084	1	6
424.425	1	0
424.766	1	11
425.107	1	9
425.449	1	4
425.790	1	1
426.131	1	-1
426.472	1	-4
426.814	1	14
427.155	1	11
427.496	1	14
427.837	1	-1
428.179	1	-7
428.520	1	-3
428.861	1	5
429.202	1	8
429.544	1	4
429.885	1	-7
430.226	1	-7
430.567	1	3
430.909	1	-3
431.250	1	-6
431.591	1	4
431.932	1	7
432.273	1	-2
432.615	1	9
432.956	1	-5
433.297	1	15
433.638	1	-2
433.979	1	3
434.320	1	5
434.662	1	-5
435.003	1	7
435.344	1	0
435.685	1	11
436.026	1	5
436.368	1	-4
436.709	1	-6
437.050	1	3
437.391	1	11
437.732	1	1
438.073	1	15
438.414	1	-3
438.756	1	3
439.097	1	2
439.438	1	5
439.779	1	5
440.120	1	-2
440.461	1	-1
440.802	1	16
441.143	1	18
441.485	1	-2
441.826	1	0
442.167	1	-4
442.508	1	5
442.849	1	12
443.190	1	-9
443.531	1	-2
443.872	1	2
444.213	1	-5
444.554	1	-1
444.895	1	7
445.237	1	-1
445.578	1	11
445.919	1	-2
446.260	1	10
446.601	1	-2
446.942	1	8
447.283	1	0
447.624	1	6
447.965	1	-4
448.306	1	6
448.647	1	18
448.988	1	-6
449.329	1	8
449.670	1	0
450.011	1	7
450.352	1	16
450.693	1	10
451.034	1	6
451.375	1	16
451.716	1	-2
452.057	1	7
452.398	1	2
452.739	1	2
453.080	1	18
453.421	1	5
453.762	1	5
454.103	1	7
454.444	1	8
454.785	1	-12
455.126	1	1
455.467	1	6
455.808	1	2
456.149	1	-10
456.490	1	7
456.831	1	8
457.172	1	2
457.513	1	16
457.854	1	8
458.195	1	4
458.536	1	5
458.877	1	-8
459.218	1	1
459.559	1	-3
459.899	1	9
460.240	1	3
460.581	1	4
460.922	1	-4
461.263	1	2
461.604	1	-4
461.945	1	14
462.286	1	4
462.627	1	0
462.968	1	3
463.309	1	-4
463.649	1	0
463.990	1	14
464.331	1	4
464.672	1	-5
465.013	1	-2
465.354	1	5
465.695	1	6
466.036	1	7
466.376	1	2
466.717	1	-4
467.058	1	1
467.399	1	0
467.740	1	1
468.081	1	1
468.422	1	2
468.762	1	2
469.103	1	4
469.444	1	-9
469.785	1	9
470.126	1	7
470.467	1	-7
470.807	1	2
471.148	1	8
471.489	1	6
471.830	1	10
472.171	1	-4
472.511	1	8
472.852	1	-14
473.193	1	-15
473.534	1	-1
473.875	1	11
474.215	1	0
474.556	1	-7
474.897	1	-4
475.238	1	1
475.578	1	0
475.919	1	-4
476.260	1	1
476.601	1	-3
476.942	1	5
477.282	1	-10
477.623	1	10
477.964	1	15
478.305	1	3
478.645	1	-2
478.986	1	3
479.327	1	-3
479.667	1	-1
480.008	1	2
480.349	1	1
480.690	1	-5
481.030	1	-2
481.371	1	4
481.712	1	4
482.053	1	7
482.393	1	0
482.734	1	9
483.075	1	9
483.415	1	6
483.756	1	9
484.097	1	-1
484.437	1	-9
484.778	1	-1
485.119	1	1
485.459	1	15
485.800	1	0
486.141	1	-8
486.481	1	4
486.822	1	9
487.163	1	-11
487.503	1	-4
487.844	1	11
488.185	1	-11
488.525	1	-2
488.866	1	13
489.207	1	9
489.547	1	3
489.888	1	5
490.228	1	-6
490.569	1	7
490.910	1	1
491.250	1	8
491.591	1	-4
491.932	1	7
492.272	1	5
492.613	1	6
492.953	1	5
493.294	1	5
493.635	1	2
493.975	1	-2
494.316	1	5
494.656	1	4
494.997	1	-8
495.337	1	11
495.678	1	17
496.019	1	-3
496.359	1	1
496.700	1	6
497.040	1	11
497.381	1	-18
497.721	1	0
498.062	1	7
498.403	1	6
498.743	1	0
499.084	1	-11
499.424	1	13
499.765	1	-2
500.105	1	4
500.446	1	5
500.786	1	4
501.127	1	10
501.467	1	4
501.808	1	-4
502.148	1	4
502.489	1	5
502.829	1	2
503.170	1	5
503.510	1	2
503.851	1	-12
504.191	1	1
504.532	1	-1
504.872	1	-4
505.213	1	4
505.553	1	10
505.894	1	1
506.234	1	14
506.575	1	1
506.915	1	1
507.256	1	2
507.596	1	3
507.936	1	4
508.277	1	0
508.617	1	11
508.958	1	10
509.298	1	9
509.639	1	15
509.979	1	4
510.319	1	2
510.660	1	2
511.000	1	11
511.341	1	-7
511.681	1	8
512.022	1	3
512.362	1	4
512.702	1	3
513.043	1	1
513.383	1	3
513.724	1	8
514.064	1	9
514.404	1	-2
514.745	1	6
515.085	1	1
515.425	1	3
515.766	1	4
516.106	1	-4
516.447	1	-1
516.787	1	1
517.127	1	9
517.468	1	2
517.808	1	2
518.148	1	8
518.489	1	7
518.829	1	-1
519.169	1	19
519.510	1	2
519.850	1	-3
520.190	1	7
520.531	1	11
520.871	1	-2
521.211	1	-1
521.552	1	9
521.892	1	-1
522.232	1	-3
522.573	1	4
522.913	1	0
523.253	1	3
523.593	1	-11
523.934	1	7
524.274	1	-4
524.614	1	9
524.955	1	4
525.295	1	5
525.635	1	7
525.975	1	0
526.316	1	7
526.656	1	19
526.996	1	15
527.337	1	6
527.677	1	14
528.017	1	3
528.357	1	8
528.698	1	-5
529.038	1	12
529.378	1	9
529.718	1	6
530.058	1	3
530.399	1	19
530.739	1	-4
531.079	1	7
531.419	1	12
531.760	1	6
532.100	1	11
532.440	1	-7
532.780	1	4
533.120	1	-8
533.461	1	17
533.801	1	11
534.141	1	13
534.481	1	4
534.821	1	1
535.162	1	5
535.502	1	7
535.842	1	12
536.182	1	4
536.522	1	1
536.862	1	4
537.203	1	6
537.543	1	7
537.883	1	2
538.223	1	10
538.563	1	3
538.903	1	-6
539.243	1	6
539.584	1	2
539.924	1	5
540.264	1	18
540.604	1	6
540.944	1	1
541.284	1	-5
541.624	1	3
541.964	1	10
542.305	1	-4
542.645	1	11
542.985	1	3
543.325	1	-2
543.665	1	13
544.005	1	1
544.345	1	-4
544.685	1	3
545.025	1	0
545.365	1	5
545.705	1	-2
546.045	1	11
546.386	1	8
546.726	1	3
547.066	1	-3
547.406	1	12
547.746	1	7
548.086	1	12
548.426	1	-3
548.766	1	13
549.106	1	10
549.446	1	3
549.786	1	4
550.126	1	6
550.466	1	1
550.806	1	9
551.146	1	1
551.486	1	-2
551.826	1	3
552.166	1	5
552.506	1	-1
552.846	1	-3
553.186	1	4
553.526	1	1
553.866	1	1
554.206	1	0
554.546	1	-4
554.886	1	1
555.226	1	1
555.566	1	0
555.906	1	13
556.246	1	-1
556.586	1	14
556.926	1	7
557.266	1	8
557.606	1	-5
557.946	1	9
558.286	1	8
558.626	1	13
558.966	1	3
559.306	1	-7
559.646	1	6
559.986	1	0
560.325	1	-11
560.665	1	14
561.005	1	10
561.345	1	-1
561.685	1	7
562.025	1	-1
562.365	1	8
562.705	1	13
563.045	1	-1
563.385	1	-2
563.725	1	5
564.064	1	8
564.404	1	1
564.744	1	3
565.084	1	-4
565.424	1	3
565.764	1	6
566.104	1	-1
566.444	1	13
566.783	1	0
567.123	1	25
567.463	1	10
567.803	1	3
568.143	1	-6
568.483	1	0
568.823	1	-2
569.162	1	6
569.502	1	-6
569.842	1	-1
570.182	1	-3
570.522	1	1
570.862	1	3
571.201	1	11
571.541	1	-6
571.881	1	1
572.221	1	0
572.561	1	-5
572.900	1	14
573.240	1	-5
573.580	1	3
573.920	1	-10
574.260	1	6
574.599	1	-5
574.939	1	-1
575.279	1	9
575.619	1	3
575.959	1	-2
576.298	1	-12
576.638	1	10
576.978	1	5
577.318	1	7
577.657	1	-12
577.997	1	1
578.337	1	2
578.677	1	-1
579.016	1	17
579.356	1	1
579.696	1	5
580.036	1	0
580.375	1	1
580.715	1	7
581.055	1	4
581.394	1	-4
581.734	1	6
582.074	1	2
582.414	1	3
582.753	1	7
583.093	1	-5
583.433	1	1
583.772	1	3
584.112	1	1
584.452	1	6
584.791	1	13
585.131	1	-1
585.471	1	-2
585.811	1	-2
586.150	1	5
586.490	1	-3
586.830	1	-14
587.169	1	9
587.509	1	9
587.849	1	14
588.188	1	8
588.528	1	11
588.867	1	12
589.207	1	-6
589.547	1	-3
589.886	1	-7
590.226	1	5
590.566	1	-10
590.905	1	8
591.245	1	5
591.585	1	-12
591.924	1	0
592.264	1	2
592.603	1	0
592.943	1	-14
593.283	1	8
593.622	1	-1
593.962	1	13
594.301	1	22
594.641	1	-10
594.981	1	4
595.320	1	1
595.660	1	1
595.999	1	9
596.339	1	5
596.678	1	-6
597.018	1	6
597.358	1	0
597.697	1	0
598.037	1	-2
598.376	1	5
598.716	1	0
599.055	1	6
599.395	1	6
599.734	1	-5
600.074	1	0
600.413	1	1
600.753	1	7
601.092	1	-11
601.432	1	-5
601.771	1	1
602.111	1	-6
602.451	1	0
602.790	1	8
603.130	1	2
603.469	1	-2
603.809	1	13
604.148	1	5
604.487	1	6
604.827	1	-4
605.166	1	-8
605.506	1	5
605.845	1	-3
606.185	1	6
606.524	1	-2
606.864	1	5
607.203	1	12
607.543	1	-3
607.882	1	-6
608.222	1	9
608.561	1	9
608.901	1	4
609.240	1	1
609.579	1	11
609.919	1	-7
610.258	1	11
610.598	1	3
610.937	1	-7
611.277	1	8
611.616	1	-14
611.955	1	6
612.295	1	1
612.634	1	-1
612.974	1	6
613.313	1	5
613.652	1	-3
613.992	1	13
614.331	1	7
614.671	1	-5
615.010	1	4
615.349	1	0
615.689	1	10
616.028	1	-2
616.368	1	-5
616.707	1	6
617.046	1	-1
617.386	1	6
617.725	1	10
618.064	1	3
618.404	1	11
618.743	1	-3
619.082	1	6
619.422	1	0
619.761	1	9
620.100	1	5
620.440	1	7
620.779	1	12
621.118	1	-2
621.458	1	11
621.797	1	3
622.136	1	-5
622.476	1	-2
622.815	1	2
623.154	1	10
623.494	1	14
623.833	1	1
624.172	1	8
624.511	1	3
624.851	1	-5
625.190	1	6
625.529	1	2
625.869	1	13
626.208	1	-3
626.547	1	1
626.886	1	-3
627.226	1	0
627.565	1	8
627.904	1	9
628.243	1	-6
628.583	1	1
628.922	1	8
629.261	1	0
629.600	1	10
629.940	1	3
630.279	1	-3
630.618	1	-6
630.957	1	-5
631.297	1	3
631.636	1	6
631.975	1	12
632.314	1	17
632.653	1	-5
632.993	1	4
633.332	1	7
633.671	1	11
634.010	1	-2
634.349	1	0
634.689	1	14
635.028	1	9
635.367	1	8
635.706	1	-6
636.045	1	-2
636.384	1	9
636.724	1	6
637.063	1	6
637.402	1	6
637.741	1	11
638.080	1	1
638.419	1	5
638.759	1	10
639.098	1	4
639.437	1	-3
639.776	1	10
640.115	1	0
640.454	1	15
640.793	1	2
641.132	1	2
641.472	1	-6
641.811	1	3
642.150	1	6
642.489	1	2
642.828	1	-3
643.167	1	13
643.506	1	-5
643.845	1	1
644.184	1	6
644.524	1	0
644.863	1	-4
645.202	1	-1
645.541	1	-12
645.880	1	2
646.219	1	0
646.558	1	-1
646.897	1	-2
647.236	1	8
647.575	1	-2
647.914	1	-5
648.253	1	0
648.592	1	4
648.931	1	13
649.270	1	7
649.610	1	13
649.949	1	-3
650.288	1	-2
650.627	1	-2
650.966	1	-11
651.305	1	-3
651.644	1	0
651.983	1	0
652.322	1	1
652.661	1	7
653.000	1	3
653.339	1	9
653.678	1	-3
654.017	1	4
654.356	1	6
654.695	1	2
655.034	1	5
655.373	1	6
655.712	1	-2
656.051	1	10
656.390	1	-3
656.729	1	5
657.068	1	-3
657.406	1	4
657.745	1	-8
658.084	1	8
658.423	1	-4
658.762	1	-11
659.101	1	-13
659.440	1	13
659.779	1	-5
660.118	1	10
660.457	1	-2
660.796	1	-4
661.135	1	-5
661.474	1	8
661.813	1	1
662.152	1	5
662.491	1	0
662.829	1	-2
663.168	1	-5
663.507	1	2
663.846	1	10
664.185	1	-9
664.524	1	-8
664.863	1	3
665.202	1	-7
665.541	1	-10
665.879	1	-2
666.218	1	-5
666.557	1	-2
666.896	1	-4
667.235	1	-3
667.574	1	12
667.913	1	-8
668.251	1	6
668.590	1	-12
668.929	1	4
669.268	1	4
669.607	1	-8
669.946	1	8
670.285	1	12
670.623	1	3
670.962	1	-2
671.301	1	-7
671.640	1	-13
671.979	1	9
672.317	1	-3
672.656	1	2
672.995	1	-3
673.334	1	7
673.673	1	14
674.011	1	10
674.350	1	2
674.689	1	5
675.028	1	11
675.367	1	4
675.705	1	-7
676.044	1	1
676.383	1	-4
676.722	1	0
677.060	1	1
677.399	1	-9
677.738	1	-2
678.077	1	8
678.416	1	6
678.754	1	1
679.093	1	8
679.432	1	-6
679.771	1	-1
680.109	1	12
680.448	1	-6
680.787	1	3
681.125	1	-3
681.464	1	1
681.803	1	-9
682.142	1	13
682.480	1	-1
682.819	1	5
683.158	1	7
683.496	1	-5
683.835	1	5
684.174	1	9
684.512	1	12
684.851	1	3
685.190	1	7
685.529	1	2
685.867	1	1
686.206	1	2
686.545	1	5
686.883	1	-13
687.222	1	-6
687.561	1	3
687.899	1	-2
688.238	1	1
688.577	1	-2
688.746	1	-2