File: Analysis/GaN_68K_200ms/GaN_sample E_spot4_UVVIS_68 K_200um_200 ms 2x2mm1_123.txt
340.368	1	4
340.710	1	-7
341.052	1	13
341.394	1	-4
341.737	1	6
342.079	1	-6
342.421	1	2
342.763	1	0
343.105	1	19
343.447	1	7
343.789	1	14
344.131	1	2
344.473	1	4
344.815	1	5
345.157	1	7
345.499	1	2
345.841	1	11
346.183	1	15
346.526	1	10
346.868	1	11
347.210	1	0
347.552	1	13
347.894	1	4
348.236	1	14
348.578	1	9
348.920	1	16
349.262	1	3
349.604	1	16
349.946	1	17
350.288	1	16
350.630	1	3
350.972	1	8
351.314	1	3
351.656	1	10
351.998	1	7
352.340	1	6
352.682	1	6
353.024	1	10
353.366	1	17
353.708	1	8
354.050	1	21
354.392	1	21
354.734	1	10
355.076	1	18
355.418	1	12
355.760	1	24
356.102	1	15
356.444	1	20
356.785	1	34
357.127	1	28
357.469	1	20
357.811	1	40
358.153	1	25
358.495	1	35
358.837	1	35
359.179	1	46
359.521	1	31
359.863	1	38
360.205	1	54
360.547	1	59
360.889	1	62
361.231	1	70
361.572	1	74
361.914	1	86
362.256	1	105
362.598	1	111
362.940	1	130
363.282	1	153
363.624	1	168
363.966	1	208
364.308	1	212
364.649	1	255
364.991	1	278
365.333	1	328
365.675	1	349
366.017	1	369
366.359	1	385
366.701	1	393
367.042	1	391
367.384	1	394
367.726	1	408
368.068	1	360
368.410	1	346
368.752	1	327
369.093	1	315
369.435	1	304
369.777	1	265
370.119	1	253
370.461	1	226
370.803	1	202
371.144	1	214
371.486	1	193
371.828	1	189
372.170	1	171
372.512	1	163
372.853	1	157
373.195	1	136
373.537	1	139
373.879	1	147
374.220	1	135
374.562	1	119
374.904	1	115
375.246	1	110
375.588	1	108
375.929	1	93
376.271	1	104
376.613	1	103
376.955	1	91
377.296	1	90
377.638	1	83
377.980	1	92
378.321	1	89
378.663	1	76
379.005	1	92
379.347	1	101
379.688	1	85
380.030	1	90
380.372	1	106
380.714	1	113
381.055	1	108
381.397	1	123
381.739	1	162
382.080	1	161
382.422	1	192
382.764	1	204
383.105	1	245
383.447	1	268
383.789	1	295
384.130	1	335
384.472	1	382
384.814	1	427
385.156	1	487
385.497	1	494
385.839	1	535
386.180	1	553
386.522	1	593
386.864	1	576
387.205	1	595
387.547	1	607
387.889	1	590
388.230	1	596
388.572	1	579
388.914	1	592
389.255	1	571
389.597	1	571
389.939	1	578
390.280	1	565
390.622	1	541
390.963	1	539
391.305	1	517
391.647	1	522
391.988	1	514
392.330	1	502
392.671	1	505
393.013	1	475
393.355	1	454
393.696	1	458
394.038	1	447
394.379	1	437
394.721	1	475
395.062	1	456
395.404	1	488
395.746	1	494
396.087	1	498
396.429	1	520
396.770	1	527
397.112	1	527
397.453	1	533
397.795	1	553
398.136	1	555
398.478	1	544
398.819	1	542
399.161	1	540
399.503	1	519
399.844	1	501
400.186	1	487
400.527	1	464
400.869	1	476
401.210	1	435
401.552	1	426
401.893	1	410
402.235	1	399
402.576	1	402
402.918	1	372
403.259	1	347
403.601	1	355
403.942	1	358
404.284	1	351
404.625	1	342
404.967	1	334
405.308	1	338
405.649	1	342
405.991	1	343
406.332	1	329
406.674	1	336
407.015	1	324
407.357	1	319
407.698	1	319
408.040	1	307
408.381	1	321
408.722	1	295
409.064	1	300
409.405	1	312
409.747	1	297
410.088	1	288
410.430	1	299
410.771	1	278
411.112	1	272
411.454	1	276
411.795	1	266
412.137	1	266
412.478	1	259
412.819	1	252
413.161	1	228
413.502	1	234
413.844	1	212
414.185	1	226
414.526	1	207
414.868	1	212
415.209	1	207
415.550	1	202
415.892	1	208
416.233	1	202
416.575	1	195
416.916	1	192
417.257	1	192
417.599	1	192
417.940	1	189
418.281	1	191
418.623	1	174
418.964	1	184
419.305	1	187
419.647	1	184
419.988	1	188
420.329	1	165
420.671	1	172
421.012	1	165
421.353	1	167
421.695	1	152
422.036	1	136
422.377	1	143
422.718	1	139
423.060	1	137
423.401	1	145
423.742	1	126
424.084	1	131
424.425	1	118
424.766	1	128
425.107	1	118
425.449	1	112
425.790	1	118
426.131	1	116
426.472	1	103
426.814	1	125
427.155	1	116
427.496	1	127
427.837	1	104
428.179	1	108
428.520	1	112
428.861	1	104
429.202	1	117
429.544	1	95
429.885	1	108
430.226	1	88
430.567	1	102
430.909	1	97
431.250	1	84
431.591	1	92
431.932	1	95
432.273	1	87
432.615	1	77
432.956	1	145
433.297	1	444
433.638	1	86
433.979	1	85
434.320	1	82
434.662	1	74
435.003	1	85
435.344	1	72
435.685	1	84
436.026	1	70
436.368	1	77
436.709	1	58
437.050	1	72
437.391	1	63
437.732	1	57
438.073	1	74
438.414	1	314
438.756	1	77
439.097	1	72
439.438	1	67
439.779	1	60
440.120	1	61
440.461	1	62
440.802	1	60
441.143	1	59
441.485	1	51
441.826	1	47
442.167	1	41
442.508	1	54
442.849	1	61
443.190	1	48
443.531	1	49
443.872	1	49
444.213	1	37
444.554	1	48
444.895	1	49
445.237	1	50
445.578	1	54
445.919	1	41
446.260	1	47
446.601	1	48
446.942	1	53
447.283	1	43
447.624	1	50
447.965	1	34
448.306	1	43
448.647	1	58
448.988	1	33
449.329	1	53
449.670	1	48
450.011	1	37
450.352	1	46
450.693	1	43
451.034	1	45
451.375	1	44
451.716	1	43
452.057	1	45
452.398	1	41
452.739	1	38
453.080	1	49
453.421	1	48
453.762	1	44
454.103	1	36
454.444	1	41
454.785	1	32
455.126	1	47
455.467	1	34
455.808	1	39
456.149	1	28
456.490	1	44
456.831	1	49
457.172	1	37
457.513	1	44
457.854	1	33
458.195	1	27
458.536	1	33
458.877	1	32
459.218	1	48
459.559	1	38
459.899	1	37
460.240	1	31
460.581	1	31
460.922	1	19
461.263	1	24
461.604	1	29
461.945	1	43
462.286	1	39
462.627	1	34
462.968	1	24
463.309	1	27
463.649	1	34
463.990	1	39
464.331	1	39
464.672	1	29
465.013	1	23
465.354	1	35
465.695	1	32
466.036	1	28
466.376	1	26
466.717	1	25
467.058	1	38
467.399	1	35
467.740	1	27
468.081	1	28
468.422	1	34
468.762	1	22
469.103	1	21
469.444	1	27
469.785	1	31
470.126	1	30
470.467	1	26
470.807	1	29
471.148	1	18
471.489	1	26
471.830	1	34
472.171	1	26
472.511	1	45
472.852	1	27
473.193	1	22
473.534	1	22
473.875	1	28
474.215	1	23
474.556	1	12
474.897	1	32
475.238	1	18
475.578	1	25
475.919	1	37
476.260	1	28
476.601	1	26
476.942	1	25
477.282	1	17
477.623	1	40
477.964	1	32
478.305	1	31
478.645	1	24
478.986	1	21
479.327	1	25
479.667	1	28
480.008	1	27
480.349	1	30
480.690	1	31
481.030	1	22
481.371	1	41
481.712	1	38
482.053	1	34
482.393	1	22
482.734	1	23
483.075	1	32
483.415	1	44
483.756	1	29
484.097	1	31
484.437	1	20
484.778	1	29
485.119	1	40
485.459	1	33
485.800	1	35
486.141	1	30
486.481	1	36
486.822	1	38
487.163	1	35
487.503	1	24
487.844	1	43
488.185	1	38
488.525	1	38
488.866	1	48
489.207	1	49
489.547	1	38
489.888	1	46
490.228	1	40
490.569	1	63
490.910	1	53
491.250	1	47
491.591	1	37
491.932	1	61
492.272	1	53
492.613	1	48
492.953	1	52
493.294	1	49
493.635	1	47
493.975	1	50
494.316	1	64
494.656	1	53
494.997	1	62
495.337	1	54
495.678	1	55
496.019	1	54
496.359	1	62
496.700	1	53
497.040	1	64
497.381	1	43
497.721	1	70
498.062	1	61
498.403	1	70
498.743	1	64
499.084	1	54
499.424	1	82
499.765	1	70
500.105	1	79
500.446	1	89
500.786	1	77
501.127	1	89
501.467	1	90
501.808	1	64
502.148	1	83
502.489	1	75
502.829	1	96
503.170	1	89
503.510	1	93
503.851	1	75
504.191	1	92
504.532	1	96
504.872	1	92
505.213	1	95
505.553	1	93
505.894	1	99
506.234	1	118
506.575	1	109
506.915	1	106
507.256	1	106
507.596	1	106
507.936	1	110
508.277	1	101
508.617	1	126
508.958	1	111
509.298	1	124
509.639	1	126
509.979	1	112
510.319	1	120
510.660	1	132
511.000	1	132
511.341	1	125
511.681	1	123
512.022	1	128
512.362	1	119
512.702	1	132
513.043	1	142
513.383	1	133
513.724	1	138
514.064	1	128
514.404	1	136
514.745	1	132
515.085	1	147
515.425	1	138
515.766	1	135
516.106	1	145
516.447	1	154
516.787	1	144
517.127	1	135
517.468	1	152
517.808	1	156
518.148	1	153
518.489	1	163
518.829	1	164
519.169	1	174
519.510	1	159
519.850	1	158
520.190	1	161
520.531	1	169
520.871	1	164
521.211	1	171
521.552	1	172
521.892	1	162
522.232	1	165
522.573	1	175
522.913	1	186
523.253	1	192
523.593	1	170
523.934	1	170
524.274	1	178
524.614	1	183
524.955	1	181
525.295	1	170
525.635	1	195
525.975	1	180
526.316	1	168
526.656	1	195
526.996	1	189
527.337	1	178
527.677	1	194
528.017	1	184
528.357	1	207
528.698	1	178
529.038	1	187
529.378	1	183
529.718	1	196
530.058	1	183
530.399	1	196
530.739	1	185
531.079	1	204
531.419	1	204
531.760	1	206
532.100	1	195
532.440	1	202
532.780	1	207
533.120	1	189
533.461	1	200
533.801	1	198
534.141	1	196
534.481	1	190
534.821	1	207
535.162	1	194
535.502	1	198
535.842	1	184
536.182	1	194
536.522	1	191
536.862	1	191
537.203	1	183
537.543	1	190
537.883	1	174
538.223	1	195
538.563	1	175
538.903	1	184
539.243	1	180
539.584	1	183
539.924	1	177
540.264	1	193
540.604	1	188
540.944	1	174
541.284	1	171
541.624	1	175
541.964	1	189
542.305	1	177
542.645	1	170
542.985	1	167
543.325	1	167
543.665	1	188
544.005	1	168
544.345	1	151
544.685	1	187
545.025	1	152
545.365	1	170
545.705	1	164
546.045	1	187
546.386	1	173
546.726	1	155
547.066	1	144
547.406	1	170
547.746	1	169
548.086	1	169
548.426	1	159
548.766	1	159
549.106	1	160
549.446	1	163
549.786	1	154
550.126	1	171
550.466	1	172
550.806	1	167
551.146	1	162
551.486	1	157
551.826	1	155
552.166	1	158
552.506	1	147
552.846	1	168
553.186	1	151
553.526	1	147
553.866	1	147
554.206	1	142
554.546	1	140
554.886	1	139
555.226	1	136
555.566	1	148
555.906	1	141
556.246	1	135
556.586	1	133
556.926	1	138
557.266	1	129
557.606	1	129
557.946	1	134
558.286	1	138
558.626	1	131
558.966	1	137
559.306	1	121
559.646	1	123
559.986	1	119
560.325	1	126
560.665	1	127
561.005	1	126
561.345	1	116
561.685	1	116
562.025	1	108
562.365	1	120
562.705	1	124
563.045	1	121
563.385	1	110
563.725	1	110
564.064	1	123
564.404	1	112
564.744	1	109
565.084	1	114
565.424	1	104
565.764	1	109
566.104	1	105
566.444	1	108
566.783	1	96
567.123	1	117
567.463	1	105
567.803	1	97
568.143	1	90
568.483	1	107
568.823	1	107
569.162	1	105
569.502	1	107
569.842	1	101
570.182	1	100
570.522	1	90
570.862	1	103
571.201	1	89
571.541	1	87
571.881	1	93
572.221	1	84
572.561	1	87
572.900	1	99
573.240	1	83
573.580	1	84
573.920	1	80
574.260	1	85
574.599	1	83
574.939	1	77
575.279	1	89
575.619	1	87
575.959	1	75
576.298	1	68
576.638	1	88
576.978	1	81
577.318	1	86
577.657	1	66
577.997	1	79
578.337	1	79
578.677	1	74
579.016	1	87
579.356	1	60
579.696	1	85
580.036	1	67
580.375	1	61
580.715	1	72
581.055	1	73
581.394	1	62
581.734	1	77
582.074	1	65
582.414	1	77
582.753	1	74
583.093	1	74
583.433	1	58
583.772	1	68
584.112	1	70
584.452	1	73
584.791	1	64
585.131	1	55
585.471	1	71
585.811	1	61
586.150	1	73
586.490	1	59
586.830	1	61
587.169	1	63
587.509	1	65
587.849	1	69
588.188	1	58
588.528	1	62
588.867	1	59
589.207	1	46
589.547	1	43
589.886	1	49
590.226	1	66
590.566	1	52
590.905	1	54
591.245	1	55
591.585	1	59
591.924	1	47
592.264	1	51
592.603	1	35
592.943	1	47
593.283	1	59
593.622	1	49
593.962	1	65
594.301	1	60
594.641	1	38
594.981	1	47
595.320	1	55
595.660	1	41
595.999	1	50
596.339	1	43
596.678	1	52
597.018	1	49
597.358	1	48
597.697	1	43
598.037	1	41
598.376	1	51
598.716	1	37
599.055	1	43
599.395	1	42
599.734	1	42
600.074	1	36
600.413	1	42
600.753	1	45
601.092	1	34
601.432	1	35
601.771	1	38
602.111	1	33
602.451	1	39
602.790	1	41
603.130	1	50
603.469	1	33
603.809	1	55
604.148	1	41
604.487	1	40
604.827	1	35
605.166	1	40
605.506	1	43
605.845	1	38
606.185	1	37
606.524	1	34
606.864	1	42
607.203	1	46
607.543	1	33
607.882	1	37
608.222	1	38
608.561	1	51
608.901	1	43
609.240	1	41
609.579	1	52
609.919	1	29
610.258	1	47
610.598	1	38
610.937	1	40
611.277	1	47
611.616	1	35
611.955	1	45
612.295	1	47
612.634	1	37
612.974	1	38
613.313	1	39
613.652	1	36
613.992	1	42
614.331	1	38
614.671	1	36
615.010	1	31
615.349	1	24
615.689	1	46
616.028	1	32
616.368	1	24
616.707	1	28
617.046	1	32
617.386	1	27
617.725	1	32
618.064	1	38
618.404	1	33
618.743	1	23
619.082	1	26
619.422	1	39
619.761	1	38
620.100	1	31
620.440	1	26
620.779	1	15
621.118	1	16
621.458	1	30
621.797	1	30
622.136	1	28
622.476	1	23
622.815	1	25
623.154	1	32
623.494	1	29
623.833	1	29
624.172	1	30
624.511	1	17
624.851	1	15
625.190	1	18
625.529	1	26
625.869	1	27
626.208	1	21
626.547	1	32
626.886	1	21
627.226	1	25
627.565	1	24
627.904	1	18
628.243	1	15
628.583	1	18
628.922	1	23
629.261	1	24
629.600	1	28
629.940	1	26
630.279	1	10
630.618	1	27
630.957	1	23
631.297	1	10
631.636	1	17
631.975	1	29
632.314	1	36
632.653	1	16
632.993	1	24
633.332	1	25
633.671	1	23
634.010	1	30
634.349	1	21
634.689	1	22
635.028	1	23
635.367	1	21
635.706	1	12
636.045	1	20
636.384	1	20
636.724	1	15
637.063	1	24
637.402	1	28
637.741	1	23
638.080	1	28
638.419	1	27
638.759	1	20
639.098	1	14
639.437	1	13
639.776	1	22
640.115	1	13
640.454	1	33
640.793	1	17
641.132	1	31
641.472	1	12
641.811	1	28
642.150	1	19
642.489	1	12
642.828	1	12
643.167	1	29
643.506	1	13
643.845	1	18
644.184	1	28
644.524	1	8
644.863	1	11
645.202	1	21
645.541	1	23
645.880	1	21
646.219	1	18
646.558	1	23
646.897	1	17
647.236	1	21
647.575	1	24
647.914	1	19
648.253	1	10
648.592	1	9
648.931	1	27
649.270	1	19
649.610	1	22
649.949	1	21
650.288	1	7
650.627	1	17
650.966	1	13
651.305	1	21
651.644	1	17
651.983	1	19
652.322	1	27
652.661	1	12
653.000	1	13
653.339	1	24
653.678	1	18
654.017	1	14
654.356	1	17
654.695	1	18
655.034	1	22
655.373	1	27
655.712	1	11
656.051	1	17
656.390	1	21
656.729	1	17
657.068	1	9
657.406	1	11
657.745	1	8
658.084	1	22
658.423	1	7
658.762	1	7
659.101	1	2
659.440	1	24
659.779	1	13
660.118	1	25
660.457	1	17
660.796	1	14
661.135	1	12
661.474	1	6
661.813	1	18
662.152	1	18
662.491	1	10
662.829	1	7
663.168	1	11
663.507	1	14
663.846	1	4
664.185	1	13
664.524	1	6
664.863	1	17
665.202	1	0
665.541	1	17
665.879	1	8
666.218	1	11
666.557	1	17
666.896	1	15
667.235	1	10
667.574	1	14
667.913	1	12
668.251	1	19
668.590	1	16
668.929	1	16
669.268	1	13
669.607	1	9
669.946	1	16
670.285	1	12
670.623	1	16
670.962	1	13
671.301	1	7
671.640	1	-1
671.979	1	20
672.317	1	9
672.656	1	24
672.995	1	11
673.334	1	15
673.673	1	22
674.011	1	16
674.350	1	15
674.689	1	9
675.028	1	23
675.367	1	20
675.705	1	-2
676.044	1	10
676.383	1	13
676.722	1	11
677.060	1	11
677.399	1	8
677.738	1	4
678.077	1	15
678.416	1	9
678.754	1	13
679.093	1	16
679.432	1	13
679.771	1	11
680.109	1	16
680.448	1	17
680.787	1	16
681.125	1	15
681.464	1	16
681.803	1	6
682.142	1	20
682.480	1	15
682.819	1	17
683.158	1	22
683.496	1	6
683.835	1	11
684.174	1	13
684.512	1	7
684.851	1	9
685.190	1	22
685.529	1	14
685.867	1	12
686.206	1	15
686.545	1	15
686.883	1	16
687.222	1	10
687.561	1	21
687.899	1	18
688.238	1	18
688.577	1	17
688.746	1	16