File: Analysis/GaN_68K_200ms/GaN_sample E_spot4_UVVIS_68 K_200um_200 ms 2x2mm1_389.txt
340.368	1	4
340.710	1	-9
341.052	1	3
341.394	1	-1
341.737	1	12
342.079	1	-4
342.421	1	-2
342.763	1	-2
343.105	1	13
343.447	1	10
343.789	1	-2
344.131	1	-7
344.473	1	5
344.815	1	4
345.157	1	2
345.499	1	3
345.841	1	10
346.183	1	0
346.526	1	6
346.868	1	15
347.210	1	-1
347.552	1	-4
347.894	1	-7
348.236	1	3
348.578	1	8
348.920	1	7
349.262	1	0
349.604	1	14
349.946	1	4
350.288	1	3
350.630	1	2
350.972	1	1
351.314	1	-7
351.656	1	0
351.998	1	-4
352.340	1	-2
352.682	1	-5
353.024	1	-8
353.366	1	11
353.708	1	16
354.050	1	2
354.392	1	3
354.734	1	-8
355.076	1	-1
355.418	1	0
355.760	1	-2
356.102	1	-3
356.444	1	-1
356.785	1	9
357.127	1	5
357.469	1	4
357.811	1	4
358.153	1	8
358.495	1	11
358.837	1	6
359.179	1	0
359.521	1	-7
359.863	1	-10
360.205	1	-3
360.547	1	-3
360.889	1	5
361.231	1	-4
361.572	1	-2
361.914	1	4
362.256	1	5
362.598	1	4
362.940	1	4
363.282	1	-1
363.624	1	7
363.966	1	8
364.308	1	3
364.649	1	9
364.991	1	7
365.333	1	7
365.675	1	2
366.017	1	0
366.359	1	5
366.701	1	1
367.042	1	7
367.384	1	3
367.726	1	21
368.068	1	4
368.410	1	-2
368.752	1	6
369.093	1	-3
369.435	1	0
369.777	1	-2
370.119	1	13
370.461	1	3
370.803	1	-13
371.144	1	17
371.486	1	9
371.828	1	5
372.170	1	5
372.512	1	2
372.853	1	6
373.195	1	3
373.537	1	10
373.879	1	14
374.220	1	6
374.562	1	3
374.904	1	10
375.246	1	-1
375.588	1	3
375.929	1	3
376.271	1	-2
376.613	1	7
376.955	1	2
377.296	1	4
377.638	1	-1
377.980	1	12
378.321	1	11
378.663	1	-7
379.005	1	12
379.347	1	5
379.688	1	-1
380.030	1	0
380.372	1	8
380.714	1	5
381.055	1	-1
381.397	1	-4
381.739	1	19
382.080	1	-7
382.422	1	13
382.764	1	-4
383.105	1	6
383.447	1	13
383.789	1	-2
384.130	1	-8
384.472	1	-7
384.814	1	7
385.156	1	18
385.497	1	14
385.839	1	3
386.180	1	11
386.522	1	9
386.864	1	6
387.205	1	-3
387.547	1	7
387.889	1	22
388.230	1	9
388.572	1	15
388.914	1	11
389.255	1	14
389.597	1	1
389.939	1	13
390.280	1	9
390.622	1	-3
390.963	1	0
391.305	1	11
391.647	1	11
391.988	1	-5
392.330	1	11
392.671	1	9
393.013	1	14
393.355	1	20
393.696	1	3
394.038	1	-2
394.379	1	2
394.721	1	-5
395.062	1	-1
395.404	1	19
395.746	1	-2
396.087	1	-2
396.429	1	11
396.770	1	10
397.112	1	5
397.453	1	-8
397.795	1	8
398.136	1	6
398.478	1	5
398.819	1	9
399.161	1	6
399.503	1	5
399.844	1	-2
400.186	1	6
400.527	1	9
400.869	1	13
401.210	1	-3
401.552	1	17
401.893	1	6
402.235	1	15
402.576	1	14
402.918	1	-3
403.259	1	0
403.601	1	-3
403.942	1	16
404.284	1	-11
404.625	1	10
404.967	1	5
405.308	1	7
405.649	1	7
405.991	1	16
406.332	1	0
406.674	1	2
407.015	1	2
407.357	1	5
407.698	1	-9
408.040	1	-3
408.381	1	4
408.722	1	1
409.064	1	10
409.405	1	1
409.747	1	-2
410.088	1	9
410.430	1	2
410.771	1	14
411.112	1	5
411.454	1	4
411.795	1	13
412.137	1	7
412.478	1	7
412.819	1	-3
413.161	1	-1
413.502	1	-5
413.844	1	1
414.185	1	10
414.526	1	7
414.868	1	10
415.209	1	-2
415.550	1	-13
415.892	1	7
416.233	1	5
416.575	1	5
416.916	1	-3
417.257	1	12
417.599	1	5
417.940	1	0
418.281	1	3
418.623	1	10
418.964	1	6
419.305	1	4
419.647	1	9
419.988	1	-7
420.329	1	6
420.671	1	5
421.012	1	3
421.353	1	6
421.695	1	-1
422.036	1	1
422.377	1	0
422.718	1	2
423.060	1	3
423.401	1	-3
423.742	1	5
424.084	1	5
424.425	1	1
424.766	1	7
425.107	1	-3
425.449	1	7
425.790	1	-2
426.131	1	-4
426.472	1	3
426.814	1	8
427.155	1	-1
427.496	1	13
427.837	1	-4
428.179	1	-8
428.520	1	0
428.861	1	-1
429.202	1	9
429.544	1	7
429.885	1	-2
430.226	1	-2
430.567	1	12
430.909	1	-4
431.250	1	-7
431.591	1	6
431.932	1	7
432.273	1	1
432.615	1	2
432.956	1	6
433.297	1	12
433.638	1	-5
433.979	1	4
434.320	1	-1
434.662	1	-12
435.003	1	7
435.344	1	7
435.685	1	14
436.026	1	-2
436.368	1	-5
436.709	1	-5
437.050	1	9
437.391	1	5
437.732	1	6
438.073	1	5
438.414	1	6
438.756	1	2
439.097	1	7
439.438	1	6
439.779	1	1
440.120	1	14
440.461	1	-3
440.802	1	5
441.143	1	2
441.485	1	-12
441.826	1	-7
442.167	1	-10
442.508	1	0
442.849	1	7
443.190	1	-2
443.531	1	2
443.872	1	4
444.213	1	-3
444.554	1	-4
444.895	1	8
445.237	1	-1
445.578	1	3
445.919	1	4
446.260	1	9
446.601	1	-1
446.942	1	-1
447.283	1	-4
447.624	1	8
447.965	1	5
448.306	1	-7
448.647	1	10
448.988	1	-9
449.329	1	12
449.670	1	2
450.011	1	6
450.352	1	4
450.693	1	7
451.034	1	7
451.375	1	17
451.716	1	2
452.057	1	17
452.398	1	5
452.739	1	1
453.080	1	18
453.421	1	3
453.762	1	9
454.103	1	2
454.444	1	17
454.785	1	-11
455.126	1	-3
455.467	1	4
455.808	1	0
456.149	1	-2
456.490	1	11
456.831	1	14
457.172	1	3
457.513	1	7
457.854	1	1
458.195	1	2
458.536	1	-2
458.877	1	-7
459.218	1	2
459.559	1	7
459.899	1	10
460.240	1	7
460.581	1	1
460.922	1	-4
461.263	1	-4
461.604	1	3
461.945	1	7
462.286	1	16
462.627	1	-3
462.968	1	-3
463.309	1	1
463.649	1	4
463.990	1	1
464.331	1	3
464.672	1	3
465.013	1	-14
465.354	1	-2
465.695	1	10
466.036	1	3
466.376	1	-1
466.717	1	-4
467.058	1	5
467.399	1	-1
467.740	1	8
468.081	1	4
468.422	1	12
468.762	1	-7
469.103	1	-7
469.444	1	5
469.785	1	6
470.126	1	1
470.467	1	-2
470.807	1	-4
471.148	1	-3
471.489	1	-4
471.830	1	11
472.171	1	5
472.511	1	6
472.852	1	1
473.193	1	-4
473.534	1	-2
473.875	1	4
474.215	1	2
474.556	1	-13
474.897	1	2
475.238	1	-6
475.578	1	7
475.919	1	7
476.260	1	-6
476.601	1	-2
476.942	1	7
477.282	1	-14
477.623	1	8
477.964	1	6
478.305	1	5
478.645	1	0
478.986	1	2
479.327	1	3
479.667	1	-4
480.008	1	-1
480.349	1	3
480.690	1	3
481.030	1	-3
481.371	1	-3
481.712	1	10
482.053	1	11
482.393	1	-8
482.734	1	0
483.075	1	12
483.415	1	4
483.756	1	3
484.097	1	-1
484.437	1	-7
484.778	1	1
485.119	1	0
485.459	1	12
485.800	1	-1
486.141	1	-1
486.481	1	2
486.822	1	-4
487.163	1	0
487.503	1	-12
487.844	1	11
488.185	1	-2
488.525	1	2
488.866	1	7
489.207	1	12
489.547	1	0
489.888	1	4
490.228	1	-7
490.569	1	4
490.910	1	-2
491.250	1	-4
491.591	1	-2
491.932	1	-4
492.272	1	9
492.613	1	11
492.953	1	4
493.294	1	11
493.635	1	-1
493.975	1	2
494.316	1	6
494.656	1	5
494.997	1	0
495.337	1	9
495.678	1	18
496.019	1	-10
496.359	1	4
496.700	1	-6
497.040	1	6
497.381	1	-15
497.721	1	5
498.062	1	-4
498.403	1	0
498.743	1	7
499.084	1	-7
499.424	1	18
499.765	1	-3
500.105	1	9
500.446	1	11
500.786	1	6
501.127	1	10
501.467	1	3
501.808	1	-7
502.148	1	14
502.489	1	12
502.829	1	6
503.170	1	4
503.510	1	-4
503.851	1	-18
504.191	1	-3
504.532	1	-1
504.872	1	-4
505.213	1	3
505.553	1	13
505.894	1	8
506.234	1	8
506.575	1	5
506.915	1	0
507.256	1	6
507.596	1	8
507.936	1	5
508.277	1	5
508.617	1	8
508.958	1	11
509.298	1	15
509.639	1	3
509.979	1	3
510.319	1	7
510.660	1	11
511.000	1	12
511.341	1	-1
511.681	1	2
512.022	1	-4
512.362	1	4
512.702	1	-9
513.043	1	8
513.383	1	-4
513.724	1	6
514.064	1	5
514.404	1	7
514.745	1	-3
515.085	1	-1
515.425	1	-3
515.766	1	-1
516.106	1	-1
516.447	1	6
516.787	1	-3
517.127	1	4
517.468	1	-6
517.808	1	11
518.148	1	0
518.489	1	12
518.829	1	-4
519.169	1	9
519.510	1	-4
519.850	1	-6
520.190	1	9
520.531	1	2
520.871	1	-2
521.211	1	7
521.552	1	10
521.892	1	-2
522.232	1	-1
522.573	1	-3
522.913	1	7
523.253	1	4
523.593	1	-13
523.934	1	4
524.274	1	-1
524.614	1	2
524.955	1	-1
525.295	1	-3
525.635	1	18
525.975	1	-7
526.316	1	2
526.656	1	17
526.996	1	13
527.337	1	0
527.677	1	20
528.017	1	1
528.357	1	11
528.698	1	-5
529.038	1	9
529.378	1	11
529.718	1	0
530.058	1	7
530.399	1	11
530.739	1	-4
531.079	1	9
531.419	1	10
531.760	1	7
532.100	1	8
532.440	1	-9
532.780	1	2
533.120	1	2
533.461	1	16
533.801	1	6
534.141	1	5
534.481	1	9
534.821	1	7
535.162	1	1
535.502	1	9
535.842	1	6
536.182	1	-4
536.522	1	15
536.862	1	12
537.203	1	8
537.543	1	2
537.883	1	15
538.223	1	16
538.563	1	7
538.903	1	1
539.243	1	5
539.584	1	-5
539.924	1	6
540.264	1	6
540.604	1	9
540.944	1	2
541.284	1	2
541.624	1	-2
541.964	1	7
542.305	1	1
542.645	1	0
542.985	1	-2
543.325	1	-6
543.665	1	15
544.005	1	-10
544.345	1	-2
544.685	1	7
545.025	1	1
545.365	1	14
545.705	1	14
546.045	1	1
546.386	1	-2
546.726	1	4
547.066	1	-8
547.406	1	6
547.746	1	13
548.086	1	8
548.426	1	-8
548.766	1	7
549.106	1	15
549.446	1	-2
549.786	1	11
550.126	1	0
550.466	1	2
550.806	1	21
551.146	1	-2
551.486	1	-3
551.826	1	15
552.166	1	6
552.506	1	-6
552.846	1	6
553.186	1	4
553.526	1	9
553.866	1	5
554.206	1	9
554.546	1	-3
554.886	1	6
555.226	1	-6
555.566	1	6
555.906	1	2
556.246	1	4
556.586	1	8
556.926	1	0
557.266	1	8
557.606	1	-9
557.946	1	10
558.286	1	7
558.626	1	7
558.966	1	-3
559.306	1	-10
559.646	1	-9
559.986	1	5
560.325	1	-9
560.665	1	2
561.005	1	5
561.345	1	6
561.685	1	-8
562.025	1	1
562.365	1	5
562.705	1	14
563.045	1	4
563.385	1	4
563.725	1	6
564.064	1	13
564.404	1	8
564.744	1	5
565.084	1	-2
565.424	1	-7
565.764	1	13
566.104	1	-4
566.444	1	12
566.783	1	5
567.123	1	15
567.463	1	5
567.803	1	-1
568.143	1	-1
568.483	1	-8
568.823	1	9
569.162	1	9
569.502	1	5
569.842	1	5
570.182	1	-4
570.522	1	10
570.862	1	2
571.201	1	-5
571.541	1	-5
571.881	1	0
572.221	1	-1
572.561	1	6
572.900	1	14
573.240	1	-9
573.580	1	6
573.920	1	-1
574.260	1	-2
574.599	1	6
574.939	1	6
575.279	1	1
575.619	1	7
575.959	1	-7
576.298	1	-1
576.638	1	-6
576.978	1	0
577.318	1	10
577.657	1	-6
577.997	1	-4
578.337	1	1
578.677	1	-3
579.016	1	11
579.356	1	-3
579.696	1	2
580.036	1	0
580.375	1	4
580.715	1	8
581.055	1	-3
581.394	1	-9
581.734	1	10
582.074	1	-2
582.414	1	5
582.753	1	6
583.093	1	2
583.433	1	-7
583.772	1	10
584.112	1	6
584.452	1	3
584.791	1	-11
585.131	1	-1
585.471	1	5
585.811	1	-2
586.150	1	1
586.490	1	-5
586.830	1	-2
587.169	1	1
587.509	1	0
587.849	1	7
588.188	1	1
588.528	1	3
588.867	1	11
589.207	1	-3
589.547	1	-3
589.886	1	-4
590.226	1	4
590.566	1	-1
590.905	1	13
591.245	1	3
591.585	1	-3
591.924	1	-9
592.264	1	-5
592.603	1	-4
592.943	1	2
593.283	1	2
593.622	1	1
593.962	1	8
594.301	1	13
594.641	1	-10
594.981	1	4
595.320	1	9
595.660	1	-6
595.999	1	8
596.339	1	3
596.678	1	2
597.018	1	8
597.358	1	3
597.697	1	-3
598.037	1	-2
598.376	1	7
598.716	1	-11
599.055	1	5
599.395	1	11
599.734	1	-1
600.074	1	0
600.413	1	12
600.753	1	2
601.092	1	-13
601.432	1	-1
601.771	1	7
602.111	1	-3
602.451	1	10
602.790	1	-3
603.130	1	-6
603.469	1	-8
603.809	1	4
604.148	1	-3
604.487	1	2
604.827	1	-9
605.166	1	4
605.506	1	6
605.845	1	2
606.185	1	1
606.524	1	-7
606.864	1	3
607.203	1	8
607.543	1	-8
607.882	1	3
608.222	1	17
608.561	1	8
608.901	1	2
609.240	1	-3
609.579	1	0
609.919	1	0
610.258	1	9
610.598	1	4
610.937	1	0
611.277	1	7
611.616	1	-9
611.955	1	16
612.295	1	4
612.634	1	3
612.974	1	4
613.313	1	8
613.652	1	-1
613.992	1	6
614.331	1	0
614.671	1	-2
615.010	1	11
615.349	1	9
615.689	1	5
616.028	1	2
616.368	1	2
616.707	1	5
617.046	1	-1
617.386	1	-1
617.725	1	5
618.064	1	8
618.404	1	8
618.743	1	6
619.082	1	11
619.422	1	6
619.761	1	7
620.100	1	9
620.440	1	2
620.779	1	-4
621.118	1	-3
621.458	1	5
621.797	1	8
622.136	1	8
622.476	1	-2
622.815	1	2
623.154	1	6
623.494	1	10
623.833	1	5
624.172	1	11
624.511	1	-2
624.851	1	5
625.190	1	10
625.529	1	6
625.869	1	7
626.208	1	-4
626.547	1	7
626.886	1	-4
627.226	1	2
627.565	1	9
627.904	1	-4
628.243	1	-4
628.583	1	-7
628.922	1	0
629.261	1	12
629.600	1	2
629.940	1	8
630.279	1	-1
630.618	1	7
630.957	1	-4
631.297	1	3
631.636	1	7
631.975	1	2
632.314	1	9
632.653	1	-13
632.993	1	5
633.332	1	2
633.671	1	4
634.010	1	-1
634.349	1	7
634.689	1	6
635.028	1	4
635.367	1	-8
635.706	1	1
636.045	1	0
636.384	1	9
636.724	1	2
637.063	1	6
637.402	1	14
637.741	1	15
638.080	1	1
638.419	1	2
638.759	1	2
639.098	1	-2
639.437	1	0
639.776	1	1
640.115	1	-8
640.454	1	8
640.793	1	6
641.132	1	-3
641.472	1	-3
641.811	1	1
642.150	1	15
642.489	1	-3
642.828	1	8
643.167	1	-2
643.506	1	-3
643.845	1	2
644.184	1	8
644.524	1	-2
644.863	1	-9
645.202	1	3
645.541	1	-7
645.880	1	3
646.219	1	2
646.558	1	2
646.897	1	-2
647.236	1	6
647.575	1	4
647.914	1	2
648.253	1	2
648.592	1	0
648.931	1	12
649.270	1	10
649.610	1	22
649.949	1	4
650.288	1	0
650.627	1	5
650.966	1	2
651.305	1	1
651.644	1	-3
651.983	1	2
652.322	1	7
652.661	1	4
653.000	1	-4
653.339	1	5
653.678	1	-5
654.017	1	9
654.356	1	9
654.695	1	5
655.034	1	-4
655.373	1	1
655.712	1	0
656.051	1	8
656.390	1	-9
656.729	1	11
657.068	1	-8
657.406	1	12
657.745	1	-5
658.084	1	9
658.423	1	-6
658.762	1	-9
659.101	1	1
659.440	1	10
659.779	1	-10
660.118	1	6
660.457	1	-5
660.796	1	1
661.135	1	3
661.474	1	-4
661.813	1	6
662.152	1	-8
662.491	1	5
662.829	1	0
663.168	1	1
663.507	1	-8
663.846	1	12
664.185	1	0
664.524	1	-10
664.863	1	0
665.202	1	1
665.541	1	-2
665.879	1	-4
666.218	1	-3
666.557	1	-3
666.896	1	-1
667.235	1	5
667.574	1	10
667.913	1	-4
668.251	1	3
668.590	1	-1
668.929	1	-8
669.268	1	7
669.607	1	-8
669.946	1	13
670.285	1	1
670.623	1	9
670.962	1	6
671.301	1	4
671.640	1	-15
671.979	1	13
672.317	1	1
672.656	1	12
672.995	1	-1
673.334	1	9
673.673	1	10
674.011	1	16
674.350	1	-1
674.689	1	-2
675.028	1	1
675.367	1	1
675.705	1	0
676.044	1	-16
676.383	1	4
676.722	1	5
677.060	1	12
677.399	1	-3
677.738	1	-11
678.077	1	4
678.416	1	2
678.754	1	-3
679.093	1	5
679.432	1	-7
679.771	1	-1
680.109	1	11
680.448	1	6
680.787	1	9
681.125	1	6
681.464	1	-2
681.803	1	-4
682.142	1	14
682.480	1	-10
682.819	1	2
683.158	1	-5
683.496	1	3
683.835	1	-8
684.174	1	-3
684.512	1	-1
684.851	1	-1
685.190	1	10
685.529	1	7
685.867	1	-2
686.206	1	-2
686.545	1	4
686.883	1	-8
687.222	1	-8
687.561	1	2
687.899	1	-1
688.238	1	-3
688.577	1	-2
688.746	1	3