File: Analysis/GaN_68K_200ms/GaN_sample E_spot4_UVVIS_68 K_200um_200 ms 2x2mm1_832.txt
340.368	1	-6
340.710	1	-11
341.052	1	1
341.394	1	0
341.737	1	5
342.079	1	-5
342.421	1	1
342.763	1	-2
343.105	1	14
343.447	1	2
343.789	1	2
344.131	1	-12
344.473	1	-7
344.815	1	6
345.157	1	5
345.499	1	-2
345.841	1	1
346.183	1	5
346.526	1	4
346.868	1	-4
347.210	1	-5
347.552	1	-10
347.894	1	-5
348.236	1	-4
348.578	1	0
348.920	1	9
349.262	1	5
349.604	1	6
349.946	1	6
350.288	1	8
350.630	1	0
350.972	1	-13
351.314	1	-6
351.656	1	0
351.998	1	-1
352.340	1	3
352.682	1	-7
353.024	1	-11
353.366	1	8
353.708	1	6
354.050	1	7
354.392	1	3
354.734	1	-7
355.076	1	2
355.418	1	-1
355.760	1	4
356.102	1	-6
356.444	1	9
356.785	1	8
357.127	1	6
357.469	1	2
357.811	1	12
358.153	1	-1
358.495	1	6
358.837	1	9
359.179	1	-1
359.521	1	-2
359.863	1	-7
360.205	1	-5
360.547	1	3
360.889	1	8
361.231	1	-7
361.572	1	-1
361.914	1	5
362.256	1	8
362.598	1	-7
362.940	1	-8
363.282	1	3
363.624	1	3
363.966	1	2
364.308	1	1
364.649	1	3
364.991	1	3
365.333	1	7
365.675	1	-2
366.017	1	2
366.359	1	-1
366.701	1	-11
367.042	1	5
367.384	1	-4
367.726	1	-3
368.068	1	0
368.410	1	-5
368.752	1	-5
369.093	1	-4
369.435	1	4
369.777	1	-3
370.119	1	5
370.461	1	-4
370.803	1	-7
371.144	1	13
371.486	1	1
371.828	1	3
372.170	1	11
372.512	1	-9
372.853	1	-2
373.195	1	-12
373.537	1	4
373.879	1	5
374.220	1	0
374.562	1	-2
374.904	1	-2
375.246	1	-2
375.588	1	-2
375.929	1	5
376.271	1	-4
376.613	1	-1
376.955	1	-13
377.296	1	-3
377.638	1	-4
377.980	1	5
378.321	1	5
378.663	1	-6
379.005	1	6
379.347	1	5
379.688	1	-2
380.030	1	-6
380.372	1	-7
380.714	1	-1
381.055	1	-1
381.397	1	-3
381.739	1	1
382.080	1	-18
382.422	1	9
382.764	1	-7
383.105	1	-2
383.447	1	5
383.789	1	2
384.130	1	-3
384.472	1	-12
384.814	1	2
385.156	1	8
385.497	1	11
385.839	1	-1
386.180	1	-5
386.522	1	7
386.864	1	-4
387.205	1	-7
387.547	1	-7
387.889	1	7
388.230	1	0
388.572	1	1
388.914	1	8
389.255	1	3
389.597	1	-1
389.939	1	4
390.280	1	7
390.622	1	-3
390.963	1	7
391.305	1	5
391.647	1	0
391.988	1	5
392.330	1	5
392.671	1	11
393.013	1	5
393.355	1	8
393.696	1	1
394.038	1	-10
394.379	1	-12
394.721	1	7
395.062	1	-8
395.404	1	3
395.746	1	-3
396.087	1	-1
396.429	1	3
396.770	1	13
397.112	1	0
397.453	1	-11
397.795	1	2
398.136	1	3
398.478	1	10
398.819	1	4
399.161	1	-2
399.503	1	1
399.844	1	3
400.186	1	6
400.527	1	6
400.869	1	2
401.210	1	-1
401.552	1	15
401.893	1	0
402.235	1	5
402.576	1	2
402.918	1	-9
403.259	1	-4
403.601	1	-4
403.942	1	4
404.284	1	-3
404.625	1	5
404.967	1	-9
405.308	1	1
405.649	1	-1
405.991	1	10
406.332	1	-6
406.674	1	3
407.015	1	1
407.357	1	4
407.698	1	-12
408.040	1	-8
408.381	1	3
408.722	1	1
409.064	1	-2
409.405	1	-2
409.747	1	-10
410.088	1	0
410.430	1	4
410.771	1	2
411.112	1	-6
411.454	1	4
411.795	1	1
412.137	1	12
412.478	1	4
412.819	1	-5
413.161	1	1
413.502	1	0
413.844	1	-3
414.185	1	2
414.526	1	4
414.868	1	0
415.209	1	-4
415.550	1	-1
415.892	1	-3
416.233	1	-2
416.575	1	4
416.916	1	-3
417.257	1	8
417.599	1	4
417.940	1	-6
418.281	1	5
418.623	1	2
418.964	1	3
419.305	1	0
419.647	1	3
419.988	1	-11
420.329	1	1
420.671	1	10
421.012	1	3
421.353	1	7
421.695	1	-2
422.036	1	-8
422.377	1	0
422.718	1	-4
423.060	1	-9
423.401	1	0
423.742	1	-5
424.084	1	1
424.425	1	-10
424.766	1	-7
425.107	1	2
425.449	1	-1
425.790	1	-4
426.131	1	-2
426.472	1	-12
426.814	1	8
427.155	1	-5
427.496	1	5
427.837	1	0
428.179	1	-6
428.520	1	-1
428.861	1	-6
429.202	1	0
429.544	1	2
429.885	1	-1
430.226	1	-4
430.567	1	16
430.909	1	-5
431.250	1	-8
431.591	1	-4
431.932	1	2
432.273	1	1
432.615	1	8
432.956	1	2
433.297	1	8
433.638	1	2
433.979	1	-3
434.320	1	0
434.662	1	-5
435.003	1	5
435.344	1	3
435.685	1	0
436.026	1	4
436.368	1	1
436.709	1	0
437.050	1	-3
437.391	1	-3
437.732	1	6
438.073	1	10
438.414	1	1
438.756	1	4
439.097	1	-1
439.438	1	9
439.779	1	3
440.120	1	6
440.461	1	-14
440.802	1	1
441.143	1	12
441.485	1	-2
441.826	1	-12
442.167	1	-11
442.508	1	1
442.849	1	4
443.190	1	-18
443.531	1	-9
443.872	1	-1
444.213	1	-7
444.554	1	4
444.895	1	-2
445.237	1	-11
445.578	1	9
445.919	1	-2
446.260	1	6
446.601	1	-4
446.942	1	2
447.283	1	-1
447.624	1	2
447.965	1	-3
448.306	1	6
448.647	1	11
448.988	1	-9
449.329	1	4
449.670	1	8
450.011	1	6
450.352	1	1
450.693	1	6
451.034	1	4
451.375	1	3
451.716	1	7
452.057	1	6
452.398	1	3
452.739	1	3
453.080	1	9
453.421	1	-3
453.762	1	8
454.103	1	10
454.444	1	5
454.785	1	0
455.126	1	-5
455.467	1	4
455.808	1	0
456.149	1	-9
456.490	1	4
456.831	1	14
457.172	1	-2
457.513	1	12
457.854	1	-3
458.195	1	1
458.536	1	2
458.877	1	2
459.218	1	5
459.559	1	-5
459.899	1	6
460.240	1	3
460.581	1	8
460.922	1	-2
461.263	1	5
461.604	1	4
461.945	1	6
462.286	1	1
462.627	1	-2
462.968	1	-12
463.309	1	0
463.649	1	3
463.990	1	4
464.331	1	-2
464.672	1	0
465.013	1	-4
465.354	1	2
465.695	1	8
466.036	1	-4
466.376	1	3
466.717	1	-8
467.058	1	9
467.399	1	8
467.740	1	0
468.081	1	7
468.422	1	1
468.762	1	-9
469.103	1	2
469.444	1	-9
469.785	1	8
470.126	1	3
470.467	1	-1
470.807	1	-6
471.148	1	0
471.489	1	6
471.830	1	12
472.171	1	-2
472.511	1	7
472.852	1	-2
473.193	1	-11
473.534	1	-2
473.875	1	-4
474.215	1	-7
474.556	1	-2
474.897	1	2
475.238	1	-11
475.578	1	-3
475.919	1	-2
476.260	1	3
476.601	1	-1
476.942	1	-6
477.282	1	-9
477.623	1	9
477.964	1	11
478.305	1	-1
478.645	1	-5
478.986	1	-10
479.327	1	-2
479.667	1	7
480.008	1	-2
480.349	1	-6
480.690	1	1
481.030	1	-5
481.371	1	5
481.712	1	5
482.053	1	4
482.393	1	-8
482.734	1	-1
483.075	1	4
483.415	1	3
483.756	1	-1
484.097	1	-6
484.437	1	-16
484.778	1	4
485.119	1	1
485.459	1	2
485.800	1	0
486.141	1	-4
486.481	1	-5
486.822	1	-1
487.163	1	-5
487.503	1	-12
487.844	1	-4
488.185	1	-6
488.525	1	-4
488.866	1	3
489.207	1	8
489.547	1	-7
489.888	1	4
490.228	1	-5
490.569	1	4
490.910	1	0
491.250	1	3
491.591	1	-6
491.932	1	-1
492.272	1	2
492.613	1	2
492.953	1	10
493.294	1	4
493.635	1	2
493.975	1	-4
494.316	1	5
494.656	1	-4
494.997	1	-2
495.337	1	1
495.678	1	2
496.019	1	-3
496.359	1	-1
496.700	1	-6
497.040	1	-6
497.381	1	-17
497.721	1	-3
498.062	1	-10
498.403	1	6
498.743	1	-5
499.084	1	-11
499.424	1	12
499.765	1	-2
500.105	1	1
500.446	1	4
500.786	1	-3
501.127	1	6
501.467	1	2
501.808	1	-9
502.148	1	4
502.489	1	12
502.829	1	0
503.170	1	2
503.510	1	-3
503.851	1	-15
504.191	1	6
504.532	1	-4
504.872	1	-7
505.213	1	2
505.553	1	3
505.894	1	-1
506.234	1	6
506.575	1	-9
506.915	1	1
507.256	1	-7
507.596	1	7
507.936	1	-6
508.277	1	3
508.617	1	1
508.958	1	7
509.298	1	12
509.639	1	0
509.979	1	1
510.319	1	-9
510.660	1	8
511.000	1	9
511.341	1	-4
511.681	1	-3
512.022	1	-4
512.362	1	-2
512.702	1	-9
513.043	1	0
513.383	1	-6
513.724	1	4
514.064	1	-2
514.404	1	-7
514.745	1	-9
515.085	1	-2
515.425	1	3
515.766	1	3
516.106	1	-7
516.447	1	-9
516.787	1	-10
517.127	1	-4
517.468	1	-4
517.808	1	1
518.148	1	-2
518.489	1	3
518.829	1	-6
519.169	1	2
519.510	1	-2
519.850	1	-6
520.190	1	-1
520.531	1	-5
520.871	1	0
521.211	1	5
521.552	1	3
521.892	1	-10
522.232	1	-14
522.573	1	2
522.913	1	0
523.253	1	3
523.593	1	-5
523.934	1	2
524.274	1	-5
524.614	1	-2
524.955	1	-4
525.295	1	-7
525.635	1	7
525.975	1	-11
526.316	1	-2
526.656	1	13
526.996	1	6
527.337	1	-8
527.677	1	10
528.017	1	-7
528.357	1	4
528.698	1	-4
529.038	1	1
529.378	1	1
529.718	1	2
530.058	1	3
530.399	1	7
530.739	1	1
531.079	1	11
531.419	1	14
531.760	1	4
532.100	1	5
532.440	1	-8
532.780	1	3
533.120	1	-4
533.461	1	14
533.801	1	1
534.141	1	-1
534.481	1	0
534.821	1	-3
535.162	1	8
535.502	1	5
535.842	1	-2
536.182	1	-1
536.522	1	7
536.862	1	4
537.203	1	1
537.543	1	-5
537.883	1	9
538.223	1	6
538.563	1	0
538.903	1	-11
539.243	1	3
539.584	1	5
539.924	1	-5
540.264	1	0
540.604	1	12
540.944	1	-4
541.284	1	-2
541.624	1	8
541.964	1	3
542.305	1	-6
542.645	1	1
542.985	1	-9
543.325	1	-6
543.665	1	5
544.005	1	-8
544.345	1	-9
544.685	1	-2
545.025	1	-9
545.365	1	7
545.705	1	4
546.045	1	7
546.386	1	-2
546.726	1	-6
547.066	1	-14
547.406	1	1
547.746	1	13
548.086	1	-4
548.426	1	-3
548.766	1	0
549.106	1	2
549.446	1	-1
549.786	1	-6
550.126	1	-3
550.466	1	-8
550.806	1	1
551.146	1	0
551.486	1	-2
551.826	1	-1
552.166	1	6
552.506	1	4
552.846	1	1
553.186	1	-3
553.526	1	1
553.866	1	-1
554.206	1	5
554.546	1	-17
554.886	1	-1
555.226	1	9
555.566	1	4
555.906	1	10
556.246	1	-4
556.586	1	2
556.926	1	-1
557.266	1	3
557.606	1	-1
557.946	1	0
558.286	1	3
558.626	1	9
558.966	1	2
559.306	1	-4
559.646	1	-8
559.986	1	-5
560.325	1	-19
560.665	1	6
561.005	1	-4
561.345	1	-12
561.685	1	-2
562.025	1	-4
562.365	1	3
562.705	1	7
563.045	1	8
563.385	1	-4
563.725	1	-5
564.064	1	3
564.404	1	0
564.744	1	9
565.084	1	-8
565.424	1	-2
565.764	1	9
566.104	1	1
566.444	1	3
566.783	1	2
567.123	1	13
567.463	1	0
567.803	1	-5
568.143	1	-9
568.483	1	-10
568.823	1	5
569.162	1	3
569.502	1	0
569.842	1	-5
570.182	1	-2
570.522	1	4
570.862	1	10
571.201	1	7
571.541	1	1
571.881	1	7
572.221	1	-1
572.561	1	-6
572.900	1	9
573.240	1	-8
573.580	1	5
573.920	1	-3
574.260	1	-7
574.599	1	-5
574.939	1	-2
575.279	1	1
575.619	1	2
575.959	1	-6
576.298	1	-11
576.638	1	-2
576.978	1	3
577.318	1	-1
577.657	1	-16
577.997	1	2
578.337	1	-3
578.677	1	-2
579.016	1	11
579.356	1	-5
579.696	1	12
580.036	1	-7
580.375	1	-4
580.715	1	8
581.055	1	5
581.394	1	-9
581.734	1	4
582.074	1	1
582.414	1	0
582.753	1	6
583.093	1	-3
583.433	1	-6
583.772	1	-1
584.112	1	9
584.452	1	-5
584.791	1	-3
585.131	1	-11
585.471	1	-5
585.811	1	-5
586.150	1	-3
586.490	1	-1
586.830	1	1
587.169	1	-1
587.509	1	2
587.849	1	6
588.188	1	-9
588.528	1	-1
588.867	1	4
589.207	1	-8
589.547	1	-11
589.886	1	-4
590.226	1	-7
590.566	1	-10
590.905	1	3
591.245	1	-8
591.585	1	-2
591.924	1	-4
592.264	1	-7
592.603	1	-8
592.943	1	-8
593.283	1	-1
593.622	1	-3
593.962	1	6
594.301	1	4
594.641	1	-10
594.981	1	-4
595.320	1	6
595.660	1	-6
595.999	1	-2
596.339	1	3
596.678	1	-4
597.018	1	12
597.358	1	2
597.697	1	-8
598.037	1	1
598.376	1	4
598.716	1	-3
599.055	1	-2
599.395	1	7
599.734	1	-10
600.074	1	-8
600.413	1	0
600.753	1	3
601.092	1	-12
601.432	1	5
601.771	1	3
602.111	1	1
602.451	1	4
602.790	1	-6
603.130	1	10
603.469	1	-2
603.809	1	5
604.148	1	6
604.487	1	2
604.827	1	-8
605.166	1	-6
605.506	1	1
605.845	1	1
606.185	1	-1
606.524	1	0
606.864	1	-1
607.203	1	7
607.543	1	-6
607.882	1	4
608.222	1	-1
608.561	1	6
608.901	1	8
609.240	1	7
609.579	1	1
609.919	1	0
610.258	1	10
610.598	1	-2
610.937	1	2
611.277	1	-2
611.616	1	-5
611.955	1	2
612.295	1	0
612.634	1	-1
612.974	1	1
613.313	1	3
613.652	1	-5
613.992	1	6
614.331	1	-1
614.671	1	4
615.010	1	4
615.349	1	1
615.689	1	-6
616.028	1	-14
616.368	1	-10
616.707	1	0
617.046	1	9
617.386	1	-4
617.725	1	2
618.064	1	-6
618.404	1	6
618.743	1	1
619.082	1	1
619.422	1	2
619.761	1	-2
620.100	1	-3
620.440	1	1
620.779	1	-3
621.118	1	0
621.458	1	9
621.797	1	-14
622.136	1	-2
622.476	1	1
622.815	1	-5
623.154	1	9
623.494	1	-3
623.833	1	-3
624.172	1	12
624.511	1	-1
624.851	1	-5
625.190	1	-1
625.529	1	5
625.869	1	4
626.208	1	2
626.547	1	6
626.886	1	-13
627.226	1	-5
627.565	1	11
627.904	1	5
628.243	1	-15
628.583	1	7
628.922	1	-4
629.261	1	0
629.600	1	1
629.940	1	7
630.279	1	0
630.618	1	-2
630.957	1	-3
631.297	1	-1
631.636	1	2
631.975	1	-4
632.314	1	-2
632.653	1	-7
632.993	1	4
633.332	1	0
633.671	1	5
634.010	1	-15
634.349	1	-2
634.689	1	7
635.028	1	-2
635.367	1	-7
635.706	1	-7
636.045	1	-10
636.384	1	2
636.724	1	-8
637.063	1	-3
637.402	1	-3
637.741	1	4
638.080	1	-3
638.419	1	3
638.759	1	-5
639.098	1	0
639.437	1	-8
639.776	1	-7
640.115	1	-5
640.454	1	18
640.793	1	-3
641.132	1	10
641.472	1	-3
641.811	1	-6
642.150	1	1
642.489	1	-9
642.828	1	-4
643.167	1	8
643.506	1	-6
643.845	1	2
644.184	1	10
644.524	1	-11
644.863	1	-3
645.202	1	2
645.541	1	-10
645.880	1	-1
646.219	1	5
646.558	1	-2
646.897	1	-3
647.236	1	-1
647.575	1	-5
647.914	1	-4
648.253	1	1
648.592	1	-2
648.931	1	7
649.270	1	11
649.610	1	5
649.949	1	-4
650.288	1	-5
650.627	1	-2
650.966	1	-7
651.305	1	-1
651.644	1	-3
651.983	1	6
652.322	1	1
652.661	1	1
653.000	1	-6
653.339	1	8
653.678	1	-6
654.017	1	1
654.356	1	5
654.695	1	0
655.034	1	4
655.373	1	-5
655.712	1	-1
656.051	1	8
656.390	1	-6
656.729	1	9
657.068	1	-5
657.406	1	2
657.745	1	-2
658.084	1	6
658.423	1	-4
658.762	1	-8
659.101	1	-1
659.440	1	10
659.779	1	-6
660.118	1	5
660.457	1	-12
660.796	1	-8
661.135	1	0
661.474	1	7
661.813	1	1
662.152	1	-5
662.491	1	-4
662.829	1	-2
663.168	1	-12
663.507	1	-2
663.846	1	2
664.185	1	1
664.524	1	-9
664.863	1	1
665.202	1	-4
665.541	1	4
665.879	1	-1
666.218	1	-9
666.557	1	6
666.896	1	2
667.235	1	0
667.574	1	3
667.913	1	3
668.251	1	-2
668.590	1	-8
668.929	1	12
669.268	1	1
669.607	1	-6
669.946	1	10
670.285	1	3
670.623	1	5
670.962	1	-5
671.301	1	-3
671.640	1	-15
671.979	1	11
672.317	1	-1
672.656	1	10
672.995	1	-1
673.334	1	-1
673.673	1	3
674.011	1	-2
674.350	1	-5
674.689	1	-3
675.028	1	-3
675.367	1	-3
675.705	1	-11
676.044	1	-1
676.383	1	-4
676.722	1	-3
677.060	1	-5
677.399	1	3
677.738	1	-10
678.077	1	4
678.416	1	0
678.754	1	-3
679.093	1	1
679.432	1	-10
679.771	1	-4
680.109	1	4
680.448	1	0
680.787	1	-4
681.125	1	5
681.464	1	0
681.803	1	-18
682.142	1	6
682.480	1	-8
682.819	1	6
683.158	1	2
683.496	1	-4
683.835	1	3
684.174	1	-2
684.512	1	1
684.851	1	-4
685.190	1	3
685.529	1	-1
685.867	1	3
686.206	1	-3
686.545	1	8
686.883	1	-9
687.222	1	-3
687.561	1	-2
687.899	1	1
688.238	1	-6
688.577	1	-8
688.746	1	4