File: Analysis/GaN_68K_200ms/GaN_sample E_spot4_UVVIS_68 K_200um_200 ms 2x2mm1_302.txt
340.368	1	-3
340.710	1	-2
341.052	1	-2
341.394	1	-2
341.737	1	10
342.079	1	-11
342.421	1	-9
342.763	1	-5
343.105	1	13
343.447	1	7
343.789	1	2
344.131	1	-12
344.473	1	2
344.815	1	20
345.157	1	7
345.499	1	5
345.841	1	7
346.183	1	0
346.526	1	8
346.868	1	-1
347.210	1	1
347.552	1	-2
347.894	1	-6
348.236	1	7
348.578	1	3
348.920	1	17
349.262	1	-4
349.604	1	9
349.946	1	5
350.288	1	1
350.630	1	-9
350.972	1	-7
351.314	1	5
351.656	1	-1
351.998	1	-1
352.340	1	4
352.682	1	0
353.024	1	-3
353.366	1	15
353.708	1	3
354.050	1	6
354.392	1	9
354.734	1	3
355.076	1	-6
355.418	1	-2
355.760	1	7
356.102	1	2
356.444	1	13
356.785	1	8
357.127	1	6
357.469	1	3
357.811	1	17
358.153	1	-5
358.495	1	11
358.837	1	3
359.179	1	-3
359.521	1	4
359.863	1	-5
360.205	1	5
360.547	1	3
360.889	1	2
361.231	1	2
361.572	1	7
361.914	1	3
362.256	1	9
362.598	1	1
362.940	1	2
363.282	1	7
363.624	1	-2
363.966	1	10
364.308	1	3
364.649	1	9
364.991	1	14
365.333	1	10
365.675	1	8
366.017	1	11
366.359	1	13
366.701	1	-3
367.042	1	14
367.384	1	18
367.726	1	12
368.068	1	2
368.410	1	2
368.752	1	-3
369.093	1	6
369.435	1	-3
369.777	1	0
370.119	1	6
370.461	1	6
370.803	1	5
371.144	1	16
371.486	1	12
371.828	1	9
372.170	1	8
372.512	1	2
372.853	1	-5
373.195	1	2
373.537	1	7
373.879	1	13
374.220	1	4
374.562	1	0
374.904	1	6
375.246	1	6
375.588	1	6
375.929	1	12
376.271	1	3
376.613	1	1
376.955	1	-2
377.296	1	15
377.638	1	2
377.980	1	12
378.321	1	7
378.663	1	2
379.005	1	11
379.347	1	7
379.688	1	-6
380.030	1	8
380.372	1	7
380.714	1	7
381.055	1	9
381.397	1	-15
381.739	1	9
382.080	1	-2
382.422	1	12
382.764	1	9
383.105	1	7
383.447	1	18
383.789	1	16
384.130	1	6
384.472	1	1
384.814	1	10
385.156	1	19
385.497	1	21
385.839	1	13
386.180	1	15
386.522	1	12
386.864	1	2
387.205	1	6
387.547	1	6
387.889	1	25
388.230	1	5
388.572	1	6
388.914	1	24
389.255	1	17
389.597	1	0
389.939	1	16
390.280	1	12
390.622	1	-2
390.963	1	13
391.305	1	17
391.647	1	17
391.988	1	8
392.330	1	8
392.671	1	13
393.013	1	13
393.355	1	10
393.696	1	6
394.038	1	1
394.379	1	3
394.721	1	10
395.062	1	3
395.404	1	12
395.746	1	10
396.087	1	11
396.429	1	14
396.770	1	15
397.112	1	4
397.453	1	1
397.795	1	13
398.136	1	19
398.478	1	9
398.819	1	17
399.161	1	8
399.503	1	15
399.844	1	0
400.186	1	10
400.527	1	7
400.869	1	14
401.210	1	4
401.552	1	23
401.893	1	3
402.235	1	7
402.576	1	7
402.918	1	2
403.259	1	-1
403.601	1	-6
403.942	1	1
404.284	1	5
404.625	1	12
404.967	1	12
405.308	1	3
405.649	1	3
405.991	1	12
406.332	1	4
406.674	1	14
407.015	1	1
407.357	1	4
407.698	1	-2
408.040	1	-2
408.381	1	2
408.722	1	3
409.064	1	6
409.405	1	5
409.747	1	6
410.088	1	8
410.430	1	16
410.771	1	10
411.112	1	10
411.454	1	19
411.795	1	2
412.137	1	20
412.478	1	8
412.819	1	-4
413.161	1	7
413.502	1	5
413.844	1	3
414.185	1	15
414.526	1	6
414.868	1	13
415.209	1	3
415.550	1	2
415.892	1	-1
416.233	1	10
416.575	1	-5
416.916	1	7
417.257	1	5
417.599	1	5
417.940	1	4
418.281	1	1
418.623	1	0
418.964	1	5
419.305	1	5
419.647	1	5
419.988	1	11
420.329	1	7
420.671	1	9
421.012	1	16
421.353	1	14
421.695	1	1
422.036	1	1
422.377	1	11
422.718	1	2
423.060	1	-1
423.401	1	7
423.742	1	6
424.084	1	6
424.425	1	12
424.766	1	7
425.107	1	2
425.449	1	6
425.790	1	2
426.131	1	7
426.472	1	0
426.814	1	7
427.155	1	3
427.496	1	2
427.837	1	6
428.179	1	-9
428.520	1	-3
428.861	1	3
429.202	1	9
429.544	1	4
429.885	1	-8
430.226	1	-3
430.567	1	11
430.909	1	-3
431.250	1	3
431.591	1	2
431.932	1	3
432.273	1	-6
432.615	1	4
432.956	1	8
433.297	1	12
433.638	1	-2
433.979	1	-1
434.320	1	7
434.662	1	8
435.003	1	5
435.344	1	-1
435.685	1	14
436.026	1	3
436.368	1	5
436.709	1	-11
437.050	1	13
437.391	1	2
437.732	1	-1
438.073	1	16
438.414	1	6
438.756	1	12
439.097	1	3
439.438	1	13
439.779	1	0
440.120	1	5
440.461	1	-13
440.802	1	2
441.143	1	7
441.485	1	1
441.826	1	-6
442.167	1	-6
442.508	1	0
442.849	1	3
443.190	1	-1
443.531	1	1
443.872	1	-3
444.213	1	0
444.554	1	4
444.895	1	-4
445.237	1	7
445.578	1	21
445.919	1	2
446.260	1	4
446.601	1	5
446.942	1	5
447.283	1	6
447.624	1	8
447.965	1	-8
448.306	1	7
448.647	1	14
448.988	1	-13
449.329	1	11
449.670	1	3
450.011	1	6
450.352	1	3
450.693	1	6
451.034	1	15
451.375	1	12
451.716	1	11
452.057	1	9
452.398	1	-1
452.739	1	-1
453.080	1	16
453.421	1	6
453.762	1	17
454.103	1	6
454.444	1	4
454.785	1	-3
455.126	1	4
455.467	1	2
455.808	1	5
456.149	1	1
456.490	1	3
456.831	1	15
457.172	1	-2
457.513	1	12
457.854	1	-4
458.195	1	-5
458.536	1	11
458.877	1	8
459.218	1	7
459.559	1	5
459.899	1	17
460.240	1	2
460.581	1	13
460.922	1	5
461.263	1	8
461.604	1	2
461.945	1	6
462.286	1	10
462.627	1	-5
462.968	1	7
463.309	1	9
463.649	1	1
463.990	1	9
464.331	1	9
464.672	1	5
465.013	1	-14
465.354	1	4
465.695	1	5
466.036	1	9
466.376	1	0
466.717	1	-4
467.058	1	18
467.399	1	1
467.740	1	1
468.081	1	4
468.422	1	1
468.762	1	-6
469.103	1	-5
469.444	1	3
469.785	1	4
470.126	1	4
470.467	1	3
470.807	1	8
471.148	1	1
471.489	1	-3
471.830	1	12
472.171	1	4
472.511	1	18
472.852	1	-2
473.193	1	-7
473.534	1	-3
473.875	1	10
474.215	1	0
474.556	1	-7
474.897	1	5
475.238	1	2
475.578	1	2
475.919	1	-4
476.260	1	-4
476.601	1	1
476.942	1	4
477.282	1	-5
477.623	1	12
477.964	1	18
478.305	1	4
478.645	1	-2
478.986	1	0
479.327	1	-4
479.667	1	4
480.008	1	7
480.349	1	2
480.690	1	-4
481.030	1	3
481.371	1	8
481.712	1	6
482.053	1	2
482.393	1	-17
482.734	1	4
483.075	1	9
483.415	1	0
483.756	1	15
484.097	1	-6
484.437	1	-7
484.778	1	1
485.119	1	-5
485.459	1	7
485.800	1	-7
486.141	1	-2
486.481	1	4
486.822	1	8
487.163	1	-8
487.503	1	-14
487.844	1	4
488.185	1	-7
488.525	1	2
488.866	1	15
489.207	1	14
489.547	1	5
489.888	1	-1
490.228	1	-7
490.569	1	11
490.910	1	2
491.250	1	4
491.591	1	-18
491.932	1	14
492.272	1	10
492.613	1	0
492.953	1	5
493.294	1	17
493.635	1	6
493.975	1	-1
494.316	1	10
494.656	1	7
494.997	1	-6
495.337	1	11
495.678	1	10
496.019	1	-7
496.359	1	4
496.700	1	-1
497.040	1	3
497.381	1	-19
497.721	1	4
498.062	1	-2
498.403	1	13
498.743	1	7
499.084	1	-2
499.424	1	16
499.765	1	5
500.105	1	18
500.446	1	2
500.786	1	8
501.127	1	13
501.467	1	1
501.808	1	-8
502.148	1	7
502.489	1	10
502.829	1	1
503.170	1	12
503.510	1	8
503.851	1	-6
504.191	1	10
504.532	1	2
504.872	1	5
505.213	1	1
505.553	1	8
505.894	1	13
506.234	1	15
506.575	1	4
506.915	1	1
507.256	1	0
507.596	1	7
507.936	1	5
508.277	1	7
508.617	1	11
508.958	1	10
509.298	1	17
509.639	1	16
509.979	1	10
510.319	1	-5
510.660	1	13
511.000	1	11
511.341	1	-6
511.681	1	13
512.022	1	8
512.362	1	8
512.702	1	-6
513.043	1	10
513.383	1	-4
513.724	1	11
514.064	1	3
514.404	1	9
514.745	1	-1
515.085	1	4
515.425	1	1
515.766	1	9
516.106	1	1
516.447	1	9
516.787	1	1
517.127	1	6
517.468	1	-4
517.808	1	4
518.148	1	8
518.489	1	-1
518.829	1	-4
519.169	1	2
519.510	1	-3
519.850	1	-2
520.190	1	7
520.531	1	4
520.871	1	2
521.211	1	11
521.552	1	10
521.892	1	-1
522.232	1	-8
522.573	1	12
522.913	1	11
523.253	1	1
523.593	1	-10
523.934	1	11
524.274	1	-10
524.614	1	9
524.955	1	4
525.295	1	-4
525.635	1	13
525.975	1	4
526.316	1	-6
526.656	1	17
526.996	1	18
527.337	1	3
527.677	1	23
528.017	1	1
528.357	1	16
528.698	1	-7
529.038	1	4
529.378	1	8
529.718	1	16
530.058	1	4
530.399	1	18
530.739	1	1
531.079	1	9
531.419	1	13
531.760	1	20
532.100	1	13
532.440	1	0
532.780	1	3
533.120	1	4
533.461	1	23
533.801	1	6
534.141	1	8
534.481	1	9
534.821	1	14
535.162	1	10
535.502	1	7
535.842	1	-2
536.182	1	9
536.522	1	11
536.862	1	11
537.203	1	11
537.543	1	10
537.883	1	13
538.223	1	17
538.563	1	-1
538.903	1	3
539.243	1	-3
539.584	1	6
539.924	1	19
540.264	1	4
540.604	1	10
540.944	1	0
541.284	1	1
541.624	1	0
541.964	1	11
542.305	1	-5
542.645	1	-1
542.985	1	3
543.325	1	1
543.665	1	18
544.005	1	0
544.345	1	-1
544.685	1	12
545.025	1	7
545.365	1	3
545.705	1	10
546.045	1	12
546.386	1	6
546.726	1	7
547.066	1	-7
547.406	1	5
547.746	1	5
548.086	1	10
548.426	1	4
548.766	1	9
549.106	1	5
549.446	1	8
549.786	1	9
550.126	1	6
550.466	1	3
550.806	1	15
551.146	1	10
551.486	1	9
551.826	1	15
552.166	1	5
552.506	1	1
552.846	1	8
553.186	1	9
553.526	1	9
553.866	1	4
554.206	1	4
554.546	1	-2
554.886	1	16
555.226	1	-11
555.566	1	-2
555.906	1	13
556.246	1	9
556.586	1	8
556.926	1	10
557.266	1	9
557.606	1	-5
557.946	1	7
558.286	1	9
558.626	1	12
558.966	1	-3
559.306	1	4
559.646	1	5
559.986	1	-4
560.325	1	-7
560.665	1	3
561.005	1	6
561.345	1	16
561.685	1	7
562.025	1	5
562.365	1	10
562.705	1	7
563.045	1	-3
563.385	1	11
563.725	1	9
564.064	1	12
564.404	1	1
564.744	1	9
565.084	1	-6
565.424	1	6
565.764	1	5
566.104	1	-2
566.444	1	14
566.783	1	-2
567.123	1	26
567.463	1	10
567.803	1	0
568.143	1	0
568.483	1	2
568.823	1	12
569.162	1	12
569.502	1	10
569.842	1	4
570.182	1	-2
570.522	1	14
570.862	1	8
571.201	1	0
571.541	1	0
571.881	1	4
572.221	1	11
572.561	1	-8
572.900	1	20
573.240	1	1
573.580	1	9
573.920	1	0
574.260	1	4
574.599	1	1
574.939	1	1
575.279	1	7
575.619	1	5
575.959	1	1
576.298	1	-12
576.638	1	5
576.978	1	6
577.318	1	8
577.657	1	-11
577.997	1	-6
578.337	1	10
578.677	1	-2
579.016	1	10
579.356	1	-6
579.696	1	12
580.036	1	4
580.375	1	-4
580.715	1	6
581.055	1	8
581.394	1	-4
581.734	1	16
582.074	1	0
582.414	1	9
582.753	1	7
583.093	1	-1
583.433	1	-11
583.772	1	8
584.112	1	9
584.452	1	10
584.791	1	3
585.131	1	-5
585.471	1	-6
585.811	1	2
586.150	1	7
586.490	1	-8
586.830	1	-7
587.169	1	4
587.509	1	0
587.849	1	8
588.188	1	-1
588.528	1	7
588.867	1	-2
589.207	1	-11
589.547	1	-1
589.886	1	-5
590.226	1	8
590.566	1	-10
590.905	1	2
591.245	1	3
591.585	1	0
591.924	1	2
592.264	1	-3
592.603	1	6
592.943	1	-7
593.283	1	0
593.622	1	11
593.962	1	16
594.301	1	12
594.641	1	8
594.981	1	3
595.320	1	19
595.660	1	2
595.999	1	8
596.339	1	10
596.678	1	7
597.018	1	2
597.358	1	5
597.697	1	-2
598.037	1	4
598.376	1	13
598.716	1	-3
599.055	1	1
599.395	1	5
599.734	1	-2
600.074	1	2
600.413	1	6
600.753	1	12
601.092	1	-5
601.432	1	-7
601.771	1	8
602.111	1	-6
602.451	1	6
602.790	1	5
603.130	1	4
603.469	1	5
603.809	1	3
604.148	1	13
604.487	1	4
604.827	1	-5
605.166	1	-5
605.506	1	7
605.845	1	2
606.185	1	0
606.524	1	-9
606.864	1	7
607.203	1	17
607.543	1	1
607.882	1	-2
608.222	1	13
608.561	1	5
608.901	1	7
609.240	1	10
609.579	1	3
609.919	1	3
610.258	1	12
610.598	1	8
610.937	1	8
611.277	1	9
611.616	1	-3
611.955	1	8
612.295	1	4
612.634	1	4
612.974	1	4
613.313	1	-1
613.652	1	-4
613.992	1	4
614.331	1	6
614.671	1	5
615.010	1	9
615.349	1	1
615.689	1	6
616.028	1	2
616.368	1	-6
616.707	1	2
617.046	1	3
617.386	1	4
617.725	1	6
618.064	1	1
618.404	1	1
618.743	1	3
619.082	1	0
619.422	1	2
619.761	1	-1
620.100	1	8
620.440	1	3
620.779	1	-8
621.118	1	2
621.458	1	8
621.797	1	-2
622.136	1	0
622.476	1	5
622.815	1	1
623.154	1	7
623.494	1	5
623.833	1	4
624.172	1	13
624.511	1	3
624.851	1	-2
625.190	1	5
625.529	1	0
625.869	1	8
626.208	1	2
626.547	1	7
626.886	1	1
627.226	1	-6
627.565	1	13
627.904	1	10
628.243	1	-1
628.583	1	0
628.922	1	-2
629.261	1	6
629.600	1	2
629.940	1	-1
630.279	1	4
630.618	1	-6
630.957	1	-1
631.297	1	-4
631.636	1	-2
631.975	1	4
632.314	1	16
632.653	1	-9
632.993	1	14
633.332	1	9
633.671	1	2
634.010	1	4
634.349	1	9
634.689	1	10
635.028	1	8
635.367	1	6
635.706	1	-3
636.045	1	5
636.384	1	11
636.724	1	7
637.063	1	4
637.402	1	9
637.741	1	7
638.080	1	1
638.419	1	11
638.759	1	4
639.098	1	1
639.437	1	-3
639.776	1	-4
640.115	1	-2
640.454	1	17
640.793	1	12
641.132	1	19
641.472	1	-2
641.811	1	3
642.150	1	4
642.489	1	1
642.828	1	3
643.167	1	4
643.506	1	-7
643.845	1	4
644.184	1	10
644.524	1	-8
644.863	1	-11
645.202	1	1
645.541	1	-11
645.880	1	4
646.219	1	7
646.558	1	1
646.897	1	0
647.236	1	-5
647.575	1	2
647.914	1	-7
648.253	1	3
648.592	1	2
648.931	1	11
649.270	1	3
649.610	1	10
649.949	1	-5
650.288	1	6
650.627	1	2
650.966	1	1
651.305	1	-8
651.644	1	-3
651.983	1	4
652.322	1	10
652.661	1	2
653.000	1	-4
653.339	1	2
653.678	1	0
654.017	1	1
654.356	1	3
654.695	1	9
655.034	1	3
655.373	1	5
655.712	1	-4
656.051	1	10
656.390	1	6
656.729	1	5
657.068	1	2
657.406	1	3
657.745	1	-12
658.084	1	10
658.423	1	-13
658.762	1	3
659.101	1	4
659.440	1	11
659.779	1	-2
660.118	1	7
660.457	1	0
660.796	1	-2
661.135	1	11
661.474	1	1
661.813	1	5
662.152	1	6
662.491	1	-2
662.829	1	-8
663.168	1	-10
663.507	1	9
663.846	1	13
664.185	1	0
664.524	1	1
664.863	1	1
665.202	1	-1
665.541	1	-9
665.879	1	1
666.218	1	-2
666.557	1	1
666.896	1	-2
667.235	1	1
667.574	1	8
667.913	1	3
668.251	1	-1
668.590	1	-3
668.929	1	3
669.268	1	0
669.607	1	1
669.946	1	6
670.285	1	8
670.623	1	7
670.962	1	-3
671.301	1	-5
671.640	1	-10
671.979	1	13
672.317	1	-4
672.656	1	9
672.995	1	4
673.334	1	5
673.673	1	14
674.011	1	8
674.350	1	-2
674.689	1	4
675.028	1	4
675.367	1	0
675.705	1	-7
676.044	1	1
676.383	1	3
676.722	1	1
677.060	1	5
677.399	1	2
677.738	1	-7
678.077	1	0
678.416	1	1
678.754	1	1
679.093	1	5
679.432	1	-3
679.771	1	-1
680.109	1	11
680.448	1	5
680.787	1	8
681.125	1	3
681.464	1	0
681.803	1	-4
682.142	1	6
682.480	1	6
682.819	1	-2
683.158	1	6
683.496	1	-1
683.835	1	4
684.174	1	-5
684.512	1	-1
684.851	1	-4
685.190	1	9
685.529	1	2
685.867	1	5
686.206	1	4
686.545	1	10
686.883	1	-5
687.222	1	-4
687.561	1	9
687.899	1	3
688.238	1	-2
688.577	1	-1
688.746	1	-2