File: Analysis/GaN_68K_200ms/GaN_sample E_spot4_UVVIS_68 K_200um_200 ms 2x2mm1_293.txt
340.368	1	2
340.710	1	-13
341.052	1	3
341.394	1	-3
341.737	1	8
342.079	1	1
342.421	1	2
342.763	1	1
343.105	1	14
343.447	1	10
343.789	1	0
344.131	1	-4
344.473	1	4
344.815	1	0
345.157	1	9
345.499	1	10
345.841	1	2
346.183	1	-5
346.526	1	10
346.868	1	-5
347.210	1	1
347.552	1	1
347.894	1	6
348.236	1	-5
348.578	1	8
348.920	1	10
349.262	1	6
349.604	1	6
349.946	1	11
350.288	1	3
350.630	1	-2
350.972	1	-9
351.314	1	0
351.656	1	2
351.998	1	4
352.340	1	6
352.682	1	-10
353.024	1	-13
353.366	1	6
353.708	1	2
354.050	1	8
354.392	1	-4
354.734	1	-3
355.076	1	8
355.418	1	2
355.760	1	10
356.102	1	-6
356.444	1	-7
356.785	1	12
357.127	1	7
357.469	1	1
357.811	1	17
358.153	1	5
358.495	1	13
358.837	1	6
359.179	1	4
359.521	1	2
359.863	1	-2
360.205	1	-4
360.547	1	0
360.889	1	4
361.231	1	2
361.572	1	1
361.914	1	4
362.256	1	11
362.598	1	2
362.940	1	8
363.282	1	5
363.624	1	4
363.966	1	10
364.308	1	13
364.649	1	7
364.991	1	10
365.333	1	9
365.675	1	15
366.017	1	8
366.359	1	5
366.701	1	1
367.042	1	9
367.384	1	18
367.726	1	17
368.068	1	9
368.410	1	4
368.752	1	-5
369.093	1	6
369.435	1	5
369.777	1	11
370.119	1	5
370.461	1	2
370.803	1	9
371.144	1	16
371.486	1	11
371.828	1	13
372.170	1	14
372.512	1	4
372.853	1	10
373.195	1	1
373.537	1	3
373.879	1	10
374.220	1	9
374.562	1	2
374.904	1	4
375.246	1	12
375.588	1	10
375.929	1	15
376.271	1	1
376.613	1	3
376.955	1	-1
377.296	1	13
377.638	1	7
377.980	1	7
378.321	1	14
378.663	1	3
379.005	1	12
379.347	1	6
379.688	1	-2
380.030	1	-7
380.372	1	8
380.714	1	7
381.055	1	-1
381.397	1	2
381.739	1	20
382.080	1	0
382.422	1	12
382.764	1	2
383.105	1	9
383.447	1	13
383.789	1	5
384.130	1	2
384.472	1	2
384.814	1	11
385.156	1	12
385.497	1	12
385.839	1	11
386.180	1	11
386.522	1	18
386.864	1	3
387.205	1	14
387.547	1	11
387.889	1	22
388.230	1	16
388.572	1	8
388.914	1	19
389.255	1	12
389.597	1	-3
389.939	1	23
390.280	1	10
390.622	1	7
390.963	1	10
391.305	1	21
391.647	1	16
391.988	1	0
392.330	1	8
392.671	1	15
393.013	1	7
393.355	1	21
393.696	1	-3
394.038	1	1
394.379	1	5
394.721	1	7
395.062	1	-1
395.404	1	14
395.746	1	7
396.087	1	9
396.429	1	13
396.770	1	10
397.112	1	2
397.453	1	-4
397.795	1	14
398.136	1	8
398.478	1	9
398.819	1	15
399.161	1	15
399.503	1	13
399.844	1	13
400.186	1	12
400.527	1	5
400.869	1	23
401.210	1	3
401.552	1	24
401.893	1	0
402.235	1	16
402.576	1	21
402.918	1	3
403.259	1	-1
403.601	1	4
403.942	1	9
404.284	1	9
404.625	1	8
404.967	1	14
405.308	1	6
405.649	1	2
405.991	1	20
406.332	1	4
406.674	1	6
407.015	1	-1
407.357	1	4
407.698	1	4
408.040	1	2
408.381	1	16
408.722	1	2
409.064	1	9
409.405	1	3
409.747	1	-1
410.088	1	7
410.430	1	15
410.771	1	12
411.112	1	13
411.454	1	17
411.795	1	8
412.137	1	11
412.478	1	9
412.819	1	11
413.161	1	-1
413.502	1	-1
413.844	1	8
414.185	1	12
414.526	1	3
414.868	1	13
415.209	1	7
415.550	1	-7
415.892	1	9
416.233	1	6
416.575	1	-2
416.916	1	3
417.257	1	8
417.599	1	1
417.940	1	1
418.281	1	9
418.623	1	14
418.964	1	5
419.305	1	1
419.647	1	13
419.988	1	4
420.329	1	10
420.671	1	8
421.012	1	10
421.353	1	6
421.695	1	9
422.036	1	8
422.377	1	7
422.718	1	4
423.060	1	3
423.401	1	11
423.742	1	5
424.084	1	16
424.425	1	4
424.766	1	13
425.107	1	5
425.449	1	12
425.790	1	2
426.131	1	8
426.472	1	-2
426.814	1	12
427.155	1	6
427.496	1	17
427.837	1	-2
428.179	1	-2
428.520	1	-1
428.861	1	5
429.202	1	8
429.544	1	11
429.885	1	1
430.226	1	-1
430.567	1	10
430.909	1	2
431.250	1	-7
431.591	1	2
431.932	1	17
432.273	1	1
432.615	1	6
432.956	1	12
433.297	1	9
433.638	1	7
433.979	1	6
434.320	1	6
434.662	1	-6
435.003	1	8
435.344	1	11
435.685	1	11
436.026	1	10
436.368	1	-2
436.709	1	-2
437.050	1	7
437.391	1	4
437.732	1	9
438.073	1	14
438.414	1	6
438.756	1	-2
439.097	1	6
439.438	1	16
439.779	1	2
440.120	1	0
440.461	1	-9
440.802	1	9
441.143	1	17
441.485	1	5
441.826	1	-8
442.167	1	1
442.508	1	5
442.849	1	10
443.190	1	-1
443.531	1	4
443.872	1	-4
444.213	1	-4
444.554	1	8
444.895	1	1
445.237	1	3
445.578	1	14
445.919	1	4
446.260	1	5
446.601	1	-1
446.942	1	4
447.283	1	3
447.624	1	2
447.965	1	3
448.306	1	-3
448.647	1	8
448.988	1	-8
449.329	1	8
449.670	1	2
450.011	1	5
450.352	1	11
450.693	1	11
451.034	1	12
451.375	1	8
451.716	1	9
452.057	1	12
452.398	1	8
452.739	1	5
453.080	1	13
453.421	1	-1
453.762	1	1
454.103	1	5
454.444	1	6
454.785	1	-4
455.126	1	0
455.467	1	4
455.808	1	-1
456.149	1	3
456.490	1	10
456.831	1	15
457.172	1	0
457.513	1	11
457.854	1	5
458.195	1	-2
458.536	1	11
458.877	1	6
459.218	1	6
459.559	1	3
459.899	1	15
460.240	1	15
460.581	1	6
460.922	1	0
461.263	1	2
461.604	1	-1
461.945	1	10
462.286	1	19
462.627	1	0
462.968	1	-4
463.309	1	11
463.649	1	8
463.990	1	6
464.331	1	6
464.672	1	3
465.013	1	0
465.354	1	6
465.695	1	-1
466.036	1	15
466.376	1	-7
466.717	1	-5
467.058	1	7
467.399	1	3
467.740	1	7
468.081	1	0
468.422	1	-1
468.762	1	-12
469.103	1	-3
469.444	1	-3
469.785	1	10
470.126	1	6
470.467	1	-7
470.807	1	-7
471.148	1	-3
471.489	1	6
471.830	1	17
472.171	1	11
472.511	1	12
472.852	1	-10
473.193	1	-10
473.534	1	1
473.875	1	13
474.215	1	-6
474.556	1	-9
474.897	1	0
475.238	1	2
475.578	1	-3
475.919	1	6
476.260	1	-2
476.601	1	4
476.942	1	6
477.282	1	-4
477.623	1	5
477.964	1	12
478.305	1	1
478.645	1	-4
478.986	1	-6
479.327	1	-2
479.667	1	8
480.008	1	-1
480.349	1	2
480.690	1	9
481.030	1	2
481.371	1	-1
481.712	1	10
482.053	1	13
482.393	1	0
482.734	1	1
483.075	1	6
483.415	1	1
483.756	1	8
484.097	1	-1
484.437	1	-2
484.778	1	2
485.119	1	11
485.459	1	2
485.800	1	3
486.141	1	-2
486.481	1	3
486.822	1	5
487.163	1	-1
487.503	1	-12
487.844	1	2
488.185	1	-4
488.525	1	0
488.866	1	5
489.207	1	14
489.547	1	0
489.888	1	6
490.228	1	0
490.569	1	12
490.910	1	8
491.250	1	2
491.591	1	-1
491.932	1	2
492.272	1	12
492.613	1	11
492.953	1	12
493.294	1	8
493.635	1	2
493.975	1	6
494.316	1	5
494.656	1	14
494.997	1	2
495.337	1	8
495.678	1	8
496.019	1	2
496.359	1	7
496.700	1	7
497.040	1	-5
497.381	1	-14
497.721	1	5
498.062	1	1
498.403	1	6
498.743	1	7
499.084	1	-5
499.424	1	17
499.765	1	-3
500.105	1	12
500.446	1	12
500.786	1	0
501.127	1	12
501.467	1	8
501.808	1	-13
502.148	1	5
502.489	1	8
502.829	1	8
503.170	1	5
503.510	1	7
503.851	1	-1
504.191	1	9
504.532	1	-1
504.872	1	-6
505.213	1	2
505.553	1	7
505.894	1	8
506.234	1	8
506.575	1	1
506.915	1	4
507.256	1	5
507.596	1	12
507.936	1	4
508.277	1	4
508.617	1	19
508.958	1	9
509.298	1	16
509.639	1	8
509.979	1	0
510.319	1	-1
510.660	1	7
511.000	1	14
511.341	1	-4
511.681	1	7
512.022	1	0
512.362	1	9
512.702	1	1
513.043	1	5
513.383	1	7
513.724	1	14
514.064	1	16
514.404	1	10
514.745	1	6
515.085	1	-2
515.425	1	11
515.766	1	11
516.106	1	-3
516.447	1	4
516.787	1	2
517.127	1	2
517.468	1	8
517.808	1	10
518.148	1	6
518.489	1	7
518.829	1	-7
519.169	1	12
519.510	1	8
519.850	1	0
520.190	1	4
520.531	1	6
520.871	1	-2
521.211	1	12
521.552	1	8
521.892	1	-5
522.232	1	-5
522.573	1	-4
522.913	1	12
523.253	1	0
523.593	1	-3
523.934	1	13
524.274	1	-5
524.614	1	0
524.955	1	4
525.295	1	1
525.635	1	16
525.975	1	-3
526.316	1	0
526.656	1	22
526.996	1	4
527.337	1	7
527.677	1	21
528.017	1	4
528.357	1	14
528.698	1	-1
529.038	1	11
529.378	1	8
529.718	1	12
530.058	1	10
530.399	1	15
530.739	1	4
531.079	1	14
531.419	1	16
531.760	1	15
532.100	1	4
532.440	1	6
532.780	1	9
533.120	1	-1
533.461	1	22
533.801	1	10
534.141	1	5
534.481	1	3
534.821	1	6
535.162	1	14
535.502	1	13
535.842	1	4
536.182	1	7
536.522	1	13
536.862	1	9
537.203	1	18
537.543	1	2
537.883	1	12
538.223	1	14
538.563	1	8
538.903	1	10
539.243	1	12
539.584	1	9
539.924	1	5
540.264	1	17
540.604	1	9
540.944	1	2
541.284	1	-6
541.624	1	7
541.964	1	9
542.305	1	6
542.645	1	4
542.985	1	4
543.325	1	-1
543.665	1	11
544.005	1	1
544.345	1	10
544.685	1	5
545.025	1	0
545.365	1	10
545.705	1	14
546.045	1	9
546.386	1	9
546.726	1	3
547.066	1	-5
547.406	1	10
547.746	1	8
548.086	1	8
548.426	1	-2
548.766	1	3
549.106	1	12
549.446	1	6
549.786	1	6
550.126	1	5
550.466	1	-1
550.806	1	19
551.146	1	-2
551.486	1	10
551.826	1	14
552.166	1	5
552.506	1	0
552.846	1	10
553.186	1	7
553.526	1	2
553.866	1	0
554.206	1	8
554.546	1	0
554.886	1	18
555.226	1	-7
555.566	1	8
555.906	1	8
556.246	1	4
556.586	1	14
556.926	1	0
557.266	1	16
557.606	1	-4
557.946	1	13
558.286	1	10
558.626	1	5
558.966	1	6
559.306	1	7
559.646	1	1
559.986	1	0
560.325	1	-3
560.665	1	6
561.005	1	1
561.345	1	3
561.685	1	2
562.025	1	-6
562.365	1	15
562.705	1	7
563.045	1	12
563.385	1	-2
563.725	1	7
564.064	1	16
564.404	1	9
564.744	1	9
565.084	1	5
565.424	1	2
565.764	1	14
566.104	1	8
566.444	1	16
566.783	1	4
567.123	1	16
567.463	1	-1
567.803	1	-5
568.143	1	0
568.483	1	2
568.823	1	18
569.162	1	5
569.502	1	13
569.842	1	1
570.182	1	-1
570.522	1	11
570.862	1	8
571.201	1	3
571.541	1	3
571.881	1	12
572.221	1	9
572.561	1	-3
572.900	1	19
573.240	1	4
573.580	1	8
573.920	1	4
574.260	1	5
574.599	1	-2
574.939	1	-6
575.279	1	-2
575.619	1	1
575.959	1	-10
576.298	1	-3
576.638	1	8
576.978	1	7
577.318	1	4
577.657	1	-12
577.997	1	-5
578.337	1	4
578.677	1	-2
579.016	1	19
579.356	1	5
579.696	1	7
580.036	1	2
580.375	1	-2
580.715	1	10
581.055	1	1
581.394	1	-4
581.734	1	10
582.074	1	1
582.414	1	9
582.753	1	8
583.093	1	-3
583.433	1	-3
583.772	1	5
584.112	1	6
584.452	1	-2
584.791	1	-5
585.131	1	-6
585.471	1	0
585.811	1	-5
586.150	1	2
586.490	1	-4
586.830	1	-1
587.169	1	2
587.509	1	-5
587.849	1	10
588.188	1	3
588.528	1	16
588.867	1	5
589.207	1	-2
589.547	1	-4
589.886	1	-4
590.226	1	-1
590.566	1	-1
590.905	1	2
591.245	1	7
591.585	1	3
591.924	1	7
592.264	1	4
592.603	1	-3
592.943	1	3
593.283	1	9
593.622	1	1
593.962	1	13
594.301	1	12
594.641	1	-1
594.981	1	-6
595.320	1	5
595.660	1	3
595.999	1	5
596.339	1	0
596.678	1	12
597.018	1	-1
597.358	1	11
597.697	1	-3
598.037	1	5
598.376	1	7
598.716	1	-4
599.055	1	10
599.395	1	10
599.734	1	5
600.074	1	-2
600.413	1	5
600.753	1	9
601.092	1	-14
601.432	1	0
601.771	1	10
602.111	1	4
602.451	1	5
602.790	1	6
603.130	1	11
603.469	1	3
603.809	1	15
604.148	1	14
604.487	1	8
604.827	1	-7
605.166	1	-1
605.506	1	12
605.845	1	6
606.185	1	1
606.524	1	-2
606.864	1	-2
607.203	1	13
607.543	1	-8
607.882	1	1
608.222	1	11
608.561	1	13
608.901	1	7
609.240	1	7
609.579	1	7
609.919	1	-3
610.258	1	14
610.598	1	9
610.937	1	6
611.277	1	7
611.616	1	-12
611.955	1	13
612.295	1	9
612.634	1	2
612.974	1	6
613.313	1	4
613.652	1	-6
613.992	1	16
614.331	1	12
614.671	1	0
615.010	1	5
615.349	1	3
615.689	1	8
616.028	1	-8
616.368	1	5
616.707	1	4
617.046	1	8
617.386	1	3
617.725	1	0
618.064	1	9
618.404	1	10
618.743	1	2
619.082	1	-1
619.422	1	-1
619.761	1	8
620.100	1	3
620.440	1	3
620.779	1	-10
621.118	1	1
621.458	1	12
621.797	1	7
622.136	1	9
622.476	1	5
622.815	1	4
623.154	1	6
623.494	1	0
623.833	1	-3
624.172	1	25
624.511	1	-2
624.851	1	-7
625.190	1	0
625.529	1	3
625.869	1	8
626.208	1	-1
626.547	1	7
626.886	1	-1
627.226	1	12
627.565	1	6
627.904	1	15
628.243	1	-7
628.583	1	3
628.922	1	4
629.261	1	10
629.600	1	6
629.940	1	2
630.279	1	-4
630.618	1	10
630.957	1	-3
631.297	1	-2
631.636	1	5
631.975	1	5
632.314	1	14
632.653	1	-10
632.993	1	12
633.332	1	14
633.671	1	1
634.010	1	-7
634.349	1	2
634.689	1	10
635.028	1	12
635.367	1	0
635.706	1	-7
636.045	1	11
636.384	1	5
636.724	1	2
637.063	1	7
637.402	1	8
637.741	1	17
638.080	1	0
638.419	1	4
638.759	1	1
639.098	1	-4
639.437	1	-6
639.776	1	-3
640.115	1	-2
640.454	1	25
640.793	1	13
641.132	1	7
641.472	1	-1
641.811	1	-2
642.150	1	3
642.489	1	-1
642.828	1	4
643.167	1	14
643.506	1	-3
643.845	1	-1
644.184	1	7
644.524	1	-9
644.863	1	4
645.202	1	4
645.541	1	-9
645.880	1	4
646.219	1	3
646.558	1	9
646.897	1	-1
647.236	1	13
647.575	1	7
647.914	1	-10
648.253	1	2
648.592	1	-4
648.931	1	8
649.270	1	12
649.610	1	11
649.949	1	-8
650.288	1	4
650.627	1	2
650.966	1	-5
651.305	1	0
651.644	1	-6
651.983	1	4
652.322	1	8
652.661	1	5
653.000	1	-1
653.339	1	6
653.678	1	-4
654.017	1	-3
654.356	1	8
654.695	1	4
655.034	1	3
655.373	1	1
655.712	1	1
656.051	1	7
656.390	1	6
656.729	1	8
657.068	1	3
657.406	1	2
657.745	1	0
658.084	1	11
658.423	1	-1
658.762	1	-5
659.101	1	-3
659.440	1	18
659.779	1	-3
660.118	1	13
660.457	1	-2
660.796	1	-3
661.135	1	5
661.474	1	3
661.813	1	2
662.152	1	3
662.491	1	6
662.829	1	-4
663.168	1	-10
663.507	1	0
663.846	1	12
664.185	1	2
664.524	1	-7
664.863	1	3
665.202	1	-3
665.541	1	5
665.879	1	0
666.218	1	-3
666.557	1	7
666.896	1	2
667.235	1	5
667.574	1	8
667.913	1	3
668.251	1	5
668.590	1	-7
668.929	1	10
669.268	1	7
669.607	1	4
669.946	1	9
670.285	1	13
670.623	1	6
670.962	1	-3
671.301	1	2
671.640	1	-15
671.979	1	9
672.317	1	4
672.656	1	8
672.995	1	4
673.334	1	2
673.673	1	20
674.011	1	11
674.350	1	5
674.689	1	1
675.028	1	7
675.367	1	2
675.705	1	-2
676.044	1	-9
676.383	1	2
676.722	1	-3
677.060	1	3
677.399	1	3
677.738	1	1
678.077	1	2
678.416	1	-1
678.754	1	7
679.093	1	0
679.432	1	-6
679.771	1	2
680.109	1	4
680.448	1	4
680.787	1	0
681.125	1	4
681.464	1	3
681.803	1	-4
682.142	1	16
682.480	1	-2
682.819	1	8
683.158	1	-7
683.496	1	-5
683.835	1	3
684.174	1	3
684.512	1	0
684.851	1	-5
685.190	1	9
685.529	1	-5
685.867	1	8
686.206	1	8
686.545	1	12
686.883	1	-10
687.222	1	2
687.561	1	6
687.899	1	-5
688.238	1	5
688.577	1	-6
688.746	1	7