File: Analysis/GaN_68K_200ms/GaN_sample E_spot4_UVVIS_68 K_200um_200 ms 2x2mm1_493.txt
340.368	1	4
340.710	1	-6
341.052	1	-6
341.394	1	0
341.737	1	7
342.079	1	-12
342.421	1	0
342.763	1	-4
343.105	1	6
343.447	1	8
343.789	1	-8
344.131	1	-5
344.473	1	-5
344.815	1	2
345.157	1	1
345.499	1	-1
345.841	1	8
346.183	1	1
346.526	1	6
346.868	1	5
347.210	1	4
347.552	1	6
347.894	1	0
348.236	1	2
348.578	1	1
348.920	1	10
349.262	1	-8
349.604	1	10
349.946	1	7
350.288	1	7
350.630	1	-7
350.972	1	1
351.314	1	0
351.656	1	2
351.998	1	3
352.340	1	-5
352.682	1	-6
353.024	1	-4
353.366	1	-1
353.708	1	6
354.050	1	3
354.392	1	9
354.734	1	0
355.076	1	15
355.418	1	-3
355.760	1	0
356.102	1	-4
356.444	1	8
356.785	1	4
357.127	1	1
357.469	1	-6
357.811	1	14
358.153	1	6
358.495	1	8
358.837	1	4
359.179	1	1
359.521	1	-3
359.863	1	-6
360.205	1	-3
360.547	1	8
360.889	1	9
361.231	1	7
361.572	1	-3
361.914	1	6
362.256	1	9
362.598	1	0
362.940	1	-4
363.282	1	7
363.624	1	9
363.966	1	4
364.308	1	-3
364.649	1	-5
364.991	1	4
365.333	1	11
365.675	1	-5
366.017	1	11
366.359	1	4
366.701	1	-2
367.042	1	16
367.384	1	11
367.726	1	7
368.068	1	-4
368.410	1	-8
368.752	1	-1
369.093	1	8
369.435	1	1
369.777	1	-6
370.119	1	5
370.461	1	5
370.803	1	-2
371.144	1	4
371.486	1	9
371.828	1	0
372.170	1	7
372.512	1	4
372.853	1	11
373.195	1	-5
373.537	1	8
373.879	1	11
374.220	1	7
374.562	1	4
374.904	1	-1
375.246	1	2
375.588	1	-4
375.929	1	10
376.271	1	0
376.613	1	12
376.955	1	-3
377.296	1	1
377.638	1	0
377.980	1	2
378.321	1	3
378.663	1	0
379.005	1	7
379.347	1	11
379.688	1	-5
380.030	1	-3
380.372	1	0
380.714	1	11
381.055	1	-1
381.397	1	3
381.739	1	4
382.080	1	-12
382.422	1	15
382.764	1	6
383.105	1	12
383.447	1	8
383.789	1	5
384.130	1	5
384.472	1	-8
384.814	1	8
385.156	1	14
385.497	1	10
385.839	1	6
386.180	1	9
386.522	1	5
386.864	1	1
387.205	1	-7
387.547	1	7
387.889	1	14
388.230	1	4
388.572	1	4
388.914	1	9
389.255	1	1
389.597	1	6
389.939	1	12
390.280	1	16
390.622	1	-7
390.963	1	4
391.305	1	11
391.647	1	10
391.988	1	4
392.330	1	8
392.671	1	9
393.013	1	16
393.355	1	14
393.696	1	4
394.038	1	-4
394.379	1	-2
394.721	1	4
395.062	1	-5
395.404	1	-2
395.746	1	-4
396.087	1	4
396.429	1	4
396.770	1	8
397.112	1	3
397.453	1	-3
397.795	1	4
398.136	1	6
398.478	1	2
398.819	1	7
399.161	1	7
399.503	1	-5
399.844	1	0
400.186	1	17
400.527	1	10
400.869	1	14
401.210	1	-1
401.552	1	15
401.893	1	7
402.235	1	14
402.576	1	17
402.918	1	-1
403.259	1	-1
403.601	1	-6
403.942	1	7
404.284	1	5
404.625	1	10
404.967	1	3
405.308	1	3
405.649	1	5
405.991	1	17
406.332	1	-3
406.674	1	5
407.015	1	3
407.357	1	0
407.698	1	-11
408.040	1	-1
408.381	1	-2
408.722	1	-8
409.064	1	-4
409.405	1	-2
409.747	1	9
410.088	1	8
410.430	1	2
410.771	1	-4
411.112	1	4
411.454	1	13
411.795	1	11
412.137	1	23
412.478	1	9
412.819	1	0
413.161	1	-3
413.502	1	4
413.844	1	1
414.185	1	4
414.526	1	-1
414.868	1	13
415.209	1	-3
415.550	1	-6
415.892	1	-6
416.233	1	7
416.575	1	3
416.916	1	-1
417.257	1	1
417.599	1	4
417.940	1	-2
418.281	1	3
418.623	1	4
418.964	1	5
419.305	1	3
419.647	1	1
419.988	1	-5
420.329	1	12
420.671	1	12
421.012	1	14
421.353	1	19
421.695	1	6
422.036	1	7
422.377	1	4
422.718	1	1
423.060	1	4
423.401	1	6
423.742	1	1
424.084	1	5
424.425	1	3
424.766	1	2
425.107	1	5
425.449	1	7
425.790	1	-1
426.131	1	8
426.472	1	-8
426.814	1	15
427.155	1	0
427.496	1	10
427.837	1	1
428.179	1	-1
428.520	1	-6
428.861	1	1
429.202	1	11
429.544	1	8
429.885	1	0
430.226	1	-1
430.567	1	6
430.909	1	-2
431.250	1	-9
431.591	1	8
431.932	1	4
432.273	1	-5
432.615	1	11
432.956	1	-12
433.297	1	12
433.638	1	-9
433.979	1	0
434.320	1	7
434.662	1	0
435.003	1	6
435.344	1	-4
435.685	1	6
436.026	1	2
436.368	1	3
436.709	1	4
437.050	1	5
437.391	1	7
437.732	1	3
438.073	1	5
438.414	1	-1
438.756	1	9
439.097	1	6
439.438	1	2
439.779	1	-5
440.120	1	-4
440.461	1	-5
440.802	1	2
441.143	1	14
441.485	1	-1
441.826	1	-13
442.167	1	-6
442.508	1	5
442.849	1	3
443.190	1	-3
443.531	1	-4
443.872	1	-2
444.213	1	-9
444.554	1	2
444.895	1	-2
445.237	1	-2
445.578	1	7
445.919	1	3
446.260	1	6
446.601	1	-10
446.942	1	-2
447.283	1	-7
447.624	1	15
447.965	1	-8
448.306	1	5
448.647	1	21
448.988	1	-5
449.329	1	-3
449.670	1	6
450.011	1	1
450.352	1	7
450.693	1	2
451.034	1	7
451.375	1	10
451.716	1	6
452.057	1	13
452.398	1	3
452.739	1	3
453.080	1	11
453.421	1	-2
453.762	1	7
454.103	1	-2
454.444	1	7
454.785	1	-2
455.126	1	0
455.467	1	6
455.808	1	2
456.149	1	-5
456.490	1	-3
456.831	1	17
457.172	1	1
457.513	1	14
457.854	1	0
458.195	1	-5
458.536	1	-3
458.877	1	-5
459.218	1	8
459.559	1	-1
459.899	1	19
460.240	1	2
460.581	1	8
460.922	1	4
461.263	1	4
461.604	1	-7
461.945	1	7
462.286	1	12
462.627	1	0
462.968	1	3
463.309	1	6
463.649	1	4
463.990	1	0
464.331	1	6
464.672	1	-3
465.013	1	-6
465.354	1	6
465.695	1	4
466.036	1	6
466.376	1	-5
466.717	1	-10
467.058	1	2
467.399	1	1
467.740	1	1
468.081	1	8
468.422	1	-2
468.762	1	-5
469.103	1	0
469.444	1	6
469.785	1	0
470.126	1	9
470.467	1	5
470.807	1	-1
471.148	1	-4
471.489	1	-5
471.830	1	12
472.171	1	10
472.511	1	1
472.852	1	-5
473.193	1	-4
473.534	1	8
473.875	1	9
474.215	1	4
474.556	1	-10
474.897	1	7
475.238	1	-1
475.578	1	-1
475.919	1	5
476.260	1	-2
476.601	1	5
476.942	1	-3
477.282	1	-5
477.623	1	11
477.964	1	9
478.305	1	16
478.645	1	-14
478.986	1	1
479.327	1	-6
479.667	1	-4
480.008	1	11
480.349	1	1
480.690	1	-7
481.030	1	-5
481.371	1	5
481.712	1	-3
482.053	1	4
482.393	1	-14
482.734	1	4
483.075	1	12
483.415	1	5
483.756	1	13
484.097	1	-13
484.437	1	-7
484.778	1	2
485.119	1	9
485.459	1	7
485.800	1	-5
486.141	1	-1
486.481	1	6
486.822	1	-3
487.163	1	-2
487.503	1	-10
487.844	1	6
488.185	1	-3
488.525	1	-8
488.866	1	13
489.207	1	5
489.547	1	4
489.888	1	-6
490.228	1	-6
490.569	1	0
490.910	1	-7
491.250	1	-5
491.591	1	5
491.932	1	9
492.272	1	14
492.613	1	3
492.953	1	7
493.294	1	12
493.635	1	-2
493.975	1	7
494.316	1	2
494.656	1	2
494.997	1	9
495.337	1	0
495.678	1	9
496.019	1	-8
496.359	1	4
496.700	1	-3
497.040	1	2
497.381	1	-12
497.721	1	-2
498.062	1	7
498.403	1	3
498.743	1	5
499.084	1	-4
499.424	1	11
499.765	1	5
500.105	1	4
500.446	1	1
500.786	1	11
501.127	1	13
501.467	1	2
501.808	1	-13
502.148	1	10
502.489	1	7
502.829	1	-1
503.170	1	0
503.510	1	-5
503.851	1	-9
504.191	1	4
504.532	1	-14
504.872	1	-7
505.213	1	1
505.553	1	1
505.894	1	3
506.234	1	13
506.575	1	-2
506.915	1	2
507.256	1	2
507.596	1	9
507.936	1	4
508.277	1	-6
508.617	1	8
508.958	1	18
509.298	1	10
509.639	1	15
509.979	1	2
510.319	1	0
510.660	1	6
511.000	1	17
511.341	1	-1
511.681	1	9
512.022	1	-5
512.362	1	-7
512.702	1	-9
513.043	1	-3
513.383	1	-6
513.724	1	2
514.064	1	5
514.404	1	0
514.745	1	-5
515.085	1	-1
515.425	1	0
515.766	1	10
516.106	1	4
516.447	1	6
516.787	1	-6
517.127	1	3
517.468	1	2
517.808	1	7
518.148	1	1
518.489	1	4
518.829	1	-4
519.169	1	9
519.510	1	-6
519.850	1	-3
520.190	1	1
520.531	1	5
520.871	1	-4
521.211	1	4
521.552	1	-1
521.892	1	-11
522.232	1	-9
522.573	1	1
522.913	1	10
523.253	1	-4
523.593	1	-11
523.934	1	3
524.274	1	1
524.614	1	-5
524.955	1	3
525.295	1	-4
525.635	1	9
525.975	1	-6
526.316	1	4
526.656	1	13
526.996	1	14
527.337	1	0
527.677	1	10
528.017	1	-2
528.357	1	2
528.698	1	0
529.038	1	5
529.378	1	-5
529.718	1	0
530.058	1	5
530.399	1	6
530.739	1	0
531.079	1	-2
531.419	1	10
531.760	1	5
532.100	1	6
532.440	1	10
532.780	1	-5
533.120	1	-4
533.461	1	18
533.801	1	13
534.141	1	3
534.481	1	2
534.821	1	2
535.162	1	8
535.502	1	15
535.842	1	4
536.182	1	-3
536.522	1	8
536.862	1	11
537.203	1	10
537.543	1	10
537.883	1	10
538.223	1	8
538.563	1	2
538.903	1	2
539.243	1	-3
539.584	1	7
539.924	1	7
540.264	1	6
540.604	1	5
540.944	1	-1
541.284	1	3
541.624	1	-6
541.964	1	-1
542.305	1	-4
542.645	1	-7
542.985	1	-11
543.325	1	-3
543.665	1	24
544.005	1	-1
544.345	1	-3
544.685	1	3
545.025	1	-9
545.365	1	5
545.705	1	14
546.045	1	4
546.386	1	9
546.726	1	0
547.066	1	-5
547.406	1	11
547.746	1	15
548.086	1	4
548.426	1	-3
548.766	1	4
549.106	1	11
549.446	1	2
549.786	1	5
550.126	1	-4
550.466	1	-10
550.806	1	12
551.146	1	0
551.486	1	-2
551.826	1	4
552.166	1	-2
552.506	1	5
552.846	1	4
553.186	1	8
553.526	1	1
553.866	1	-2
554.206	1	0
554.546	1	-4
554.886	1	-1
555.226	1	-4
555.566	1	-6
555.906	1	0
556.246	1	1
556.586	1	1
556.926	1	-9
557.266	1	11
557.606	1	-17
557.946	1	8
558.286	1	4
558.626	1	5
558.966	1	6
559.306	1	-7
559.646	1	8
559.986	1	-7
560.325	1	-2
560.665	1	8
561.005	1	3
561.345	1	-5
561.685	1	2
562.025	1	0
562.365	1	-3
562.705	1	10
563.045	1	-4
563.385	1	-4
563.725	1	-1
564.064	1	8
564.404	1	-2
564.744	1	-1
565.084	1	-1
565.424	1	-7
565.764	1	9
566.104	1	1
566.444	1	5
566.783	1	3
567.123	1	13
567.463	1	0
567.803	1	0
568.143	1	-6
568.483	1	-8
568.823	1	9
569.162	1	7
569.502	1	2
569.842	1	0
570.182	1	-7
570.522	1	2
570.862	1	6
571.201	1	7
571.541	1	-2
571.881	1	-3
572.221	1	5
572.561	1	-6
572.900	1	17
573.240	1	2
573.580	1	0
573.920	1	-1
574.260	1	3
574.599	1	1
574.939	1	4
575.279	1	11
575.619	1	8
575.959	1	-5
576.298	1	-6
576.638	1	-6
576.978	1	10
577.318	1	4
577.657	1	-6
577.997	1	-3
578.337	1	-4
578.677	1	-5
579.016	1	15
579.356	1	-11
579.696	1	6
580.036	1	-6
580.375	1	6
580.715	1	10
581.055	1	10
581.394	1	-6
581.734	1	8
582.074	1	-5
582.414	1	-3
582.753	1	5
583.093	1	-10
583.433	1	-8
583.772	1	-5
584.112	1	10
584.452	1	1
584.791	1	2
585.131	1	-3
585.471	1	-8
585.811	1	-7
586.150	1	1
586.490	1	-7
586.830	1	-9
587.169	1	-4
587.509	1	7
587.849	1	3
588.188	1	-6
588.528	1	6
588.867	1	4
589.207	1	-6
589.547	1	0
589.886	1	-6
590.226	1	11
590.566	1	-3
590.905	1	8
591.245	1	-4
591.585	1	0
591.924	1	-3
592.264	1	0
592.603	1	2
592.943	1	-3
593.283	1	12
593.622	1	4
593.962	1	1
594.301	1	9
594.641	1	-7
594.981	1	2
595.320	1	4
595.660	1	5
595.999	1	-4
596.339	1	8
596.678	1	5
597.018	1	2
597.358	1	0
597.697	1	1
598.037	1	-2
598.376	1	8
598.716	1	-5
599.055	1	-12
599.395	1	7
599.734	1	1
600.074	1	-5
600.413	1	2
600.753	1	-8
601.092	1	-10
601.432	1	-8
601.771	1	6
602.111	1	-6
602.451	1	2
602.790	1	6
603.130	1	9
603.469	1	7
603.809	1	14
604.148	1	9
604.487	1	6
604.827	1	-11
605.166	1	3
605.506	1	1
605.845	1	8
606.185	1	-7
606.524	1	4
606.864	1	0
607.203	1	0
607.543	1	-5
607.882	1	-1
608.222	1	7
608.561	1	1
608.901	1	12
609.240	1	-4
609.579	1	7
609.919	1	-6
610.258	1	7
610.598	1	8
610.937	1	-2
611.277	1	10
611.616	1	-10
611.955	1	2
612.295	1	-2
612.634	1	1
612.974	1	4
613.313	1	3
613.652	1	-2
613.992	1	3
614.331	1	3
614.671	1	4
615.010	1	1
615.349	1	1
615.689	1	8
616.028	1	12
616.368	1	-1
616.707	1	2
617.046	1	8
617.386	1	0
617.725	1	9
618.064	1	5
618.404	1	11
618.743	1	5
619.082	1	0
619.422	1	-4
619.761	1	0
620.100	1	8
620.440	1	7
620.779	1	-1
621.118	1	3
621.458	1	4
621.797	1	4
622.136	1	10
622.476	1	3
622.815	1	-2
623.154	1	8
623.494	1	1
623.833	1	-2
624.172	1	5
624.511	1	-3
624.851	1	-13
625.190	1	6
625.529	1	9
625.869	1	1
626.208	1	-8
626.547	1	3
626.886	1	-5
627.226	1	6
627.565	1	10
627.904	1	6
628.243	1	1
628.583	1	-2
628.922	1	-2
629.261	1	11
629.600	1	11
629.940	1	-3
630.279	1	-6
630.618	1	0
630.957	1	-1
631.297	1	-10
631.636	1	0
631.975	1	12
632.314	1	14
632.653	1	-3
632.993	1	8
633.332	1	-2
633.671	1	1
634.010	1	9
634.349	1	5
634.689	1	8
635.028	1	0
635.367	1	-4
635.706	1	-2
636.045	1	-2
636.384	1	6
636.724	1	7
637.063	1	7
637.402	1	7
637.741	1	5
638.080	1	3
638.419	1	4
638.759	1	3
639.098	1	2
639.437	1	-8
639.776	1	13
640.115	1	-5
640.454	1	20
640.793	1	-2
641.132	1	17
641.472	1	-4
641.811	1	3
642.150	1	-8
642.489	1	4
642.828	1	-1
643.167	1	13
643.506	1	-9
643.845	1	-2
644.184	1	9
644.524	1	-9
644.863	1	-4
645.202	1	4
645.541	1	-9
645.880	1	6
646.219	1	-1
646.558	1	5
646.897	1	-5
647.236	1	-1
647.575	1	-1
647.914	1	-2
648.253	1	-2
648.592	1	-3
648.931	1	11
649.270	1	8
649.610	1	9
649.949	1	1
650.288	1	-3
650.627	1	0
650.966	1	-3
651.305	1	2
651.644	1	-6
651.983	1	2
652.322	1	5
652.661	1	3
653.000	1	-2
653.339	1	5
653.678	1	7
654.017	1	-5
654.356	1	4
654.695	1	1
655.034	1	2
655.373	1	-1
655.712	1	-6
656.051	1	15
656.390	1	3
656.729	1	-2
657.068	1	-11
657.406	1	9
657.745	1	-5
658.084	1	11
658.423	1	-3
658.762	1	0
659.101	1	-1
659.440	1	5
659.779	1	-7
660.118	1	2
660.457	1	-2
660.796	1	-5
661.135	1	9
661.474	1	6
661.813	1	5
662.152	1	7
662.491	1	8
662.829	1	3
663.168	1	4
663.507	1	-8
663.846	1	5
664.185	1	1
664.524	1	-11
664.863	1	1
665.202	1	0
665.541	1	3
665.879	1	0
666.218	1	-11
666.557	1	8
666.896	1	3
667.235	1	-1
667.574	1	8
667.913	1	-3
668.251	1	4
668.590	1	3
668.929	1	6
669.268	1	-1
669.607	1	-16
669.946	1	14
670.285	1	1
670.623	1	9
670.962	1	-1
671.301	1	0
671.640	1	-7
671.979	1	9
672.317	1	0
672.656	1	4
672.995	1	1
673.334	1	0
673.673	1	13
674.011	1	6
674.350	1	-1
674.689	1	5
675.028	1	-6
675.367	1	3
675.705	1	-12
676.044	1	4
676.383	1	-1
676.722	1	3
677.060	1	6
677.399	1	0
677.738	1	-3
678.077	1	5
678.416	1	-8
678.754	1	0
679.093	1	-5
679.432	1	-3
679.771	1	2
680.109	1	0
680.448	1	-2
680.787	1	-4
681.125	1	0
681.464	1	-1
681.803	1	-7
682.142	1	12
682.480	1	7
682.819	1	1
683.158	1	5
683.496	1	3
683.835	1	-2
684.174	1	-4
684.512	1	0
684.851	1	-10
685.190	1	6
685.529	1	-2
685.867	1	3
686.206	1	1
686.545	1	0
686.883	1	0
687.222	1	-7
687.561	1	2
687.899	1	11
688.238	1	8
688.577	1	-8
688.746	1	4