File: Analysis/GaN_68K_200ms/GaN_sample E_spot4_UVVIS_68 K_200um_200 ms 2x2mm1_73.txt
340.368	1	0
340.710	1	-5
341.052	1	0
341.394	1	0
341.737	1	3
342.079	1	-6
342.421	1	-1
342.763	1	1
343.105	1	8
343.447	1	1
343.789	1	3
344.131	1	-7
344.473	1	1
344.815	1	-3
345.157	1	2
345.499	1	10
345.841	1	5
346.183	1	1
346.526	1	9
346.868	1	8
347.210	1	12
347.552	1	-3
347.894	1	3
348.236	1	6
348.578	1	4
348.920	1	15
349.262	1	-5
349.604	1	6
349.946	1	7
350.288	1	8
350.630	1	-7
350.972	1	-3
351.314	1	1
351.656	1	-2
351.998	1	-2
352.340	1	3
352.682	1	0
353.024	1	-5
353.366	1	7
353.708	1	-5
354.050	1	-1
354.392	1	14
354.734	1	5
355.076	1	9
355.418	1	1
355.760	1	2
356.102	1	5
356.444	1	6
356.785	1	11
357.127	1	-11
357.469	1	-8
357.811	1	16
358.153	1	5
358.495	1	5
358.837	1	3
359.179	1	7
359.521	1	-2
359.863	1	1
360.205	1	0
360.547	1	0
360.889	1	3
361.231	1	9
361.572	1	-5
361.914	1	-3
362.256	1	9
362.598	1	5
362.940	1	9
363.282	1	6
363.624	1	-1
363.966	1	2
364.308	1	-3
364.649	1	-3
364.991	1	5
365.333	1	5
365.675	1	0
366.017	1	-6
366.359	1	-9
366.701	1	-5
367.042	1	6
367.384	1	3
367.726	1	11
368.068	1	-8
368.410	1	2
368.752	1	-3
369.093	1	-9
369.435	1	6
369.777	1	-3
370.119	1	4
370.461	1	5
370.803	1	-4
371.144	1	6
371.486	1	11
371.828	1	2
372.170	1	7
372.512	1	-11
372.853	1	-4
373.195	1	-8
373.537	1	7
373.879	1	10
374.220	1	4
374.562	1	-7
374.904	1	7
375.246	1	-3
375.588	1	4
375.929	1	3
376.271	1	-3
376.613	1	-1
376.955	1	-2
377.296	1	6
377.638	1	2
377.980	1	2
378.321	1	4
378.663	1	1
379.005	1	16
379.347	1	1
379.688	1	-5
380.030	1	-1
380.372	1	11
380.714	1	1
381.055	1	6
381.397	1	4
381.739	1	10
382.080	1	-8
382.422	1	3
382.764	1	7
383.105	1	-3
383.447	1	-2
383.789	1	3
384.130	1	-7
384.472	1	-7
384.814	1	-1
385.156	1	6
385.497	1	1
385.839	1	-2
386.180	1	-4
386.522	1	2
386.864	1	-3
387.205	1	1
387.547	1	-7
387.889	1	12
388.230	1	2
388.572	1	2
388.914	1	8
389.255	1	5
389.597	1	-14
389.939	1	15
390.280	1	15
390.622	1	3
390.963	1	2
391.305	1	1
391.647	1	8
391.988	1	0
392.330	1	1
392.671	1	3
393.013	1	10
393.355	1	7
393.696	1	0
394.038	1	-5
394.379	1	-7
394.721	1	8
395.062	1	-1
395.404	1	-4
395.746	1	-6
396.087	1	1
396.429	1	4
396.770	1	4
397.112	1	6
397.453	1	-7
397.795	1	2
398.136	1	8
398.478	1	-8
398.819	1	6
399.161	1	6
399.503	1	-1
399.844	1	-2
400.186	1	3
400.527	1	4
400.869	1	6
401.210	1	-2
401.552	1	16
401.893	1	3
402.235	1	11
402.576	1	4
402.918	1	-6
403.259	1	1
403.601	1	-1
403.942	1	4
404.284	1	2
404.625	1	4
404.967	1	2
405.308	1	8
405.649	1	4
405.991	1	5
406.332	1	-4
406.674	1	4
407.015	1	-3
407.357	1	8
407.698	1	-2
408.040	1	-10
408.381	1	-5
408.722	1	-4
409.064	1	6
409.405	1	5
409.747	1	0
410.088	1	4
410.430	1	5
410.771	1	6
411.112	1	3
411.454	1	4
411.795	1	6
412.137	1	5
412.478	1	1
412.819	1	-3
413.161	1	1
413.502	1	1
413.844	1	-6
414.185	1	3
414.526	1	4
414.868	1	12
415.209	1	0
415.550	1	1
415.892	1	0
416.233	1	6
416.575	1	6
416.916	1	-1
417.257	1	11
417.599	1	8
417.940	1	3
418.281	1	0
418.623	1	-3
418.964	1	4
419.305	1	-3
419.647	1	3
419.988	1	4
420.329	1	5
420.671	1	3
421.012	1	6
421.353	1	12
421.695	1	7
422.036	1	-4
422.377	1	6
422.718	1	6
423.060	1	0
423.401	1	9
423.742	1	-4
424.084	1	7
424.425	1	-2
424.766	1	12
425.107	1	3
425.449	1	1
425.790	1	-3
426.131	1	0
426.472	1	-1
426.814	1	8
427.155	1	10
427.496	1	5
427.837	1	-2
428.179	1	-2
428.520	1	-11
428.861	1	2
429.202	1	0
429.544	1	3
429.885	1	0
430.226	1	0
430.567	1	6
430.909	1	-13
431.250	1	-2
431.591	1	13
431.932	1	5
432.273	1	0
432.615	1	7
432.956	1	8
433.297	1	8
433.638	1	2
433.979	1	-5
434.320	1	-1
434.662	1	-10
435.003	1	9
435.344	1	-4
435.685	1	5
436.026	1	2
436.368	1	4
436.709	1	-9
437.050	1	10
437.391	1	9
437.732	1	2
438.073	1	9
438.414	1	-3
438.756	1	8
439.097	1	1
439.438	1	5
439.779	1	1
440.120	1	-6
440.461	1	-4
440.802	1	13
441.143	1	8
441.485	1	-2
441.826	1	-1
442.167	1	1
442.508	1	8
442.849	1	6
443.190	1	1
443.531	1	5
443.872	1	6
444.213	1	1
444.554	1	2
444.895	1	0
445.237	1	-4
445.578	1	15
445.919	1	-6
446.260	1	-6
446.601	1	5
446.942	1	4
447.283	1	-12
447.624	1	4
447.965	1	-10
448.306	1	3
448.647	1	8
448.988	1	-14
449.329	1	2
449.670	1	-2
450.011	1	1
450.352	1	3
450.693	1	7
451.034	1	5
451.375	1	1
451.716	1	5
452.057	1	6
452.398	1	2
452.739	1	4
453.080	1	12
453.421	1	1
453.762	1	13
454.103	1	10
454.444	1	12
454.785	1	0
455.126	1	4
455.467	1	12
455.808	1	8
456.149	1	-5
456.490	1	4
456.831	1	2
457.172	1	8
457.513	1	13
457.854	1	0
458.195	1	-3
458.536	1	5
458.877	1	0
459.218	1	8
459.559	1	8
459.899	1	9
460.240	1	-4
460.581	1	4
460.922	1	0
461.263	1	13
461.604	1	2
461.945	1	7
462.286	1	4
462.627	1	7
462.968	1	-3
463.309	1	-3
463.649	1	2
463.990	1	7
464.331	1	3
464.672	1	4
465.013	1	3
465.354	1	2
465.695	1	7
466.036	1	7
466.376	1	0
466.717	1	-4
467.058	1	7
467.399	1	-7
467.740	1	8
468.081	1	11
468.422	1	4
468.762	1	-6
469.103	1	4
469.444	1	-5
469.785	1	7
470.126	1	1
470.467	1	-2
470.807	1	4
471.148	1	-4
471.489	1	3
471.830	1	11
472.171	1	4
472.511	1	4
472.852	1	-5
473.193	1	-1
473.534	1	10
473.875	1	7
474.215	1	0
474.556	1	-3
474.897	1	3
475.238	1	5
475.578	1	10
475.919	1	12
476.260	1	0
476.601	1	1
476.942	1	3
477.282	1	-13
477.623	1	12
477.964	1	-2
478.305	1	-3
478.645	1	6
478.986	1	2
479.327	1	2
479.667	1	2
480.008	1	12
480.349	1	1
480.690	1	-2
481.030	1	-1
481.371	1	9
481.712	1	7
482.053	1	9
482.393	1	-10
482.734	1	8
483.075	1	6
483.415	1	13
483.756	1	10
484.097	1	-2
484.437	1	-12
484.778	1	-1
485.119	1	6
485.459	1	8
485.800	1	-5
486.141	1	-5
486.481	1	3
486.822	1	5
487.163	1	-9
487.503	1	-5
487.844	1	1
488.185	1	-7
488.525	1	-2
488.866	1	14
489.207	1	6
489.547	1	1
489.888	1	3
490.228	1	-5
490.569	1	9
490.910	1	5
491.250	1	-3
491.591	1	-6
491.932	1	8
492.272	1	6
492.613	1	0
492.953	1	8
493.294	1	3
493.635	1	-1
493.975	1	-2
494.316	1	11
494.656	1	10
494.997	1	2
495.337	1	0
495.678	1	7
496.019	1	4
496.359	1	-1
496.700	1	7
497.040	1	-1
497.381	1	-14
497.721	1	3
498.062	1	7
498.403	1	1
498.743	1	5
499.084	1	-6
499.424	1	17
499.765	1	5
500.105	1	7
500.446	1	10
500.786	1	11
501.127	1	7
501.467	1	4
501.808	1	-3
502.148	1	1
502.489	1	8
502.829	1	0
503.170	1	10
503.510	1	1
503.851	1	-10
504.191	1	5
504.532	1	-6
504.872	1	-7
505.213	1	-4
505.553	1	7
505.894	1	9
506.234	1	8
506.575	1	-9
506.915	1	0
507.256	1	-16
507.596	1	3
507.936	1	11
508.277	1	-3
508.617	1	16
508.958	1	6
509.298	1	3
509.639	1	10
509.979	1	-1
510.319	1	0
510.660	1	7
511.000	1	8
511.341	1	-5
511.681	1	9
512.022	1	-6
512.362	1	8
512.702	1	-14
513.043	1	4
513.383	1	-8
513.724	1	-3
514.064	1	4
514.404	1	-2
514.745	1	1
515.085	1	3
515.425	1	-3
515.766	1	-4
516.106	1	-1
516.447	1	7
516.787	1	-4
517.127	1	8
517.468	1	4
517.808	1	5
518.148	1	-1
518.489	1	1
518.829	1	-13
519.169	1	4
519.510	1	-3
519.850	1	-5
520.190	1	4
520.531	1	2
520.871	1	0
521.211	1	2
521.552	1	1
521.892	1	-8
522.232	1	-6
522.573	1	0
522.913	1	8
523.253	1	5
523.593	1	-3
523.934	1	4
524.274	1	0
524.614	1	3
524.955	1	0
525.295	1	1
525.635	1	4
525.975	1	-6
526.316	1	-4
526.656	1	21
526.996	1	7
527.337	1	0
527.677	1	12
528.017	1	-11
528.357	1	15
528.698	1	-9
529.038	1	8
529.378	1	0
529.718	1	1
530.058	1	0
530.399	1	4
530.739	1	1
531.079	1	3
531.419	1	9
531.760	1	8
532.100	1	-2
532.440	1	1
532.780	1	-5
533.120	1	-14
533.461	1	6
533.801	1	8
534.141	1	-1
534.481	1	-3
534.821	1	9
535.162	1	2
535.502	1	-5
535.842	1	7
536.182	1	5
536.522	1	-2
536.862	1	4
537.203	1	2
537.543	1	6
537.883	1	6
538.223	1	6
538.563	1	0
538.903	1	-3
539.243	1	5
539.584	1	0
539.924	1	-1
540.264	1	1
540.604	1	5
540.944	1	3
541.284	1	3
541.624	1	-1
541.964	1	8
542.305	1	-7
542.645	1	1
542.985	1	3
543.325	1	-7
543.665	1	5
544.005	1	9
544.345	1	-4
544.685	1	7
545.025	1	-1
545.365	1	6
545.705	1	7
546.045	1	5
546.386	1	-1
546.726	1	-3
547.066	1	-8
547.406	1	14
547.746	1	8
548.086	1	4
548.426	1	-1
548.766	1	3
549.106	1	8
549.446	1	4
549.786	1	-2
550.126	1	-2
550.466	1	-5
550.806	1	10
551.146	1	2
551.486	1	9
551.826	1	3
552.166	1	-2
552.506	1	-11
552.846	1	6
553.186	1	5
553.526	1	-10
553.866	1	3
554.206	1	-6
554.546	1	-6
554.886	1	-3
555.226	1	-1
555.566	1	3
555.906	1	-4
556.246	1	-1
556.586	1	5
556.926	1	-1
557.266	1	11
557.606	1	-8
557.946	1	4
558.286	1	0
558.626	1	4
558.966	1	-3
559.306	1	-3
559.646	1	-4
559.986	1	4
560.325	1	-4
560.665	1	2
561.005	1	1
561.345	1	0
561.685	1	6
562.025	1	-9
562.365	1	7
562.705	1	3
563.045	1	7
563.385	1	-7
563.725	1	5
564.064	1	2
564.404	1	-3
564.744	1	7
565.084	1	-2
565.424	1	-4
565.764	1	17
566.104	1	1
566.444	1	8
566.783	1	6
567.123	1	14
567.463	1	-6
567.803	1	0
568.143	1	0
568.483	1	-10
568.823	1	13
569.162	1	0
569.502	1	8
569.842	1	-2
570.182	1	-3
570.522	1	3
570.862	1	4
571.201	1	12
571.541	1	7
571.881	1	12
572.221	1	13
572.561	1	-11
572.900	1	11
573.240	1	-3
573.580	1	6
573.920	1	-4
574.260	1	-3
574.599	1	-12
574.939	1	10
575.279	1	-1
575.619	1	7
575.959	1	4
576.298	1	-11
576.638	1	6
576.978	1	10
577.318	1	7
577.657	1	-18
577.997	1	-14
578.337	1	-8
578.677	1	10
579.016	1	12
579.356	1	-8
579.696	1	1
580.036	1	4
580.375	1	1
580.715	1	2
581.055	1	4
581.394	1	-4
581.734	1	3
582.074	1	-5
582.414	1	4
582.753	1	3
583.093	1	-5
583.433	1	2
583.772	1	-4
584.112	1	-1
584.452	1	-2
584.791	1	4
585.131	1	-16
585.471	1	3
585.811	1	-3
586.150	1	1
586.490	1	1
586.830	1	-6
587.169	1	4
587.509	1	5
587.849	1	3
588.188	1	-9
588.528	1	-1
588.867	1	2
589.207	1	-9
589.547	1	1
589.886	1	-3
590.226	1	-5
590.566	1	0
590.905	1	10
591.245	1	2
591.585	1	-3
591.924	1	-1
592.264	1	3
592.603	1	-9
592.943	1	5
593.283	1	6
593.622	1	5
593.962	1	14
594.301	1	17
594.641	1	-9
594.981	1	-5
595.320	1	9
595.660	1	4
595.999	1	-3
596.339	1	6
596.678	1	3
597.018	1	5
597.358	1	7
597.697	1	-5
598.037	1	5
598.376	1	11
598.716	1	-7
599.055	1	11
599.395	1	7
599.734	1	-2
600.074	1	0
600.413	1	-5
600.753	1	4
601.092	1	-12
601.432	1	0
601.771	1	6
602.111	1	-1
602.451	1	3
602.790	1	3
603.130	1	6
603.469	1	-6
603.809	1	9
604.148	1	-1
604.487	1	5
604.827	1	-13
605.166	1	6
605.506	1	7
605.845	1	0
606.185	1	1
606.524	1	-6
606.864	1	-10
607.203	1	11
607.543	1	-7
607.882	1	-9
608.222	1	6
608.561	1	9
608.901	1	5
609.240	1	-1
609.579	1	7
609.919	1	-5
610.258	1	10
610.598	1	8
610.937	1	-3
611.277	1	3
611.616	1	2
611.955	1	1
612.295	1	-2
612.634	1	2
612.974	1	6
613.313	1	0
613.652	1	-6
613.992	1	7
614.331	1	4
614.671	1	1
615.010	1	2
615.349	1	5
615.689	1	4
616.028	1	-2
616.368	1	-4
616.707	1	-5
617.046	1	-4
617.386	1	1
617.725	1	7
618.064	1	1
618.404	1	13
618.743	1	4
619.082	1	1
619.422	1	7
619.761	1	8
620.100	1	4
620.440	1	-6
620.779	1	-3
621.118	1	8
621.458	1	5
621.797	1	6
622.136	1	7
622.476	1	-1
622.815	1	7
623.154	1	6
623.494	1	5
623.833	1	-2
624.172	1	3
624.511	1	-4
624.851	1	-11
625.190	1	2
625.529	1	14
625.869	1	10
626.208	1	-5
626.547	1	3
626.886	1	-8
627.226	1	4
627.565	1	12
627.904	1	5
628.243	1	-4
628.583	1	4
628.922	1	5
629.261	1	1
629.600	1	4
629.940	1	10
630.279	1	-6
630.618	1	8
630.957	1	-2
631.297	1	0
631.636	1	5
631.975	1	3
632.314	1	13
632.653	1	-10
632.993	1	4
633.332	1	4
633.671	1	9
634.010	1	5
634.349	1	0
634.689	1	11
635.028	1	5
635.367	1	7
635.706	1	-7
636.045	1	-3
636.384	1	2
636.724	1	9
637.063	1	4
637.402	1	6
637.741	1	11
638.080	1	11
638.419	1	3
638.759	1	6
639.098	1	-2
639.437	1	-13
639.776	1	-2
640.115	1	-9
640.454	1	10
640.793	1	6
641.132	1	12
641.472	1	2
641.811	1	2
642.150	1	3
642.489	1	-6
642.828	1	2
643.167	1	13
643.506	1	-9
643.845	1	0
644.184	1	5
644.524	1	-2
644.863	1	-10
645.202	1	5
645.541	1	-17
645.880	1	3
646.219	1	4
646.558	1	3
646.897	1	-3
647.236	1	2
647.575	1	-2
647.914	1	1
648.253	1	7
648.592	1	5
648.931	1	11
649.270	1	9
649.610	1	14
649.949	1	-2
650.288	1	-3
650.627	1	-1
650.966	1	1
651.305	1	-2
651.644	1	-8
651.983	1	7
652.322	1	13
652.661	1	0
653.000	1	-2
653.339	1	12
653.678	1	7
654.017	1	1
654.356	1	6
654.695	1	-3
655.034	1	2
655.373	1	2
655.712	1	2
656.051	1	12
656.390	1	6
656.729	1	12
657.068	1	-4
657.406	1	-1
657.745	1	-5
658.084	1	19
658.423	1	-12
658.762	1	-5
659.101	1	-3
659.440	1	4
659.779	1	-2
660.118	1	1
660.457	1	-6
660.796	1	-1
661.135	1	13
661.474	1	-5
661.813	1	6
662.152	1	-2
662.491	1	0
662.829	1	1
663.168	1	-10
663.507	1	-3
663.846	1	11
664.185	1	9
664.524	1	-8
664.863	1	-2
665.202	1	-5
665.541	1	-1
665.879	1	-10
666.218	1	-8
666.557	1	2
666.896	1	1
667.235	1	2
667.574	1	10
667.913	1	0
668.251	1	4
668.590	1	0
668.929	1	5
669.268	1	1
669.607	1	-11
669.946	1	11
670.285	1	-3
670.623	1	0
670.962	1	3
671.301	1	1
671.640	1	-16
671.979	1	13
672.317	1	-1
672.656	1	2
672.995	1	11
673.334	1	3
673.673	1	15
674.011	1	2
674.350	1	-7
674.689	1	4
675.028	1	1
675.367	1	4
675.705	1	-8
676.044	1	-6
676.383	1	-3
676.722	1	0
677.060	1	3
677.399	1	3
677.738	1	-8
678.077	1	-2
678.416	1	5
678.754	1	-3
679.093	1	4
679.432	1	7
679.771	1	-3
680.109	1	6
680.448	1	1
680.787	1	1
681.125	1	14
681.464	1	5
681.803	1	-14
682.142	1	11
682.480	1	6
682.819	1	9
683.158	1	-1
683.496	1	-2
683.835	1	14
684.174	1	10
684.512	1	1
684.851	1	1
685.190	1	-2
685.529	1	2
685.867	1	1
686.206	1	1
686.545	1	1
686.883	1	-7
687.222	1	-10
687.561	1	7
687.899	1	1
688.238	1	-5
688.577	1	1
688.746	1	9