File: Analysis/GaN_68K_200ms/GaN_sample E_spot4_UVVIS_68 K_200um_200 ms 2x2mm1_238.txt
340.368	1	4
340.710	1	-3
341.052	1	2
341.394	1	1
341.737	1	13
342.079	1	-1
342.421	1	8
342.763	1	-3
343.105	1	13
343.447	1	-4
343.789	1	2
344.131	1	2
344.473	1	4
344.815	1	11
345.157	1	14
345.499	1	5
345.841	1	6
346.183	1	-7
346.526	1	11
346.868	1	5
347.210	1	8
347.552	1	5
347.894	1	2
348.236	1	4
348.578	1	2
348.920	1	12
349.262	1	3
349.604	1	7
349.946	1	13
350.288	1	2
350.630	1	0
350.972	1	3
351.314	1	4
351.656	1	3
351.998	1	3
352.340	1	0
352.682	1	-1
353.024	1	4
353.366	1	11
353.708	1	10
354.050	1	12
354.392	1	11
354.734	1	0
355.076	1	2
355.418	1	-5
355.760	1	9
356.102	1	3
356.444	1	8
356.785	1	15
357.127	1	7
357.469	1	-1
357.811	1	14
358.153	1	9
358.495	1	9
358.837	1	8
359.179	1	5
359.521	1	7
359.863	1	1
360.205	1	7
360.547	1	14
360.889	1	12
361.231	1	3
361.572	1	11
361.914	1	11
362.256	1	18
362.598	1	4
362.940	1	8
363.282	1	11
363.624	1	10
363.966	1	9
364.308	1	4
364.649	1	10
364.991	1	12
365.333	1	15
365.675	1	7
366.017	1	21
366.359	1	12
366.701	1	10
367.042	1	20
367.384	1	19
367.726	1	23
368.068	1	16
368.410	1	14
368.752	1	6
369.093	1	10
369.435	1	13
369.777	1	7
370.119	1	12
370.461	1	17
370.803	1	8
371.144	1	5
371.486	1	15
371.828	1	19
372.170	1	26
372.512	1	4
372.853	1	13
373.195	1	-1
373.537	1	8
373.879	1	18
374.220	1	4
374.562	1	8
374.904	1	14
375.246	1	19
375.588	1	10
375.929	1	9
376.271	1	7
376.613	1	11
376.955	1	3
377.296	1	17
377.638	1	2
377.980	1	6
378.321	1	6
378.663	1	-6
379.005	1	12
379.347	1	9
379.688	1	7
380.030	1	2
380.372	1	7
380.714	1	8
381.055	1	2
381.397	1	5
381.739	1	16
382.080	1	-4
382.422	1	16
382.764	1	1
383.105	1	12
383.447	1	18
383.789	1	12
384.130	1	5
384.472	1	8
384.814	1	21
385.156	1	21
385.497	1	20
385.839	1	14
386.180	1	13
386.522	1	28
386.864	1	20
387.205	1	18
387.547	1	13
387.889	1	30
388.230	1	21
388.572	1	12
388.914	1	23
389.255	1	29
389.597	1	15
389.939	1	26
390.280	1	23
390.622	1	10
390.963	1	21
391.305	1	24
391.647	1	12
391.988	1	14
392.330	1	8
392.671	1	21
393.013	1	22
393.355	1	20
393.696	1	12
394.038	1	14
394.379	1	14
394.721	1	10
395.062	1	10
395.404	1	17
395.746	1	10
396.087	1	1
396.429	1	23
396.770	1	20
397.112	1	17
397.453	1	9
397.795	1	7
398.136	1	17
398.478	1	10
398.819	1	17
399.161	1	25
399.503	1	16
399.844	1	23
400.186	1	24
400.527	1	17
400.869	1	11
401.210	1	8
401.552	1	31
401.893	1	11
402.235	1	30
402.576	1	21
402.918	1	8
403.259	1	8
403.601	1	-1
403.942	1	17
404.284	1	13
404.625	1	18
404.967	1	11
405.308	1	14
405.649	1	-1
405.991	1	21
406.332	1	12
406.674	1	15
407.015	1	5
407.357	1	12
407.698	1	-2
408.040	1	6
408.381	1	14
408.722	1	11
409.064	1	7
409.405	1	11
409.747	1	3
410.088	1	17
410.430	1	17
410.771	1	16
411.112	1	12
411.454	1	21
411.795	1	4
412.137	1	11
412.478	1	17
412.819	1	6
413.161	1	8
413.502	1	9
413.844	1	5
414.185	1	9
414.526	1	17
414.868	1	22
415.209	1	3
415.550	1	-7
415.892	1	3
416.233	1	10
416.575	1	8
416.916	1	7
417.257	1	15
417.599	1	10
417.940	1	8
418.281	1	12
418.623	1	11
418.964	1	9
419.305	1	3
419.647	1	15
419.988	1	14
420.329	1	16
420.671	1	9
421.012	1	9
421.353	1	9
421.695	1	12
422.036	1	0
422.377	1	13
422.718	1	2
423.060	1	10
423.401	1	4
423.742	1	3
424.084	1	12
424.425	1	9
424.766	1	10
425.107	1	2
425.449	1	10
425.790	1	1
426.131	1	13
426.472	1	1
426.814	1	6
427.155	1	6
427.496	1	17
427.837	1	5
428.179	1	5
428.520	1	3
428.861	1	5
429.202	1	10
429.544	1	8
429.885	1	5
430.226	1	11
430.567	1	21
430.909	1	0
431.250	1	-2
431.591	1	9
431.932	1	17
432.273	1	1
432.615	1	13
432.956	1	4
433.297	1	16
433.638	1	-1
433.979	1	20
434.320	1	7
434.662	1	9
435.003	1	2
435.344	1	11
435.685	1	13
436.026	1	14
436.368	1	4
436.709	1	2
437.050	1	11
437.391	1	11
437.732	1	15
438.073	1	9
438.414	1	-1
438.756	1	6
439.097	1	12
439.438	1	12
439.779	1	0
440.120	1	3
440.461	1	-11
440.802	1	6
441.143	1	8
441.485	1	2
441.826	1	0
442.167	1	8
442.508	1	6
442.849	1	12
443.190	1	-3
443.531	1	9
443.872	1	8
444.213	1	2
444.554	1	-2
444.895	1	8
445.237	1	-1
445.578	1	16
445.919	1	11
446.260	1	17
446.601	1	-1
446.942	1	9
447.283	1	11
447.624	1	16
447.965	1	-3
448.306	1	1
448.647	1	15
448.988	1	0
449.329	1	4
449.670	1	5
450.011	1	5
450.352	1	7
450.693	1	6
451.034	1	14
451.375	1	12
451.716	1	8
452.057	1	20
452.398	1	8
452.739	1	11
453.080	1	14
453.421	1	5
453.762	1	18
454.103	1	14
454.444	1	12
454.785	1	-8
455.126	1	-5
455.467	1	4
455.808	1	1
456.149	1	-1
456.490	1	1
456.831	1	12
457.172	1	12
457.513	1	18
457.854	1	2
458.195	1	5
458.536	1	12
458.877	1	10
459.218	1	4
459.559	1	7
459.899	1	23
460.240	1	8
460.581	1	7
460.922	1	8
461.263	1	4
461.604	1	9
461.945	1	6
462.286	1	10
462.627	1	0
462.968	1	2
463.309	1	-7
463.649	1	15
463.990	1	0
464.331	1	10
464.672	1	1
465.013	1	-4
465.354	1	3
465.695	1	8
466.036	1	3
466.376	1	1
466.717	1	12
467.058	1	11
467.399	1	8
467.740	1	1
468.081	1	6
468.422	1	13
468.762	1	-6
469.103	1	-5
469.444	1	3
469.785	1	13
470.126	1	14
470.467	1	-5
470.807	1	0
471.148	1	6
471.489	1	11
471.830	1	9
472.171	1	3
472.511	1	11
472.852	1	-5
473.193	1	5
473.534	1	4
473.875	1	0
474.215	1	-1
474.556	1	-3
474.897	1	13
475.238	1	3
475.578	1	9
475.919	1	3
476.260	1	15
476.601	1	7
476.942	1	8
477.282	1	-12
477.623	1	6
477.964	1	10
478.305	1	9
478.645	1	1
478.986	1	-4
479.327	1	2
479.667	1	-2
480.008	1	7
480.349	1	-2
480.690	1	10
481.030	1	10
481.371	1	10
481.712	1	17
482.053	1	8
482.393	1	-13
482.734	1	-1
483.075	1	13
483.415	1	2
483.756	1	13
484.097	1	-1
484.437	1	-7
484.778	1	7
485.119	1	13
485.459	1	11
485.800	1	-1
486.141	1	-10
486.481	1	5
486.822	1	2
487.163	1	-10
487.503	1	-11
487.844	1	4
488.185	1	-3
488.525	1	8
488.866	1	6
489.207	1	8
489.547	1	-4
489.888	1	7
490.228	1	-2
490.569	1	7
490.910	1	3
491.250	1	8
491.591	1	2
491.932	1	9
492.272	1	17
492.613	1	12
492.953	1	9
493.294	1	15
493.635	1	-3
493.975	1	6
494.316	1	16
494.656	1	-4
494.997	1	-1
495.337	1	11
495.678	1	17
496.019	1	0
496.359	1	16
496.700	1	9
497.040	1	10
497.381	1	-15
497.721	1	6
498.062	1	6
498.403	1	10
498.743	1	19
499.084	1	0
499.424	1	20
499.765	1	10
500.105	1	8
500.446	1	9
500.786	1	12
501.127	1	21
501.467	1	9
501.808	1	-9
502.148	1	8
502.489	1	13
502.829	1	5
503.170	1	10
503.510	1	13
503.851	1	-3
504.191	1	5
504.532	1	2
504.872	1	-1
505.213	1	6
505.553	1	6
505.894	1	4
506.234	1	12
506.575	1	-3
506.915	1	4
507.256	1	2
507.596	1	14
507.936	1	9
508.277	1	4
508.617	1	17
508.958	1	13
509.298	1	19
509.639	1	15
509.979	1	13
510.319	1	3
510.660	1	14
511.000	1	10
511.341	1	3
511.681	1	13
512.022	1	7
512.362	1	11
512.702	1	-3
513.043	1	7
513.383	1	7
513.724	1	18
514.064	1	6
514.404	1	20
514.745	1	4
515.085	1	11
515.425	1	5
515.766	1	11
516.106	1	8
516.447	1	10
516.787	1	1
517.127	1	12
517.468	1	6
517.808	1	8
518.148	1	5
518.489	1	12
518.829	1	7
519.169	1	16
519.510	1	3
519.850	1	8
520.190	1	13
520.531	1	11
520.871	1	8
521.211	1	16
521.552	1	19
521.892	1	10
522.232	1	2
522.573	1	12
522.913	1	19
523.253	1	7
523.593	1	-2
523.934	1	19
524.274	1	6
524.614	1	12
524.955	1	6
525.295	1	-4
525.635	1	18
525.975	1	3
526.316	1	5
526.656	1	23
526.996	1	24
527.337	1	7
527.677	1	23
528.017	1	-1
528.357	1	13
528.698	1	-1
529.038	1	3
529.378	1	15
529.718	1	18
530.058	1	11
530.399	1	19
530.739	1	13
531.079	1	23
531.419	1	18
531.760	1	12
532.100	1	18
532.440	1	13
532.780	1	16
533.120	1	2
533.461	1	23
533.801	1	11
534.141	1	13
534.481	1	18
534.821	1	14
535.162	1	14
535.502	1	13
535.842	1	11
536.182	1	14
536.522	1	14
536.862	1	8
537.203	1	16
537.543	1	12
537.883	1	20
538.223	1	11
538.563	1	4
538.903	1	6
539.243	1	10
539.584	1	14
539.924	1	18
540.264	1	15
540.604	1	9
540.944	1	3
541.284	1	8
541.624	1	10
541.964	1	19
542.305	1	-2
542.645	1	7
542.985	1	10
543.325	1	11
543.665	1	15
544.005	1	7
544.345	1	0
544.685	1	24
545.025	1	12
545.365	1	12
545.705	1	14
546.045	1	19
546.386	1	8
546.726	1	8
547.066	1	-1
547.406	1	22
547.746	1	14
548.086	1	11
548.426	1	-1
548.766	1	10
549.106	1	10
549.446	1	18
549.786	1	9
550.126	1	5
550.466	1	12
550.806	1	18
551.146	1	2
551.486	1	9
551.826	1	16
552.166	1	7
552.506	1	2
552.846	1	14
553.186	1	2
553.526	1	11
553.866	1	18
554.206	1	11
554.546	1	-4
554.886	1	5
555.226	1	3
555.566	1	9
555.906	1	18
556.246	1	8
556.586	1	11
556.926	1	18
557.266	1	17
557.606	1	-3
557.946	1	8
558.286	1	16
558.626	1	8
558.966	1	9
559.306	1	6
559.646	1	7
559.986	1	2
560.325	1	1
560.665	1	7
561.005	1	8
561.345	1	-2
561.685	1	8
562.025	1	10
562.365	1	11
562.705	1	13
563.045	1	3
563.385	1	1
563.725	1	7
564.064	1	15
564.404	1	8
564.744	1	9
565.084	1	3
565.424	1	0
565.764	1	14
566.104	1	2
566.444	1	5
566.783	1	10
567.123	1	21
567.463	1	10
567.803	1	1
568.143	1	1
568.483	1	4
568.823	1	5
569.162	1	5
569.502	1	5
569.842	1	0
570.182	1	2
570.522	1	16
570.862	1	12
571.201	1	4
571.541	1	-2
571.881	1	12
572.221	1	6
572.561	1	3
572.900	1	23
573.240	1	-1
573.580	1	9
573.920	1	6
574.260	1	11
574.599	1	5
574.939	1	4
575.279	1	13
575.619	1	8
575.959	1	-1
576.298	1	-1
576.638	1	9
576.978	1	-1
577.318	1	13
577.657	1	-2
577.997	1	-6
578.337	1	5
578.677	1	9
579.016	1	20
579.356	1	-2
579.696	1	8
580.036	1	10
580.375	1	10
580.715	1	9
581.055	1	9
581.394	1	-8
581.734	1	11
582.074	1	5
582.414	1	7
582.753	1	8
583.093	1	7
583.433	1	0
583.772	1	7
584.112	1	16
584.452	1	0
584.791	1	6
585.131	1	0
585.471	1	10
585.811	1	-2
586.150	1	7
586.490	1	-4
586.830	1	3
587.169	1	-3
587.509	1	5
587.849	1	14
588.188	1	1
588.528	1	12
588.867	1	4
589.207	1	-6
589.547	1	-1
589.886	1	1
590.226	1	2
590.566	1	0
590.905	1	1
591.245	1	0
591.585	1	-5
591.924	1	0
592.264	1	14
592.603	1	-1
592.943	1	1
593.283	1	10
593.622	1	4
593.962	1	9
594.301	1	21
594.641	1	5
594.981	1	3
595.320	1	12
595.660	1	0
595.999	1	13
596.339	1	11
596.678	1	1
597.018	1	2
597.358	1	4
597.697	1	9
598.037	1	8
598.376	1	7
598.716	1	-3
599.055	1	5
599.395	1	14
599.734	1	5
600.074	1	-1
600.413	1	2
600.753	1	4
601.092	1	-6
601.432	1	2
601.771	1	2
602.111	1	-7
602.451	1	5
602.790	1	6
603.130	1	14
603.469	1	-5
603.809	1	11
604.148	1	6
604.487	1	8
604.827	1	-9
605.166	1	0
605.506	1	5
605.845	1	3
606.185	1	3
606.524	1	1
606.864	1	-3
607.203	1	12
607.543	1	-5
607.882	1	2
608.222	1	-6
608.561	1	9
608.901	1	5
609.240	1	2
609.579	1	8
609.919	1	-1
610.258	1	13
610.598	1	6
610.937	1	-5
611.277	1	-3
611.616	1	1
611.955	1	4
612.295	1	9
612.634	1	1
612.974	1	7
613.313	1	-4
613.652	1	-9
613.992	1	2
614.331	1	10
614.671	1	10
615.010	1	18
615.349	1	13
615.689	1	10
616.028	1	1
616.368	1	-2
616.707	1	3
617.046	1	6
617.386	1	-2
617.725	1	9
618.064	1	1
618.404	1	18
618.743	1	-2
619.082	1	10
619.422	1	0
619.761	1	-1
620.100	1	14
620.440	1	1
620.779	1	0
621.118	1	7
621.458	1	6
621.797	1	2
622.136	1	4
622.476	1	10
622.815	1	10
623.154	1	1
623.494	1	3
623.833	1	-4
624.172	1	11
624.511	1	7
624.851	1	-9
625.190	1	6
625.529	1	22
625.869	1	7
626.208	1	3
626.547	1	10
626.886	1	1
627.226	1	5
627.565	1	3
627.904	1	6
628.243	1	-4
628.583	1	7
628.922	1	2
629.261	1	10
629.600	1	14
629.940	1	5
630.279	1	6
630.618	1	-1
630.957	1	0
631.297	1	-6
631.636	1	-5
631.975	1	6
632.314	1	14
632.653	1	-1
632.993	1	7
633.332	1	10
633.671	1	2
634.010	1	4
634.349	1	0
634.689	1	16
635.028	1	12
635.367	1	-4
635.706	1	1
636.045	1	10
636.384	1	4
636.724	1	11
637.063	1	2
637.402	1	14
637.741	1	10
638.080	1	2
638.419	1	8
638.759	1	9
639.098	1	1
639.437	1	-6
639.776	1	3
640.115	1	3
640.454	1	11
640.793	1	9
641.132	1	3
641.472	1	5
641.811	1	-3
642.150	1	0
642.489	1	3
642.828	1	5
643.167	1	9
643.506	1	-8
643.845	1	6
644.184	1	13
644.524	1	2
644.863	1	-4
645.202	1	2
645.541	1	-14
645.880	1	9
646.219	1	4
646.558	1	10
646.897	1	-4
647.236	1	3
647.575	1	6
647.914	1	-1
648.253	1	-5
648.592	1	3
648.931	1	5
649.270	1	18
649.610	1	13
649.949	1	4
650.288	1	-1
650.627	1	6
650.966	1	8
651.305	1	-6
651.644	1	1
651.983	1	3
652.322	1	11
652.661	1	4
653.000	1	-2
653.339	1	14
653.678	1	8
654.017	1	2
654.356	1	8
654.695	1	4
655.034	1	2
655.373	1	9
655.712	1	-8
656.051	1	12
656.390	1	0
656.729	1	10
657.068	1	9
657.406	1	7
657.745	1	0
658.084	1	10
658.423	1	-10
658.762	1	-9
659.101	1	3
659.440	1	13
659.779	1	-5
660.118	1	5
660.457	1	-1
660.796	1	6
661.135	1	11
661.474	1	0
661.813	1	3
662.152	1	4
662.491	1	6
662.829	1	2
663.168	1	-7
663.507	1	8
663.846	1	12
664.185	1	6
664.524	1	-7
664.863	1	5
665.202	1	-3
665.541	1	7
665.879	1	4
666.218	1	-6
666.557	1	6
666.896	1	0
667.235	1	-1
667.574	1	1
667.913	1	7
668.251	1	1
668.590	1	1
668.929	1	2
669.268	1	0
669.607	1	2
669.946	1	-2
670.285	1	13
670.623	1	13
670.962	1	-1
671.301	1	1
671.640	1	-8
671.979	1	18
672.317	1	-4
672.656	1	8
672.995	1	3
673.334	1	15
673.673	1	20
674.011	1	10
674.350	1	-4
674.689	1	3
675.028	1	2
675.367	1	6
675.705	1	-5
676.044	1	2
676.383	1	-5
676.722	1	6
677.060	1	8
677.399	1	1
677.738	1	-8
678.077	1	5
678.416	1	5
678.754	1	0
679.093	1	7
679.432	1	-12
679.771	1	5
680.109	1	6
680.448	1	11
680.787	1	-2
681.125	1	-1
681.464	1	8
681.803	1	-15
682.142	1	15
682.480	1	-7
682.819	1	1
683.158	1	4
683.496	1	6
683.835	1	5
684.174	1	0
684.512	1	0
684.851	1	6
685.190	1	12
685.529	1	4
685.867	1	-2
686.206	1	2
686.545	1	12
686.883	1	-4
687.222	1	9
687.561	1	2
687.899	1	-5
688.238	1	-1
688.577	1	-13
688.746	1	2