File: Analysis/GaN_68K_200ms/GaN_sample E_spot4_UVVIS_68 K_200um_200 ms 2x2mm1_197.txt
340.368	1	1
340.710	1	-5
341.052	1	8
341.394	1	-1
341.737	1	7
342.079	1	-6
342.421	1	1
342.763	1	6
343.105	1	10
343.447	1	7
343.789	1	-8
344.131	1	0
344.473	1	3
344.815	1	1
345.157	1	9
345.499	1	9
345.841	1	1
346.183	1	1
346.526	1	9
346.868	1	10
347.210	1	-1
347.552	1	6
347.894	1	4
348.236	1	5
348.578	1	10
348.920	1	10
349.262	1	-6
349.604	1	14
349.946	1	3
350.288	1	7
350.630	1	-1
350.972	1	6
351.314	1	-6
351.656	1	6
351.998	1	1
352.340	1	1
352.682	1	-3
353.024	1	1
353.366	1	7
353.708	1	6
354.050	1	6
354.392	1	6
354.734	1	3
355.076	1	-3
355.418	1	-1
355.760	1	7
356.102	1	7
356.444	1	4
356.785	1	12
357.127	1	12
357.469	1	3
357.811	1	20
358.153	1	-1
358.495	1	5
358.837	1	-5
359.179	1	3
359.521	1	9
359.863	1	-4
360.205	1	6
360.547	1	9
360.889	1	16
361.231	1	7
361.572	1	9
361.914	1	10
362.256	1	23
362.598	1	13
362.940	1	14
363.282	1	21
363.624	1	17
363.966	1	15
364.308	1	10
364.649	1	17
364.991	1	17
365.333	1	22
365.675	1	11
366.017	1	34
366.359	1	24
366.701	1	16
367.042	1	25
367.384	1	21
367.726	1	40
368.068	1	20
368.410	1	17
368.752	1	14
369.093	1	21
369.435	1	17
369.777	1	19
370.119	1	20
370.461	1	8
370.803	1	5
371.144	1	28
371.486	1	27
371.828	1	21
372.170	1	16
372.512	1	8
372.853	1	17
373.195	1	6
373.537	1	16
373.879	1	17
374.220	1	19
374.562	1	10
374.904	1	5
375.246	1	8
375.588	1	10
375.929	1	23
376.271	1	17
376.613	1	12
376.955	1	6
377.296	1	11
377.638	1	7
377.980	1	14
378.321	1	13
378.663	1	1
379.005	1	17
379.347	1	9
379.688	1	5
380.030	1	15
380.372	1	12
380.714	1	10
381.055	1	6
381.397	1	-1
381.739	1	15
382.080	1	-3
382.422	1	13
382.764	1	15
383.105	1	15
383.447	1	21
383.789	1	19
384.130	1	9
384.472	1	12
384.814	1	22
385.156	1	27
385.497	1	31
385.839	1	22
386.180	1	35
386.522	1	33
386.864	1	22
387.205	1	29
387.547	1	22
387.889	1	30
388.230	1	32
388.572	1	26
388.914	1	29
389.255	1	37
389.597	1	18
389.939	1	31
390.280	1	25
390.622	1	26
390.963	1	28
391.305	1	21
391.647	1	24
391.988	1	18
392.330	1	30
392.671	1	30
393.013	1	29
393.355	1	33
393.696	1	24
394.038	1	15
394.379	1	12
394.721	1	30
395.062	1	10
395.404	1	31
395.746	1	11
396.087	1	13
396.429	1	25
396.770	1	25
397.112	1	15
397.453	1	16
397.795	1	27
398.136	1	28
398.478	1	23
398.819	1	33
399.161	1	22
399.503	1	23
399.844	1	22
400.186	1	29
400.527	1	27
400.869	1	32
401.210	1	15
401.552	1	31
401.893	1	24
402.235	1	26
402.576	1	20
402.918	1	10
403.259	1	8
403.601	1	11
403.942	1	19
404.284	1	17
404.625	1	17
404.967	1	15
405.308	1	24
405.649	1	22
405.991	1	22
406.332	1	11
406.674	1	28
407.015	1	16
407.357	1	18
407.698	1	7
408.040	1	9
408.381	1	10
408.722	1	10
409.064	1	22
409.405	1	23
409.747	1	6
410.088	1	23
410.430	1	21
410.771	1	24
411.112	1	18
411.454	1	28
411.795	1	19
412.137	1	26
412.478	1	17
412.819	1	8
413.161	1	11
413.502	1	5
413.844	1	7
414.185	1	17
414.526	1	12
414.868	1	21
415.209	1	6
415.550	1	5
415.892	1	18
416.233	1	15
416.575	1	2
416.916	1	11
417.257	1	17
417.599	1	14
417.940	1	14
418.281	1	11
418.623	1	16
418.964	1	12
419.305	1	12
419.647	1	19
419.988	1	4
420.329	1	18
420.671	1	14
421.012	1	14
421.353	1	14
421.695	1	17
422.036	1	9
422.377	1	17
422.718	1	15
423.060	1	6
423.401	1	11
423.742	1	7
424.084	1	17
424.425	1	16
424.766	1	8
425.107	1	19
425.449	1	11
425.790	1	7
426.131	1	7
426.472	1	16
426.814	1	17
427.155	1	10
427.496	1	13
427.837	1	0
428.179	1	6
428.520	1	7
428.861	1	2
429.202	1	11
429.544	1	14
429.885	1	4
430.226	1	13
430.567	1	26
430.909	1	1
431.250	1	0
431.591	1	8
431.932	1	11
432.273	1	10
432.615	1	15
432.956	1	8
433.297	1	10
433.638	1	9
433.979	1	7
434.320	1	12
434.662	1	-2
435.003	1	7
435.344	1	11
435.685	1	20
436.026	1	14
436.368	1	8
436.709	1	6
437.050	1	8
437.391	1	8
437.732	1	4
438.073	1	20
438.414	1	6
438.756	1	19
439.097	1	11
439.438	1	13
439.779	1	3
440.120	1	5
440.461	1	0
440.802	1	13
441.143	1	17
441.485	1	-4
441.826	1	0
442.167	1	3
442.508	1	0
442.849	1	7
443.190	1	-4
443.531	1	5
443.872	1	7
444.213	1	-3
444.554	1	3
444.895	1	9
445.237	1	2
445.578	1	8
445.919	1	7
446.260	1	7
446.601	1	-1
446.942	1	9
447.283	1	1
447.624	1	11
447.965	1	-5
448.306	1	10
448.647	1	25
448.988	1	-1
449.329	1	11
449.670	1	9
450.011	1	9
450.352	1	9
450.693	1	6
451.034	1	16
451.375	1	8
451.716	1	16
452.057	1	14
452.398	1	7
452.739	1	8
453.080	1	26
453.421	1	10
453.762	1	12
454.103	1	0
454.444	1	12
454.785	1	11
455.126	1	5
455.467	1	12
455.808	1	-3
456.149	1	3
456.490	1	3
456.831	1	13
457.172	1	1
457.513	1	12
457.854	1	7
458.195	1	8
458.536	1	5
458.877	1	2
459.218	1	7
459.559	1	8
459.899	1	13
460.240	1	2
460.581	1	13
460.922	1	9
461.263	1	6
461.604	1	12
461.945	1	6
462.286	1	13
462.627	1	0
462.968	1	-5
463.309	1	9
463.649	1	10
463.990	1	9
464.331	1	-1
464.672	1	5
465.013	1	-5
465.354	1	14
465.695	1	14
466.036	1	5
466.376	1	1
466.717	1	-5
467.058	1	10
467.399	1	3
467.740	1	10
468.081	1	3
468.422	1	10
468.762	1	-1
469.103	1	-2
469.444	1	6
469.785	1	13
470.126	1	12
470.467	1	9
470.807	1	7
471.148	1	2
471.489	1	5
471.830	1	9
472.171	1	8
472.511	1	11
472.852	1	-5
473.193	1	4
473.534	1	5
473.875	1	7
474.215	1	1
474.556	1	1
474.897	1	3
475.238	1	-6
475.578	1	11
475.919	1	7
476.260	1	3
476.601	1	5
476.942	1	2
477.282	1	-5
477.623	1	8
477.964	1	13
478.305	1	9
478.645	1	3
478.986	1	8
479.327	1	5
479.667	1	3
480.008	1	14
480.349	1	9
480.690	1	9
481.030	1	4
481.371	1	0
481.712	1	9
482.053	1	3
482.393	1	2
482.734	1	19
483.075	1	14
483.415	1	9
483.756	1	6
484.097	1	-2
484.437	1	-3
484.778	1	2
485.119	1	10
485.459	1	14
485.800	1	0
486.141	1	2
486.481	1	5
486.822	1	4
487.163	1	1
487.503	1	-9
487.844	1	7
488.185	1	1
488.525	1	9
488.866	1	11
489.207	1	9
489.547	1	-3
489.888	1	1
490.228	1	-2
490.569	1	7
490.910	1	6
491.250	1	18
491.591	1	7
491.932	1	12
492.272	1	10
492.613	1	7
492.953	1	7
493.294	1	10
493.635	1	8
493.975	1	7
494.316	1	8
494.656	1	2
494.997	1	2
495.337	1	14
495.678	1	15
496.019	1	6
496.359	1	11
496.700	1	2
497.040	1	7
497.381	1	-14
497.721	1	6
498.062	1	9
498.403	1	18
498.743	1	14
499.084	1	-4
499.424	1	17
499.765	1	6
500.105	1	25
500.446	1	10
500.786	1	13
501.127	1	15
501.467	1	6
501.808	1	0
502.148	1	3
502.489	1	9
502.829	1	7
503.170	1	7
503.510	1	13
503.851	1	-2
504.191	1	12
504.532	1	-2
504.872	1	-1
505.213	1	9
505.553	1	16
505.894	1	17
506.234	1	18
506.575	1	13
506.915	1	12
507.256	1	7
507.596	1	15
507.936	1	11
508.277	1	17
508.617	1	22
508.958	1	16
509.298	1	26
509.639	1	21
509.979	1	21
510.319	1	9
510.660	1	12
511.000	1	19
511.341	1	3
511.681	1	11
512.022	1	7
512.362	1	10
512.702	1	7
513.043	1	9
513.383	1	2
513.724	1	20
514.064	1	15
514.404	1	19
514.745	1	11
515.085	1	9
515.425	1	5
515.766	1	12
516.106	1	8
516.447	1	14
516.787	1	5
517.127	1	18
517.468	1	14
517.808	1	11
518.148	1	15
518.489	1	14
518.829	1	2
519.169	1	24
519.510	1	10
519.850	1	13
520.190	1	18
520.531	1	20
520.871	1	6
521.211	1	17
521.552	1	18
521.892	1	21
522.232	1	8
522.573	1	18
522.913	1	15
523.253	1	19
523.593	1	6
523.934	1	12
524.274	1	6
524.614	1	14
524.955	1	20
525.295	1	9
525.635	1	27
525.975	1	13
526.316	1	6
526.656	1	29
526.996	1	24
527.337	1	17
527.677	1	31
528.017	1	6
528.357	1	25
528.698	1	19
529.038	1	21
529.378	1	14
529.718	1	23
530.058	1	11
530.399	1	14
530.739	1	20
531.079	1	22
531.419	1	33
531.760	1	22
532.100	1	30
532.440	1	10
532.780	1	10
533.120	1	9
533.461	1	28
533.801	1	12
534.141	1	24
534.481	1	27
534.821	1	26
535.162	1	21
535.502	1	16
535.842	1	21
536.182	1	18
536.522	1	14
536.862	1	18
537.203	1	19
537.543	1	22
537.883	1	26
538.223	1	20
538.563	1	13
538.903	1	27
539.243	1	19
539.584	1	18
539.924	1	21
540.264	1	29
540.604	1	21
540.944	1	5
541.284	1	10
541.624	1	25
541.964	1	9
542.305	1	5
542.645	1	12
542.985	1	23
543.325	1	15
543.665	1	16
544.005	1	13
544.345	1	15
544.685	1	22
545.025	1	2
545.365	1	8
545.705	1	24
546.045	1	27
546.386	1	19
546.726	1	10
547.066	1	4
547.406	1	22
547.746	1	17
548.086	1	23
548.426	1	5
548.766	1	14
549.106	1	9
549.446	1	8
549.786	1	23
550.126	1	23
550.466	1	13
550.806	1	21
551.146	1	22
551.486	1	15
551.826	1	21
552.166	1	13
552.506	1	6
552.846	1	20
553.186	1	20
553.526	1	9
553.866	1	11
554.206	1	13
554.546	1	-2
554.886	1	10
555.226	1	15
555.566	1	27
555.906	1	23
556.246	1	19
556.586	1	21
556.926	1	11
557.266	1	26
557.606	1	6
557.946	1	20
558.286	1	12
558.626	1	26
558.966	1	10
559.306	1	12
559.646	1	10
559.986	1	9
560.325	1	1
560.665	1	20
561.005	1	13
561.345	1	0
561.685	1	12
562.025	1	4
562.365	1	22
562.705	1	23
563.045	1	16
563.385	1	4
563.725	1	9
564.064	1	19
564.404	1	8
564.744	1	20
565.084	1	9
565.424	1	8
565.764	1	13
566.104	1	5
566.444	1	11
566.783	1	12
567.123	1	19
567.463	1	4
567.803	1	6
568.143	1	6
568.483	1	4
568.823	1	15
569.162	1	11
569.502	1	15
569.842	1	7
570.182	1	4
570.522	1	13
570.862	1	7
571.201	1	18
571.541	1	0
571.881	1	14
572.221	1	16
572.561	1	0
572.900	1	17
573.240	1	-4
573.580	1	11
573.920	1	14
574.260	1	8
574.599	1	7
574.939	1	9
575.279	1	13
575.619	1	14
575.959	1	-4
576.298	1	1
576.638	1	7
576.978	1	16
577.318	1	21
577.657	1	-7
577.997	1	7
578.337	1	4
578.677	1	1
579.016	1	9
579.356	1	5
579.696	1	8
580.036	1	5
580.375	1	11
580.715	1	16
581.055	1	4
581.394	1	-6
581.734	1	8
582.074	1	-2
582.414	1	2
582.753	1	15
583.093	1	3
583.433	1	9
583.772	1	3
584.112	1	9
584.452	1	0
584.791	1	4
585.131	1	4
585.471	1	10
585.811	1	4
586.150	1	13
586.490	1	-4
586.830	1	1
587.169	1	11
587.509	1	7
587.849	1	15
588.188	1	1
588.528	1	4
588.867	1	14
589.207	1	3
589.547	1	5
589.886	1	-1
590.226	1	7
590.566	1	9
590.905	1	10
591.245	1	3
591.585	1	0
591.924	1	8
592.264	1	5
592.603	1	16
592.943	1	1
593.283	1	12
593.622	1	0
593.962	1	15
594.301	1	18
594.641	1	11
594.981	1	5
595.320	1	15
595.660	1	2
595.999	1	16
596.339	1	10
596.678	1	6
597.018	1	9
597.358	1	7
597.697	1	-1
598.037	1	6
598.376	1	7
598.716	1	0
599.055	1	3
599.395	1	17
599.734	1	3
600.074	1	-2
600.413	1	3
600.753	1	6
601.092	1	-6
601.432	1	-3
601.771	1	13
602.111	1	-3
602.451	1	3
602.790	1	13
603.130	1	6
603.469	1	6
603.809	1	19
604.148	1	-4
604.487	1	15
604.827	1	-7
605.166	1	7
605.506	1	9
605.845	1	9
606.185	1	3
606.524	1	6
606.864	1	3
607.203	1	15
607.543	1	1
607.882	1	3
608.222	1	8
608.561	1	7
608.901	1	13
609.240	1	7
609.579	1	6
609.919	1	-1
610.258	1	7
610.598	1	9
610.937	1	1
611.277	1	3
611.616	1	-6
611.955	1	11
612.295	1	10
612.634	1	5
612.974	1	11
613.313	1	6
613.652	1	-4
613.992	1	10
614.331	1	15
614.671	1	4
615.010	1	11
615.349	1	2
615.689	1	8
616.028	1	9
616.368	1	2
616.707	1	1
617.046	1	4
617.386	1	7
617.725	1	16
618.064	1	8
618.404	1	10
618.743	1	2
619.082	1	10
619.422	1	16
619.761	1	0
620.100	1	10
620.440	1	6
620.779	1	10
621.118	1	0
621.458	1	2
621.797	1	2
622.136	1	5
622.476	1	13
622.815	1	1
623.154	1	12
623.494	1	6
623.833	1	0
624.172	1	17
624.511	1	14
624.851	1	-6
625.190	1	6
625.529	1	10
625.869	1	11
626.208	1	3
626.547	1	10
626.886	1	7
627.226	1	2
627.565	1	8
627.904	1	5
628.243	1	-4
628.583	1	3
628.922	1	4
629.261	1	9
629.600	1	15
629.940	1	10
630.279	1	-4
630.618	1	1
630.957	1	-2
631.297	1	-7
631.636	1	-3
631.975	1	5
632.314	1	9
632.653	1	6
632.993	1	13
633.332	1	5
633.671	1	11
634.010	1	-2
634.349	1	10
634.689	1	14
635.028	1	10
635.367	1	5
635.706	1	-12
636.045	1	6
636.384	1	10
636.724	1	3
637.063	1	11
637.402	1	5
637.741	1	13
638.080	1	10
638.419	1	10
638.759	1	10
639.098	1	4
639.437	1	-1
639.776	1	2
640.115	1	5
640.454	1	20
640.793	1	4
641.132	1	15
641.472	1	-3
641.811	1	10
642.150	1	5
642.489	1	6
642.828	1	10
643.167	1	8
643.506	1	-2
643.845	1	5
644.184	1	5
644.524	1	1
644.863	1	-4
645.202	1	10
645.541	1	-1
645.880	1	5
646.219	1	6
646.558	1	-2
646.897	1	10
647.236	1	9
647.575	1	12
647.914	1	-7
648.253	1	4
648.592	1	9
648.931	1	1
649.270	1	13
649.610	1	14
649.949	1	8
650.288	1	2
650.627	1	3
650.966	1	6
651.305	1	-2
651.644	1	4
651.983	1	5
652.322	1	9
652.661	1	9
653.000	1	-2
653.339	1	6
653.678	1	-5
654.017	1	1
654.356	1	16
654.695	1	7
655.034	1	4
655.373	1	12
655.712	1	1
656.051	1	12
656.390	1	1
656.729	1	5
657.068	1	3
657.406	1	4
657.745	1	1
658.084	1	9
658.423	1	4
658.762	1	-9
659.101	1	3
659.440	1	16
659.779	1	4
660.118	1	6
660.457	1	-7
660.796	1	-6
661.135	1	5
661.474	1	3
661.813	1	2
662.152	1	7
662.491	1	2
662.829	1	6
663.168	1	5
663.507	1	10
663.846	1	8
664.185	1	2
664.524	1	-5
664.863	1	8
665.202	1	0
665.541	1	1
665.879	1	3
666.218	1	0
666.557	1	4
666.896	1	3
667.235	1	8
667.574	1	8
667.913	1	3
668.251	1	3
668.590	1	-3
668.929	1	6
669.268	1	-3
669.607	1	-8
669.946	1	8
670.285	1	13
670.623	1	8
670.962	1	13
671.301	1	7
671.640	1	-9
671.979	1	14
672.317	1	4
672.656	1	10
672.995	1	-1
673.334	1	7
673.673	1	12
674.011	1	5
674.350	1	3
674.689	1	-2
675.028	1	3
675.367	1	12
675.705	1	-4
676.044	1	-7
676.383	1	-3
676.722	1	4
677.060	1	11
677.399	1	10
677.738	1	-4
678.077	1	7
678.416	1	3
678.754	1	4
679.093	1	5
679.432	1	4
679.771	1	1
680.109	1	20
680.448	1	5
680.787	1	8
681.125	1	2
681.464	1	-1
681.803	1	-6
682.142	1	20
682.480	1	4
682.819	1	15
683.158	1	6
683.496	1	2
683.835	1	9
684.174	1	3
684.512	1	2
684.851	1	0
685.190	1	5
685.529	1	4
685.867	1	-1
686.206	1	-5
686.545	1	0
686.883	1	-5
687.222	1	-3
687.561	1	14
687.899	1	1
688.238	1	4
688.577	1	-3
688.746	1	6