File: Analysis/GaN_68K_200ms/GaN_sample E_spot4_UVVIS_68 K_200um_200 ms 2x2mm1_448.txt
340.368	1	6
340.710	1	-2
341.052	1	3
341.394	1	0
341.737	1	7
342.079	1	-6
342.421	1	-14
342.763	1	2
343.105	1	10
343.447	1	5
343.789	1	2
344.131	1	1
344.473	1	-2
344.815	1	-3
345.157	1	5
345.499	1	10
345.841	1	6
346.183	1	2
346.526	1	2
346.868	1	5
347.210	1	1
347.552	1	-1
347.894	1	1
348.236	1	10
348.578	1	4
348.920	1	0
349.262	1	-9
349.604	1	8
349.946	1	10
350.288	1	1
350.630	1	-17
350.972	1	-1
351.314	1	-1
351.656	1	10
351.998	1	1
352.340	1	2
352.682	1	-1
353.024	1	-3
353.366	1	3
353.708	1	-1
354.050	1	9
354.392	1	6
354.734	1	4
355.076	1	2
355.418	1	-6
355.760	1	0
356.102	1	-1
356.444	1	4
356.785	1	5
357.127	1	7
357.469	1	-5
357.811	1	6
358.153	1	-2
358.495	1	9
358.837	1	1
359.179	1	1
359.521	1	3
359.863	1	5
360.205	1	6
360.547	1	2
360.889	1	7
361.231	1	3
361.572	1	-2
361.914	1	-2
362.256	1	0
362.598	1	7
362.940	1	1
363.282	1	6
363.624	1	-2
363.966	1	-1
364.308	1	-2
364.649	1	0
364.991	1	11
365.333	1	6
365.675	1	0
366.017	1	0
366.359	1	4
366.701	1	-11
367.042	1	4
367.384	1	2
367.726	1	10
368.068	1	-2
368.410	1	-3
368.752	1	1
369.093	1	-3
369.435	1	-2
369.777	1	-3
370.119	1	8
370.461	1	-1
370.803	1	5
371.144	1	6
371.486	1	6
371.828	1	0
372.170	1	12
372.512	1	-1
372.853	1	9
373.195	1	-2
373.537	1	1
373.879	1	14
374.220	1	5
374.562	1	6
374.904	1	4
375.246	1	0
375.588	1	-3
375.929	1	9
376.271	1	1
376.613	1	0
376.955	1	6
377.296	1	9
377.638	1	-4
377.980	1	6
378.321	1	-4
378.663	1	0
379.005	1	-3
379.347	1	1
379.688	1	-5
380.030	1	-3
380.372	1	7
380.714	1	3
381.055	1	-3
381.397	1	0
381.739	1	6
382.080	1	-12
382.422	1	23
382.764	1	7
383.105	1	1
383.447	1	5
383.789	1	4
384.130	1	0
384.472	1	-12
384.814	1	13
385.156	1	13
385.497	1	-2
385.839	1	-4
386.180	1	-6
386.522	1	9
386.864	1	2
387.205	1	3
387.547	1	0
387.889	1	17
388.230	1	14
388.572	1	3
388.914	1	14
389.255	1	4
389.597	1	-7
389.939	1	13
390.280	1	5
390.622	1	-3
390.963	1	10
391.305	1	8
391.647	1	3
391.988	1	-4
392.330	1	7
392.671	1	7
393.013	1	6
393.355	1	12
393.696	1	1
394.038	1	-5
394.379	1	-3
394.721	1	-5
395.062	1	-9
395.404	1	8
395.746	1	8
396.087	1	-2
396.429	1	9
396.770	1	1
397.112	1	5
397.453	1	-6
397.795	1	7
398.136	1	7
398.478	1	1
398.819	1	11
399.161	1	4
399.503	1	7
399.844	1	1
400.186	1	14
400.527	1	2
400.869	1	12
401.210	1	1
401.552	1	18
401.893	1	3
402.235	1	9
402.576	1	10
402.918	1	2
403.259	1	-11
403.601	1	-4
403.942	1	4
404.284	1	2
404.625	1	1
404.967	1	7
405.308	1	-2
405.649	1	1
405.991	1	6
406.332	1	-13
406.674	1	12
407.015	1	-6
407.357	1	5
407.698	1	-10
408.040	1	3
408.381	1	7
408.722	1	-2
409.064	1	0
409.405	1	8
409.747	1	-3
410.088	1	8
410.430	1	10
410.771	1	1
411.112	1	3
411.454	1	13
411.795	1	14
412.137	1	13
412.478	1	8
412.819	1	1
413.161	1	-3
413.502	1	-5
413.844	1	-2
414.185	1	4
414.526	1	6
414.868	1	6
415.209	1	-8
415.550	1	-12
415.892	1	-1
416.233	1	1
416.575	1	4
416.916	1	-3
417.257	1	15
417.599	1	9
417.940	1	1
418.281	1	-2
418.623	1	4
418.964	1	4
419.305	1	6
419.647	1	14
419.988	1	7
420.329	1	2
420.671	1	6
421.012	1	5
421.353	1	3
421.695	1	14
422.036	1	4
422.377	1	2
422.718	1	-4
423.060	1	9
423.401	1	10
423.742	1	6
424.084	1	-2
424.425	1	-4
424.766	1	6
425.107	1	-4
425.449	1	8
425.790	1	7
426.131	1	4
426.472	1	-2
426.814	1	12
427.155	1	0
427.496	1	12
427.837	1	-6
428.179	1	-5
428.520	1	-2
428.861	1	-4
429.202	1	7
429.544	1	-2
429.885	1	-10
430.226	1	-11
430.567	1	11
430.909	1	0
431.250	1	-10
431.591	1	-3
431.932	1	-6
432.273	1	4
432.615	1	7
432.956	1	-3
433.297	1	3
433.638	1	1
433.979	1	3
434.320	1	-3
434.662	1	-3
435.003	1	11
435.344	1	-8
435.685	1	10
436.026	1	4
436.368	1	3
436.709	1	-2
437.050	1	3
437.391	1	2
437.732	1	-2
438.073	1	0
438.414	1	6
438.756	1	9
439.097	1	13
439.438	1	4
439.779	1	-3
440.120	1	4
440.461	1	-1
440.802	1	5
441.143	1	7
441.485	1	-5
441.826	1	-7
442.167	1	-2
442.508	1	5
442.849	1	4
443.190	1	-7
443.531	1	2
443.872	1	-1
444.213	1	1
444.554	1	-10
444.895	1	-1
445.237	1	2
445.578	1	10
445.919	1	-3
446.260	1	5
446.601	1	-13
446.942	1	8
447.283	1	2
447.624	1	11
447.965	1	-13
448.306	1	1
448.647	1	10
448.988	1	-6
449.329	1	-4
449.670	1	6
450.011	1	4
450.352	1	10
450.693	1	6
451.034	1	1
451.375	1	10
451.716	1	6
452.057	1	19
452.398	1	5
452.739	1	2
453.080	1	4
453.421	1	0
453.762	1	7
454.103	1	5
454.444	1	8
454.785	1	-4
455.126	1	5
455.467	1	7
455.808	1	3
456.149	1	-8
456.490	1	3
456.831	1	11
457.172	1	-3
457.513	1	7
457.854	1	-3
458.195	1	-7
458.536	1	6
458.877	1	3
459.218	1	10
459.559	1	3
459.899	1	12
460.240	1	0
460.581	1	13
460.922	1	-1
461.263	1	7
461.604	1	3
461.945	1	2
462.286	1	15
462.627	1	6
462.968	1	1
463.309	1	3
463.649	1	1
463.990	1	0
464.331	1	5
464.672	1	-1
465.013	1	-10
465.354	1	5
465.695	1	8
466.036	1	1
466.376	1	-4
466.717	1	-11
467.058	1	14
467.399	1	6
467.740	1	-5
468.081	1	-5
468.422	1	7
468.762	1	0
469.103	1	3
469.444	1	-2
469.785	1	8
470.126	1	7
470.467	1	4
470.807	1	2
471.148	1	-6
471.489	1	-1
471.830	1	9
472.171	1	10
472.511	1	12
472.852	1	-8
473.193	1	-5
473.534	1	2
473.875	1	0
474.215	1	-4
474.556	1	-8
474.897	1	6
475.238	1	-1
475.578	1	4
475.919	1	7
476.260	1	4
476.601	1	1
476.942	1	8
477.282	1	2
477.623	1	10
477.964	1	9
478.305	1	10
478.645	1	-4
478.986	1	0
479.327	1	-10
479.667	1	-3
480.008	1	-1
480.349	1	0
480.690	1	-3
481.030	1	-3
481.371	1	6
481.712	1	3
482.053	1	7
482.393	1	-1
482.734	1	6
483.075	1	4
483.415	1	6
483.756	1	3
484.097	1	0
484.437	1	-6
484.778	1	2
485.119	1	4
485.459	1	8
485.800	1	-5
486.141	1	-3
486.481	1	0
486.822	1	5
487.163	1	1
487.503	1	-13
487.844	1	8
488.185	1	-2
488.525	1	-2
488.866	1	0
489.207	1	5
489.547	1	0
489.888	1	8
490.228	1	-6
490.569	1	15
490.910	1	-1
491.250	1	3
491.591	1	-4
491.932	1	11
492.272	1	12
492.613	1	8
492.953	1	-4
493.294	1	8
493.635	1	-3
493.975	1	5
494.316	1	12
494.656	1	3
494.997	1	-2
495.337	1	8
495.678	1	14
496.019	1	-8
496.359	1	1
496.700	1	2
497.040	1	1
497.381	1	-12
497.721	1	6
498.062	1	11
498.403	1	-8
498.743	1	5
499.084	1	-9
499.424	1	5
499.765	1	2
500.105	1	6
500.446	1	4
500.786	1	7
501.127	1	6
501.467	1	6
501.808	1	-11
502.148	1	2
502.489	1	7
502.829	1	8
503.170	1	1
503.510	1	1
503.851	1	-8
504.191	1	13
504.532	1	-1
504.872	1	0
505.213	1	-1
505.553	1	-1
505.894	1	4
506.234	1	9
506.575	1	-2
506.915	1	5
507.256	1	5
507.596	1	8
507.936	1	1
508.277	1	0
508.617	1	10
508.958	1	10
509.298	1	12
509.639	1	6
509.979	1	4
510.319	1	-7
510.660	1	4
511.000	1	7
511.341	1	-3
511.681	1	-4
512.022	1	-5
512.362	1	1
512.702	1	-5
513.043	1	-7
513.383	1	-3
513.724	1	13
514.064	1	-2
514.404	1	8
514.745	1	-9
515.085	1	14
515.425	1	-7
515.766	1	-2
516.106	1	1
516.447	1	1
516.787	1	1
517.127	1	2
517.468	1	0
517.808	1	1
518.148	1	3
518.489	1	1
518.829	1	-1
519.169	1	10
519.510	1	6
519.850	1	-6
520.190	1	8
520.531	1	7
520.871	1	-2
521.211	1	3
521.552	1	2
521.892	1	-6
522.232	1	-3
522.573	1	-1
522.913	1	3
523.253	1	8
523.593	1	-13
523.934	1	2
524.274	1	5
524.614	1	3
524.955	1	4
525.295	1	-1
525.635	1	9
525.975	1	-3
526.316	1	1
526.656	1	22
526.996	1	16
527.337	1	3
527.677	1	13
528.017	1	-4
528.357	1	4
528.698	1	-3
529.038	1	4
529.378	1	9
529.718	1	4
530.058	1	1
530.399	1	15
530.739	1	-2
531.079	1	3
531.419	1	9
531.760	1	13
532.100	1	12
532.440	1	-5
532.780	1	3
533.120	1	-9
533.461	1	14
533.801	1	7
534.141	1	6
534.481	1	6
534.821	1	11
535.162	1	0
535.502	1	14
535.842	1	1
536.182	1	-2
536.522	1	16
536.862	1	6
537.203	1	4
537.543	1	11
537.883	1	16
538.223	1	-1
538.563	1	5
538.903	1	0
539.243	1	12
539.584	1	11
539.924	1	7
540.264	1	6
540.604	1	14
540.944	1	-2
541.284	1	-2
541.624	1	5
541.964	1	6
542.305	1	-5
542.645	1	-1
542.985	1	-4
543.325	1	-4
543.665	1	8
544.005	1	0
544.345	1	1
544.685	1	7
545.025	1	3
545.365	1	-3
545.705	1	-1
546.045	1	10
546.386	1	5
546.726	1	5
547.066	1	-8
547.406	1	6
547.746	1	8
548.086	1	3
548.426	1	-4
548.766	1	1
549.106	1	5
549.446	1	-4
549.786	1	-1
550.126	1	0
550.466	1	-3
550.806	1	1
551.146	1	-1
551.486	1	7
551.826	1	0
552.166	1	5
552.506	1	0
552.846	1	5
553.186	1	-3
553.526	1	5
553.866	1	10
554.206	1	4
554.546	1	0
554.886	1	0
555.226	1	-2
555.566	1	8
555.906	1	8
556.246	1	-8
556.586	1	4
556.926	1	1
557.266	1	15
557.606	1	-5
557.946	1	1
558.286	1	2
558.626	1	3
558.966	1	10
559.306	1	-5
559.646	1	-1
559.986	1	-1
560.325	1	-3
560.665	1	2
561.005	1	4
561.345	1	-3
561.685	1	-7
562.025	1	-4
562.365	1	7
562.705	1	7
563.045	1	11
563.385	1	-13
563.725	1	6
564.064	1	3
564.404	1	7
564.744	1	5
565.084	1	-17
565.424	1	-3
565.764	1	9
566.104	1	-1
566.444	1	2
566.783	1	5
567.123	1	10
567.463	1	0
567.803	1	-15
568.143	1	-6
568.483	1	-5
568.823	1	4
569.162	1	5
569.502	1	3
569.842	1	6
570.182	1	-2
570.522	1	2
570.862	1	12
571.201	1	4
571.541	1	0
571.881	1	2
572.221	1	3
572.561	1	-7
572.900	1	5
573.240	1	-5
573.580	1	9
573.920	1	-3
574.260	1	5
574.599	1	7
574.939	1	-12
575.279	1	5
575.619	1	6
575.959	1	-10
576.298	1	-7
576.638	1	7
576.978	1	2
577.318	1	13
577.657	1	-3
577.997	1	-6
578.337	1	-2
578.677	1	-4
579.016	1	19
579.356	1	-5
579.696	1	6
580.036	1	2
580.375	1	11
580.715	1	9
581.055	1	14
581.394	1	-12
581.734	1	-4
582.074	1	2
582.414	1	5
582.753	1	8
583.093	1	-1
583.433	1	-2
583.772	1	4
584.112	1	8
584.452	1	-3
584.791	1	3
585.131	1	-8
585.471	1	9
585.811	1	-1
586.150	1	-3
586.490	1	1
586.830	1	-10
587.169	1	1
587.509	1	3
587.849	1	-4
588.188	1	4
588.528	1	5
588.867	1	5
589.207	1	-3
589.547	1	-2
589.886	1	-4
590.226	1	2
590.566	1	-2
590.905	1	5
591.245	1	-4
591.585	1	-5
591.924	1	-6
592.264	1	-6
592.603	1	-4
592.943	1	-4
593.283	1	4
593.622	1	-4
593.962	1	9
594.301	1	6
594.641	1	1
594.981	1	-10
595.320	1	12
595.660	1	-2
595.999	1	10
596.339	1	4
596.678	1	5
597.018	1	2
597.358	1	2
597.697	1	-7
598.037	1	2
598.376	1	2
598.716	1	0
599.055	1	-2
599.395	1	10
599.734	1	-2
600.074	1	3
600.413	1	2
600.753	1	6
601.092	1	-9
601.432	1	-9
601.771	1	10
602.111	1	-5
602.451	1	4
602.790	1	-1
603.130	1	11
603.469	1	3
603.809	1	0
604.148	1	-2
604.487	1	4
604.827	1	-14
605.166	1	-2
605.506	1	3
605.845	1	10
606.185	1	1
606.524	1	-6
606.864	1	-1
607.203	1	14
607.543	1	-12
607.882	1	-8
608.222	1	-1
608.561	1	9
608.901	1	8
609.240	1	0
609.579	1	-3
609.919	1	-12
610.258	1	4
610.598	1	13
610.937	1	3
611.277	1	6
611.616	1	-10
611.955	1	7
612.295	1	0
612.634	1	4
612.974	1	12
613.313	1	1
613.652	1	-1
613.992	1	-6
614.331	1	7
614.671	1	1
615.010	1	7
615.349	1	-4
615.689	1	-3
616.028	1	-8
616.368	1	4
616.707	1	-4
617.046	1	5
617.386	1	1
617.725	1	5
618.064	1	4
618.404	1	4
618.743	1	1
619.082	1	3
619.422	1	3
619.761	1	0
620.100	1	0
620.440	1	-2
620.779	1	-9
621.118	1	-3
621.458	1	1
621.797	1	-3
622.136	1	10
622.476	1	13
622.815	1	-3
623.154	1	0
623.494	1	6
623.833	1	1
624.172	1	16
624.511	1	-3
624.851	1	-1
625.190	1	0
625.529	1	5
625.869	1	10
626.208	1	-2
626.547	1	4
626.886	1	-1
627.226	1	7
627.565	1	6
627.904	1	4
628.243	1	-7
628.583	1	1
628.922	1	2
629.261	1	5
629.600	1	10
629.940	1	5
630.279	1	-4
630.618	1	-4
630.957	1	-9
631.297	1	0
631.636	1	-5
631.975	1	2
632.314	1	11
632.653	1	-6
632.993	1	12
633.332	1	6
633.671	1	-6
634.010	1	-9
634.349	1	13
634.689	1	13
635.028	1	3
635.367	1	2
635.706	1	-4
636.045	1	4
636.384	1	-2
636.724	1	-1
637.063	1	10
637.402	1	11
637.741	1	3
638.080	1	1
638.419	1	-2
638.759	1	6
639.098	1	-3
639.437	1	-2
639.776	1	-5
640.115	1	-3
640.454	1	15
640.793	1	4
641.132	1	11
641.472	1	-5
641.811	1	-2
642.150	1	6
642.489	1	7
642.828	1	8
643.167	1	5
643.506	1	-14
643.845	1	7
644.184	1	2
644.524	1	2
644.863	1	-9
645.202	1	1
645.541	1	-6
645.880	1	1
646.219	1	1
646.558	1	-5
646.897	1	3
647.236	1	-1
647.575	1	4
647.914	1	1
648.253	1	0
648.592	1	6
648.931	1	9
649.270	1	9
649.610	1	18
649.949	1	1
650.288	1	-2
650.627	1	-2
650.966	1	-6
651.305	1	-1
651.644	1	-6
651.983	1	11
652.322	1	11
652.661	1	9
653.000	1	-10
653.339	1	7
653.678	1	0
654.017	1	-3
654.356	1	-3
654.695	1	3
655.034	1	1
655.373	1	8
655.712	1	-5
656.051	1	14
656.390	1	4
656.729	1	5
657.068	1	4
657.406	1	4
657.745	1	-1
658.084	1	9
658.423	1	-6
658.762	1	0
659.101	1	3
659.440	1	8
659.779	1	-10
660.118	1	4
660.457	1	1
660.796	1	-7
661.135	1	6
661.474	1	2
661.813	1	0
662.152	1	2
662.491	1	-2
662.829	1	-11
663.168	1	-5
663.507	1	2
663.846	1	18
664.185	1	9
664.524	1	-5
664.863	1	5
665.202	1	-7
665.541	1	3
665.879	1	5
666.218	1	-7
666.557	1	0
666.896	1	-4
667.235	1	10
667.574	1	8
667.913	1	1
668.251	1	7
668.590	1	5
668.929	1	-2
669.268	1	0
669.607	1	-10
669.946	1	8
670.285	1	5
670.623	1	5
670.962	1	1
671.301	1	1
671.640	1	-19
671.979	1	16
672.317	1	-4
672.656	1	4
672.995	1	1
673.334	1	0
673.673	1	20
674.011	1	8
674.350	1	-10
674.689	1	-2
675.028	1	3
675.367	1	6
675.705	1	-11
676.044	1	-9
676.383	1	0
676.722	1	-2
677.060	1	7
677.399	1	4
677.738	1	-6
678.077	1	-2
678.416	1	5
678.754	1	-3
679.093	1	4
679.432	1	-6
679.771	1	2
680.109	1	7
680.448	1	2
680.787	1	1
681.125	1	2
681.464	1	-5
681.803	1	-4
682.142	1	6
682.480	1	-1
682.819	1	5
683.158	1	7
683.496	1	-10
683.835	1	6
684.174	1	4
684.512	1	1
684.851	1	0
685.190	1	-1
685.529	1	-1
685.867	1	7
686.206	1	2
686.545	1	3
686.883	1	-4
687.222	1	-3
687.561	1	5
687.899	1	1
688.238	1	6
688.577	1	-4
688.746	1	2