File: Analysis/GaN_68K_200ms/GaN_sample E_spot4_UVVIS_68 K_200um_200 ms 2x2mm1_457.txt
340.368	1	3
340.710	1	-5
341.052	1	5
341.394	1	-6
341.737	1	1
342.079	1	-6
342.421	1	-6
342.763	1	8
343.105	1	1
343.447	1	6
343.789	1	-7
344.131	1	-12
344.473	1	-4
344.815	1	4
345.157	1	7
345.499	1	5
345.841	1	6
346.183	1	-5
346.526	1	4
346.868	1	1
347.210	1	0
347.552	1	-1
347.894	1	5
348.236	1	2
348.578	1	12
348.920	1	10
349.262	1	-1
349.604	1	-1
349.946	1	0
350.288	1	3
350.630	1	-11
350.972	1	-5
351.314	1	2
351.656	1	5
351.998	1	3
352.340	1	-7
352.682	1	-11
353.024	1	-6
353.366	1	8
353.708	1	7
354.050	1	14
354.392	1	8
354.734	1	3
355.076	1	6
355.418	1	-6
355.760	1	-3
356.102	1	-2
356.444	1	-5
356.785	1	4
357.127	1	4
357.469	1	0
357.811	1	19
358.153	1	6
358.495	1	8
358.837	1	-6
359.179	1	1
359.521	1	-2
359.863	1	-5
360.205	1	0
360.547	1	-8
360.889	1	9
361.231	1	7
361.572	1	2
361.914	1	-3
362.256	1	8
362.598	1	-1
362.940	1	5
363.282	1	7
363.624	1	-8
363.966	1	4
364.308	1	7
364.649	1	-6
364.991	1	3
365.333	1	8
365.675	1	3
366.017	1	6
366.359	1	8
366.701	1	-9
367.042	1	17
367.384	1	15
367.726	1	5
368.068	1	1
368.410	1	-6
368.752	1	-7
369.093	1	6
369.435	1	-9
369.777	1	-1
370.119	1	5
370.461	1	7
370.803	1	1
371.144	1	2
371.486	1	4
371.828	1	0
372.170	1	2
372.512	1	-3
372.853	1	4
373.195	1	-8
373.537	1	3
373.879	1	13
374.220	1	0
374.562	1	11
374.904	1	8
375.246	1	2
375.588	1	5
375.929	1	5
376.271	1	0
376.613	1	3
376.955	1	-11
377.296	1	-1
377.638	1	6
377.980	1	18
378.321	1	15
378.663	1	-6
379.005	1	6
379.347	1	1
379.688	1	-13
380.030	1	-9
380.372	1	1
380.714	1	-1
381.055	1	4
381.397	1	0
381.739	1	1
382.080	1	-8
382.422	1	17
382.764	1	-4
383.105	1	4
383.447	1	14
383.789	1	5
384.130	1	-5
384.472	1	-1
384.814	1	3
385.156	1	9
385.497	1	15
385.839	1	4
386.180	1	14
386.522	1	13
386.864	1	2
387.205	1	-2
387.547	1	-6
387.889	1	13
388.230	1	6
388.572	1	6
388.914	1	11
389.255	1	4
389.597	1	2
389.939	1	10
390.280	1	10
390.622	1	-5
390.963	1	5
391.305	1	7
391.647	1	3
391.988	1	7
392.330	1	13
392.671	1	12
393.013	1	3
393.355	1	13
393.696	1	-10
394.038	1	1
394.379	1	5
394.721	1	1
395.062	1	1
395.404	1	-1
395.746	1	-3
396.087	1	0
396.429	1	7
396.770	1	7
397.112	1	1
397.453	1	-2
397.795	1	10
398.136	1	11
398.478	1	-2
398.819	1	9
399.161	1	8
399.503	1	13
399.844	1	3
400.186	1	17
400.527	1	0
400.869	1	15
401.210	1	-8
401.552	1	22
401.893	1	9
402.235	1	13
402.576	1	6
402.918	1	-2
403.259	1	-5
403.601	1	-6
403.942	1	12
404.284	1	-1
404.625	1	5
404.967	1	0
405.308	1	7
405.649	1	10
405.991	1	16
406.332	1	-2
406.674	1	8
407.015	1	2
407.357	1	4
407.698	1	-8
408.040	1	6
408.381	1	-1
408.722	1	0
409.064	1	7
409.405	1	2
409.747	1	-5
410.088	1	10
410.430	1	18
410.771	1	11
411.112	1	5
411.454	1	12
411.795	1	9
412.137	1	17
412.478	1	14
412.819	1	-4
413.161	1	6
413.502	1	1
413.844	1	5
414.185	1	8
414.526	1	8
414.868	1	13
415.209	1	2
415.550	1	2
415.892	1	-2
416.233	1	3
416.575	1	9
416.916	1	-4
417.257	1	6
417.599	1	2
417.940	1	-4
418.281	1	9
418.623	1	-2
418.964	1	7
419.305	1	-2
419.647	1	4
419.988	1	-1
420.329	1	3
420.671	1	10
421.012	1	5
421.353	1	7
421.695	1	4
422.036	1	-4
422.377	1	-2
422.718	1	4
423.060	1	4
423.401	1	0
423.742	1	-5
424.084	1	4
424.425	1	1
424.766	1	4
425.107	1	3
425.449	1	8
425.790	1	5
426.131	1	1
426.472	1	-3
426.814	1	7
427.155	1	-1
427.496	1	8
427.837	1	-3
428.179	1	-8
428.520	1	4
428.861	1	6
429.202	1	8
429.544	1	-6
429.885	1	-3
430.226	1	1
430.567	1	11
430.909	1	-8
431.250	1	-8
431.591	1	14
431.932	1	8
432.273	1	1
432.615	1	-1
432.956	1	3
433.297	1	8
433.638	1	2
433.979	1	0
434.320	1	0
434.662	1	0
435.003	1	3
435.344	1	2
435.685	1	3
436.026	1	11
436.368	1	-3
436.709	1	-12
437.050	1	4
437.391	1	3
437.732	1	8
438.073	1	6
438.414	1	9
438.756	1	2
439.097	1	12
439.438	1	8
439.779	1	-1
440.120	1	-3
440.461	1	-8
440.802	1	12
441.143	1	7
441.485	1	-7
441.826	1	-4
442.167	1	9
442.508	1	-5
442.849	1	11
443.190	1	-15
443.531	1	8
443.872	1	4
444.213	1	-9
444.554	1	-5
444.895	1	-2
445.237	1	-3
445.578	1	-2
445.919	1	-2
446.260	1	2
446.601	1	-2
446.942	1	7
447.283	1	6
447.624	1	11
447.965	1	-2
448.306	1	4
448.647	1	9
448.988	1	-16
449.329	1	10
449.670	1	5
450.011	1	6
450.352	1	8
450.693	1	7
451.034	1	3
451.375	1	1
451.716	1	13
452.057	1	5
452.398	1	8
452.739	1	2
453.080	1	20
453.421	1	-2
453.762	1	5
454.103	1	-4
454.444	1	11
454.785	1	1
455.126	1	-6
455.467	1	12
455.808	1	-2
456.149	1	11
456.490	1	-7
456.831	1	7
457.172	1	-1
457.513	1	10
457.854	1	1
458.195	1	0
458.536	1	2
458.877	1	-3
459.218	1	4
459.559	1	-4
459.899	1	3
460.240	1	0
460.581	1	3
460.922	1	-3
461.263	1	7
461.604	1	-3
461.945	1	-2
462.286	1	12
462.627	1	5
462.968	1	-11
463.309	1	-5
463.649	1	-11
463.990	1	-1
464.331	1	-3
464.672	1	0
465.013	1	-5
465.354	1	6
465.695	1	5
466.036	1	10
466.376	1	-6
466.717	1	-5
467.058	1	12
467.399	1	3
467.740	1	0
468.081	1	3
468.422	1	2
468.762	1	-8
469.103	1	-7
469.444	1	-3
469.785	1	8
470.126	1	11
470.467	1	2
470.807	1	-1
471.148	1	3
471.489	1	0
471.830	1	8
472.171	1	3
472.511	1	14
472.852	1	-8
473.193	1	-1
473.534	1	0
473.875	1	7
474.215	1	2
474.556	1	-4
474.897	1	4
475.238	1	1
475.578	1	3
475.919	1	-10
476.260	1	2
476.601	1	0
476.942	1	0
477.282	1	-7
477.623	1	9
477.964	1	8
478.305	1	7
478.645	1	-5
478.986	1	-4
479.327	1	-9
479.667	1	3
480.008	1	5
480.349	1	2
480.690	1	2
481.030	1	1
481.371	1	7
481.712	1	1
482.053	1	6
482.393	1	-7
482.734	1	2
483.075	1	8
483.415	1	3
483.756	1	4
484.097	1	-10
484.437	1	-16
484.778	1	5
485.119	1	-1
485.459	1	7
485.800	1	-1
486.141	1	-5
486.481	1	8
486.822	1	8
487.163	1	2
487.503	1	-13
487.844	1	5
488.185	1	-13
488.525	1	1
488.866	1	14
489.207	1	12
489.547	1	-7
489.888	1	2
490.228	1	-6
490.569	1	1
490.910	1	-2
491.250	1	-3
491.591	1	-11
491.932	1	10
492.272	1	5
492.613	1	6
492.953	1	4
493.294	1	2
493.635	1	-5
493.975	1	-2
494.316	1	6
494.656	1	-4
494.997	1	-10
495.337	1	11
495.678	1	12
496.019	1	-10
496.359	1	0
496.700	1	2
497.040	1	-3
497.381	1	-18
497.721	1	7
498.062	1	1
498.403	1	4
498.743	1	0
499.084	1	-7
499.424	1	19
499.765	1	3
500.105	1	1
500.446	1	11
500.786	1	2
501.127	1	13
501.467	1	6
501.808	1	-7
502.148	1	-3
502.489	1	13
502.829	1	0
503.170	1	0
503.510	1	0
503.851	1	-13
504.191	1	10
504.532	1	-8
504.872	1	-5
505.213	1	4
505.553	1	15
505.894	1	10
506.234	1	4
506.575	1	3
506.915	1	-4
507.256	1	-7
507.596	1	4
507.936	1	2
508.277	1	-1
508.617	1	11
508.958	1	15
509.298	1	10
509.639	1	3
509.979	1	4
510.319	1	1
510.660	1	15
511.000	1	6
511.341	1	2
511.681	1	10
512.022	1	-4
512.362	1	1
512.702	1	-5
513.043	1	4
513.383	1	3
513.724	1	9
514.064	1	6
514.404	1	6
514.745	1	6
515.085	1	4
515.425	1	-6
515.766	1	12
516.106	1	-4
516.447	1	2
516.787	1	-4
517.127	1	2
517.468	1	5
517.808	1	3
518.148	1	2
518.489	1	6
518.829	1	-3
519.169	1	11
519.510	1	-6
519.850	1	1
520.190	1	-2
520.531	1	0
520.871	1	2
521.211	1	0
521.552	1	6
521.892	1	0
522.232	1	-4
522.573	1	5
522.913	1	6
523.253	1	8
523.593	1	-12
523.934	1	1
524.274	1	-3
524.614	1	-2
524.955	1	-2
525.295	1	8
525.635	1	11
525.975	1	-8
526.316	1	-6
526.656	1	13
526.996	1	5
527.337	1	-9
527.677	1	20
528.017	1	-4
528.357	1	10
528.698	1	6
529.038	1	-5
529.378	1	-6
529.718	1	1
530.058	1	3
530.399	1	2
530.739	1	-2
531.079	1	10
531.419	1	4
531.760	1	9
532.100	1	13
532.440	1	4
532.780	1	1
533.120	1	-9
533.461	1	11
533.801	1	1
534.141	1	4
534.481	1	6
534.821	1	4
535.162	1	9
535.502	1	2
535.842	1	0
536.182	1	3
536.522	1	6
536.862	1	8
537.203	1	8
537.543	1	13
537.883	1	4
538.223	1	10
538.563	1	4
538.903	1	-3
539.243	1	6
539.584	1	3
539.924	1	2
540.264	1	-2
540.604	1	11
540.944	1	-7
541.284	1	-2
541.624	1	6
541.964	1	12
542.305	1	-11
542.645	1	4
542.985	1	1
543.325	1	-3
543.665	1	11
544.005	1	-4
544.345	1	-2
544.685	1	12
545.025	1	5
545.365	1	4
545.705	1	10
546.045	1	6
546.386	1	9
546.726	1	-4
547.066	1	-6
547.406	1	12
547.746	1	3
548.086	1	12
548.426	1	-4
548.766	1	9
549.106	1	16
549.446	1	-2
549.786	1	13
550.126	1	-7
550.466	1	-3
550.806	1	5
551.146	1	1
551.486	1	8
551.826	1	-4
552.166	1	1
552.506	1	-4
552.846	1	11
553.186	1	-6
553.526	1	4
553.866	1	2
554.206	1	3
554.546	1	-12
554.886	1	7
555.226	1	-14
555.566	1	2
555.906	1	10
556.246	1	9
556.586	1	4
556.926	1	10
557.266	1	4
557.606	1	-3
557.946	1	8
558.286	1	10
558.626	1	3
558.966	1	-2
559.306	1	-6
559.646	1	3
559.986	1	-1
560.325	1	-6
560.665	1	10
561.005	1	10
561.345	1	3
561.685	1	0
562.025	1	2
562.365	1	1
562.705	1	3
563.045	1	8
563.385	1	-4
563.725	1	-1
564.064	1	12
564.404	1	3
564.744	1	11
565.084	1	-12
565.424	1	8
565.764	1	12
566.104	1	9
566.444	1	12
566.783	1	1
567.123	1	25
567.463	1	2
567.803	1	-7
568.143	1	-5
568.483	1	2
568.823	1	9
569.162	1	14
569.502	1	8
569.842	1	-7
570.182	1	-8
570.522	1	10
570.862	1	5
571.201	1	4
571.541	1	-8
571.881	1	3
572.221	1	7
572.561	1	-5
572.900	1	13
573.240	1	-2
573.580	1	-1
573.920	1	-2
574.260	1	-4
574.599	1	-6
574.939	1	6
575.279	1	12
575.619	1	6
575.959	1	-3
576.298	1	-4
576.638	1	-7
576.978	1	1
577.318	1	10
577.657	1	-13
577.997	1	-6
578.337	1	1
578.677	1	5
579.016	1	11
579.356	1	-1
579.696	1	-1
580.036	1	-8
580.375	1	3
580.715	1	10
581.055	1	11
581.394	1	1
581.734	1	7
582.074	1	-4
582.414	1	1
582.753	1	10
583.093	1	-2
583.433	1	-9
583.772	1	-4
584.112	1	11
584.452	1	0
584.791	1	11
585.131	1	-4
585.471	1	5
585.811	1	-2
586.150	1	3
586.490	1	-4
586.830	1	-6
587.169	1	6
587.509	1	0
587.849	1	6
588.188	1	2
588.528	1	-3
588.867	1	10
589.207	1	1
589.547	1	5
589.886	1	-4
590.226	1	5
590.566	1	1
590.905	1	3
591.245	1	3
591.585	1	-5
591.924	1	-6
592.264	1	-4
592.603	1	-2
592.943	1	-7
593.283	1	7
593.622	1	-5
593.962	1	3
594.301	1	8
594.641	1	-8
594.981	1	-2
595.320	1	8
595.660	1	-6
595.999	1	2
596.339	1	-4
596.678	1	1
597.018	1	3
597.358	1	-1
597.697	1	-3
598.037	1	-2
598.376	1	3
598.716	1	-1
599.055	1	1
599.395	1	8
599.734	1	-6
600.074	1	1
600.413	1	-4
600.753	1	11
601.092	1	-3
601.432	1	-6
601.771	1	5
602.111	1	-7
602.451	1	3
602.790	1	0
603.130	1	4
603.469	1	-2
603.809	1	10
604.148	1	1
604.487	1	0
604.827	1	-9
605.166	1	-12
605.506	1	8
605.845	1	5
606.185	1	-3
606.524	1	-1
606.864	1	-2
607.203	1	5
607.543	1	2
607.882	1	-11
608.222	1	3
608.561	1	6
608.901	1	2
609.240	1	2
609.579	1	0
609.919	1	-8
610.258	1	4
610.598	1	1
610.937	1	-7
611.277	1	3
611.616	1	-9
611.955	1	5
612.295	1	-6
612.634	1	-1
612.974	1	0
613.313	1	6
613.652	1	-7
613.992	1	5
614.331	1	4
614.671	1	-2
615.010	1	6
615.349	1	2
615.689	1	8
616.028	1	-11
616.368	1	-2
616.707	1	-2
617.046	1	0
617.386	1	3
617.725	1	6
618.064	1	15
618.404	1	9
618.743	1	4
619.082	1	-3
619.422	1	-2
619.761	1	7
620.100	1	1
620.440	1	7
620.779	1	-2
621.118	1	2
621.458	1	3
621.797	1	12
622.136	1	0
622.476	1	-3
622.815	1	3
623.154	1	2
623.494	1	1
623.833	1	-6
624.172	1	1
624.511	1	-2
624.851	1	-1
625.190	1	3
625.529	1	5
625.869	1	5
626.208	1	-5
626.547	1	8
626.886	1	-1
627.226	1	-3
627.565	1	1
627.904	1	4
628.243	1	-9
628.583	1	1
628.922	1	-3
629.261	1	6
629.600	1	5
629.940	1	-2
630.279	1	-1
630.618	1	-1
630.957	1	0
631.297	1	-8
631.636	1	3
631.975	1	11
632.314	1	11
632.653	1	-5
632.993	1	12
633.332	1	2
633.671	1	2
634.010	1	0
634.349	1	5
634.689	1	10
635.028	1	1
635.367	1	-8
635.706	1	0
636.045	1	-3
636.384	1	11
636.724	1	-1
637.063	1	-3
637.402	1	5
637.741	1	12
638.080	1	-2
638.419	1	3
638.759	1	7
639.098	1	3
639.437	1	-11
639.776	1	-5
640.115	1	-3
640.454	1	11
640.793	1	17
641.132	1	2
641.472	1	-4
641.811	1	-4
642.150	1	0
642.489	1	3
642.828	1	3
643.167	1	15
643.506	1	-5
643.845	1	3
644.184	1	6
644.524	1	-5
644.863	1	0
645.202	1	3
645.541	1	-8
645.880	1	2
646.219	1	9
646.558	1	-1
646.897	1	-5
647.236	1	5
647.575	1	7
647.914	1	-7
648.253	1	0
648.592	1	1
648.931	1	-1
649.270	1	10
649.610	1	19
649.949	1	-4
650.288	1	3
650.627	1	4
650.966	1	-3
651.305	1	-7
651.644	1	-1
651.983	1	8
652.322	1	11
652.661	1	4
653.000	1	3
653.339	1	7
653.678	1	0
654.017	1	5
654.356	1	8
654.695	1	1
655.034	1	2
655.373	1	1
655.712	1	0
656.051	1	13
656.390	1	-2
656.729	1	7
657.068	1	0
657.406	1	6
657.745	1	-8
658.084	1	-1
658.423	1	-3
658.762	1	-10
659.101	1	-2
659.440	1	10
659.779	1	-3
660.118	1	1
660.457	1	-6
660.796	1	1
661.135	1	-1
661.474	1	-7
661.813	1	-1
662.152	1	7
662.491	1	-2
662.829	1	-6
663.168	1	-1
663.507	1	13
663.846	1	11
664.185	1	0
664.524	1	-5
664.863	1	2
665.202	1	-15
665.541	1	-3
665.879	1	4
666.218	1	-10
666.557	1	4
666.896	1	-3
667.235	1	6
667.574	1	1
667.913	1	1
668.251	1	-4
668.590	1	-7
668.929	1	5
669.268	1	1
669.607	1	-7
669.946	1	0
670.285	1	3
670.623	1	-5
670.962	1	7
671.301	1	2
671.640	1	-17
671.979	1	20
672.317	1	-3
672.656	1	4
672.995	1	3
673.334	1	6
673.673	1	13
674.011	1	10
674.350	1	-1
674.689	1	-5
675.028	1	-1
675.367	1	5
675.705	1	-8
676.044	1	0
676.383	1	-7
676.722	1	11
677.060	1	3
677.399	1	-5
677.738	1	3
678.077	1	3
678.416	1	3
678.754	1	4
679.093	1	7
679.432	1	-8
679.771	1	2
680.109	1	11
680.448	1	5
680.787	1	5
681.125	1	3
681.464	1	4
681.803	1	-9
682.142	1	12
682.480	1	-4
682.819	1	-2
683.158	1	4
683.496	1	-1
683.835	1	11
684.174	1	-3
684.512	1	0
684.851	1	7
685.190	1	3
685.529	1	-1
685.867	1	-3
686.206	1	3
686.545	1	6
686.883	1	-5
687.222	1	-2
687.561	1	7
687.899	1	1
688.238	1	5
688.577	1	-3
688.746	1	11