File: Analysis/GaN_68K_200ms/GaN_sample E_spot4_UVVIS_68 K_200um_200 ms 2x2mm1_78.txt
340.368	1	2
340.710	1	-14
341.052	1	-7
341.394	1	4
341.737	1	12
342.079	1	-8
342.421	1	-3
342.763	1	1
343.105	1	10
343.447	1	8
343.789	1	-5
344.131	1	1
344.473	1	6
344.815	1	6
345.157	1	2
345.499	1	5
345.841	1	7
346.183	1	0
346.526	1	9
346.868	1	2
347.210	1	-2
347.552	1	8
347.894	1	2
348.236	1	0
348.578	1	0
348.920	1	3
349.262	1	4
349.604	1	8
349.946	1	13
350.288	1	2
350.630	1	-11
350.972	1	-1
351.314	1	-4
351.656	1	-7
351.998	1	-1
352.340	1	3
352.682	1	-1
353.024	1	-3
353.366	1	4
353.708	1	4
354.050	1	6
354.392	1	4
354.734	1	-3
355.076	1	-3
355.418	1	-17
355.760	1	14
356.102	1	-5
356.444	1	6
356.785	1	17
357.127	1	7
357.469	1	3
357.811	1	11
358.153	1	3
358.495	1	7
358.837	1	0
359.179	1	-4
359.521	1	3
359.863	1	-5
360.205	1	0
360.547	1	1
360.889	1	1
361.231	1	4
361.572	1	-3
361.914	1	1
362.256	1	-2
362.598	1	2
362.940	1	0
363.282	1	10
363.624	1	12
363.966	1	1
364.308	1	0
364.649	1	0
364.991	1	5
365.333	1	1
365.675	1	10
366.017	1	2
366.359	1	10
366.701	1	-3
367.042	1	2
367.384	1	2
367.726	1	11
368.068	1	0
368.410	1	-1
368.752	1	-9
369.093	1	-3
369.435	1	-7
369.777	1	-3
370.119	1	9
370.461	1	7
370.803	1	1
371.144	1	8
371.486	1	11
371.828	1	-3
372.170	1	16
372.512	1	-6
372.853	1	1
373.195	1	1
373.537	1	2
373.879	1	4
374.220	1	-5
374.562	1	8
374.904	1	7
375.246	1	-6
375.588	1	-2
375.929	1	5
376.271	1	-5
376.613	1	12
376.955	1	-3
377.296	1	3
377.638	1	2
377.980	1	15
378.321	1	5
378.663	1	-13
379.005	1	4
379.347	1	0
379.688	1	-7
380.030	1	-4
380.372	1	8
380.714	1	6
381.055	1	3
381.397	1	-1
381.739	1	10
382.080	1	-8
382.422	1	13
382.764	1	0
383.105	1	3
383.447	1	11
383.789	1	6
384.130	1	0
384.472	1	-4
384.814	1	4
385.156	1	3
385.497	1	7
385.839	1	7
386.180	1	-8
386.522	1	-3
386.864	1	0
387.205	1	-3
387.547	1	5
387.889	1	5
388.230	1	-10
388.572	1	9
388.914	1	15
389.255	1	5
389.597	1	-11
389.939	1	3
390.280	1	14
390.622	1	-3
390.963	1	17
391.305	1	8
391.647	1	2
391.988	1	-7
392.330	1	12
392.671	1	2
393.013	1	3
393.355	1	11
393.696	1	-3
394.038	1	-11
394.379	1	-5
394.721	1	3
395.062	1	-6
395.404	1	10
395.746	1	1
396.087	1	-7
396.429	1	-3
396.770	1	7
397.112	1	-4
397.453	1	-4
397.795	1	10
398.136	1	0
398.478	1	1
398.819	1	14
399.161	1	6
399.503	1	-3
399.844	1	-5
400.186	1	0
400.527	1	4
400.869	1	9
401.210	1	-7
401.552	1	19
401.893	1	5
402.235	1	11
402.576	1	13
402.918	1	1
403.259	1	-9
403.601	1	-4
403.942	1	1
404.284	1	0
404.625	1	1
404.967	1	6
405.308	1	5
405.649	1	4
405.991	1	7
406.332	1	-7
406.674	1	2
407.015	1	-7
407.357	1	-1
407.698	1	-7
408.040	1	-12
408.381	1	7
408.722	1	1
409.064	1	4
409.405	1	3
409.747	1	-2
410.088	1	3
410.430	1	14
410.771	1	4
411.112	1	6
411.454	1	13
411.795	1	0
412.137	1	6
412.478	1	4
412.819	1	-4
413.161	1	-6
413.502	1	2
413.844	1	-5
414.185	1	4
414.526	1	3
414.868	1	11
415.209	1	4
415.550	1	-7
415.892	1	1
416.233	1	0
416.575	1	-9
416.916	1	0
417.257	1	9
417.599	1	6
417.940	1	1
418.281	1	2
418.623	1	-9
418.964	1	3
419.305	1	6
419.647	1	5
419.988	1	-1
420.329	1	-5
420.671	1	-5
421.012	1	6
421.353	1	15
421.695	1	6
422.036	1	-3
422.377	1	1
422.718	1	5
423.060	1	0
423.401	1	1
423.742	1	-9
424.084	1	5
424.425	1	-6
424.766	1	0
425.107	1	-4
425.449	1	-3
425.790	1	-6
426.131	1	2
426.472	1	-4
426.814	1	9
427.155	1	0
427.496	1	4
427.837	1	-8
428.179	1	-2
428.520	1	-7
428.861	1	-4
429.202	1	7
429.544	1	2
429.885	1	-6
430.226	1	0
430.567	1	18
430.909	1	0
431.250	1	-13
431.591	1	4
431.932	1	10
432.273	1	0
432.615	1	12
432.956	1	2
433.297	1	15
433.638	1	8
433.979	1	-9
434.320	1	6
434.662	1	-5
435.003	1	9
435.344	1	6
435.685	1	8
436.026	1	7
436.368	1	-7
436.709	1	2
437.050	1	7
437.391	1	14
437.732	1	1
438.073	1	14
438.414	1	-1
438.756	1	0
439.097	1	-2
439.438	1	6
439.779	1	-14
440.120	1	-5
440.461	1	-14
440.802	1	12
441.143	1	2
441.485	1	-5
441.826	1	-6
442.167	1	3
442.508	1	2
442.849	1	12
443.190	1	-6
443.531	1	-2
443.872	1	-7
444.213	1	1
444.554	1	1
444.895	1	-3
445.237	1	-3
445.578	1	4
445.919	1	-2
446.260	1	14
446.601	1	-3
446.942	1	0
447.283	1	2
447.624	1	1
447.965	1	-4
448.306	1	-3
448.647	1	16
448.988	1	-16
449.329	1	-1
449.670	1	1
450.011	1	6
450.352	1	2
450.693	1	2
451.034	1	4
451.375	1	12
451.716	1	10
452.057	1	13
452.398	1	12
452.739	1	8
453.080	1	12
453.421	1	2
453.762	1	13
454.103	1	-1
454.444	1	17
454.785	1	-5
455.126	1	-4
455.467	1	5
455.808	1	-9
456.149	1	-4
456.490	1	2
456.831	1	10
457.172	1	-6
457.513	1	17
457.854	1	3
458.195	1	-5
458.536	1	4
458.877	1	2
459.218	1	3
459.559	1	3
459.899	1	7
460.240	1	8
460.581	1	4
460.922	1	-2
461.263	1	8
461.604	1	-3
461.945	1	12
462.286	1	13
462.627	1	-1
462.968	1	-7
463.309	1	-2
463.649	1	4
463.990	1	5
464.331	1	2
464.672	1	4
465.013	1	-8
465.354	1	1
465.695	1	10
466.036	1	3
466.376	1	5
466.717	1	-1
467.058	1	13
467.399	1	3
467.740	1	-8
468.081	1	1
468.422	1	12
468.762	1	-4
469.103	1	-2
469.444	1	3
469.785	1	6
470.126	1	12
470.467	1	1
470.807	1	3
471.148	1	-6
471.489	1	-2
471.830	1	18
472.171	1	2
472.511	1	19
472.852	1	-1
473.193	1	5
473.534	1	0
473.875	1	12
474.215	1	4
474.556	1	-11
474.897	1	6
475.238	1	4
475.578	1	7
475.919	1	1
476.260	1	-8
476.601	1	10
476.942	1	2
477.282	1	-1
477.623	1	7
477.964	1	9
478.305	1	4
478.645	1	-4
478.986	1	3
479.327	1	5
479.667	1	5
480.008	1	0
480.349	1	-2
480.690	1	3
481.030	1	-10
481.371	1	12
481.712	1	10
482.053	1	8
482.393	1	-12
482.734	1	0
483.075	1	13
483.415	1	7
483.756	1	16
484.097	1	5
484.437	1	-8
484.778	1	1
485.119	1	11
485.459	1	11
485.800	1	2
486.141	1	-16
486.481	1	-1
486.822	1	2
487.163	1	-3
487.503	1	-9
487.844	1	3
488.185	1	-9
488.525	1	1
488.866	1	7
489.207	1	12
489.547	1	-1
489.888	1	0
490.228	1	-14
490.569	1	5
490.910	1	-3
491.250	1	7
491.591	1	4
491.932	1	10
492.272	1	7
492.613	1	3
492.953	1	7
493.294	1	4
493.635	1	-5
493.975	1	2
494.316	1	5
494.656	1	0
494.997	1	-4
495.337	1	9
495.678	1	6
496.019	1	-1
496.359	1	3
496.700	1	-8
497.040	1	6
497.381	1	-15
497.721	1	-8
498.062	1	-1
498.403	1	11
498.743	1	9
499.084	1	-10
499.424	1	4
499.765	1	-2
500.105	1	5
500.446	1	3
500.786	1	1
501.127	1	9
501.467	1	0
501.808	1	-7
502.148	1	5
502.489	1	2
502.829	1	4
503.170	1	0
503.510	1	4
503.851	1	-18
504.191	1	5
504.532	1	-7
504.872	1	-3
505.213	1	6
505.553	1	7
505.894	1	12
506.234	1	12
506.575	1	4
506.915	1	-1
507.256	1	-12
507.596	1	6
507.936	1	8
508.277	1	-3
508.617	1	16
508.958	1	14
509.298	1	12
509.639	1	9
509.979	1	-2
510.319	1	-5
510.660	1	1
511.000	1	-2
511.341	1	-8
511.681	1	-2
512.022	1	-2
512.362	1	3
512.702	1	-6
513.043	1	-3
513.383	1	-4
513.724	1	11
514.064	1	3
514.404	1	-2
514.745	1	4
515.085	1	-3
515.425	1	-4
515.766	1	3
516.106	1	-2
516.447	1	-2
516.787	1	3
517.127	1	9
517.468	1	2
517.808	1	-12
518.148	1	4
518.489	1	0
518.829	1	-2
519.169	1	12
519.510	1	2
519.850	1	-1
520.190	1	2
520.531	1	-5
520.871	1	-4
521.211	1	3
521.552	1	-1
521.892	1	-3
522.232	1	-6
522.573	1	11
522.913	1	5
523.253	1	2
523.593	1	-16
523.934	1	4
524.274	1	-5
524.614	1	1
524.955	1	-1
525.295	1	-2
525.635	1	5
525.975	1	-6
526.316	1	4
526.656	1	17
526.996	1	12
527.337	1	1
527.677	1	6
528.017	1	-11
528.357	1	6
528.698	1	-8
529.038	1	7
529.378	1	6
529.718	1	-2
530.058	1	4
530.399	1	10
530.739	1	-6
531.079	1	-2
531.419	1	2
531.760	1	13
532.100	1	8
532.440	1	1
532.780	1	-3
533.120	1	-4
533.461	1	8
533.801	1	-1
534.141	1	12
534.481	1	2
534.821	1	-4
535.162	1	1
535.502	1	7
535.842	1	-1
536.182	1	-1
536.522	1	4
536.862	1	0
537.203	1	11
537.543	1	-1
537.883	1	2
538.223	1	10
538.563	1	-6
538.903	1	1
539.243	1	2
539.584	1	4
539.924	1	6
540.264	1	2
540.604	1	9
540.944	1	5
541.284	1	-1
541.624	1	-7
541.964	1	0
542.305	1	-4
542.645	1	-3
542.985	1	0
543.325	1	-7
543.665	1	9
544.005	1	5
544.345	1	-10
544.685	1	7
545.025	1	-2
545.365	1	1
545.705	1	5
546.045	1	12
546.386	1	9
546.726	1	3
547.066	1	-3
547.406	1	6
547.746	1	4
548.086	1	9
548.426	1	5
548.766	1	13
549.106	1	3
549.446	1	4
549.786	1	4
550.126	1	0
550.466	1	1
550.806	1	9
551.146	1	-7
551.486	1	1
551.826	1	2
552.166	1	9
552.506	1	-8
552.846	1	8
553.186	1	-1
553.526	1	-14
553.866	1	8
554.206	1	1
554.546	1	-5
554.886	1	3
555.226	1	-3
555.566	1	8
555.906	1	-4
556.246	1	-5
556.586	1	10
556.926	1	8
557.266	1	6
557.606	1	-6
557.946	1	4
558.286	1	7
558.626	1	2
558.966	1	-1
559.306	1	1
559.646	1	-6
559.986	1	-5
560.325	1	-8
560.665	1	9
561.005	1	0
561.345	1	3
561.685	1	-4
562.025	1	-9
562.365	1	0
562.705	1	5
563.045	1	4
563.385	1	-1
563.725	1	1
564.064	1	4
564.404	1	6
564.744	1	5
565.084	1	-4
565.424	1	-5
565.764	1	8
566.104	1	1
566.444	1	10
566.783	1	0
567.123	1	21
567.463	1	5
567.803	1	-11
568.143	1	-6
568.483	1	-5
568.823	1	14
569.162	1	10
569.502	1	4
569.842	1	-7
570.182	1	-5
570.522	1	-2
570.862	1	4
571.201	1	4
571.541	1	-7
571.881	1	6
572.221	1	9
572.561	1	-2
572.900	1	18
573.240	1	-4
573.580	1	1
573.920	1	-2
574.260	1	-1
574.599	1	3
574.939	1	2
575.279	1	4
575.619	1	4
575.959	1	-2
576.298	1	-4
576.638	1	3
576.978	1	2
577.318	1	-1
577.657	1	-16
577.997	1	-6
578.337	1	4
578.677	1	2
579.016	1	19
579.356	1	-5
579.696	1	11
580.036	1	1
580.375	1	-1
580.715	1	14
581.055	1	11
581.394	1	-4
581.734	1	9
582.074	1	4
582.414	1	3
582.753	1	14
583.093	1	-6
583.433	1	-10
583.772	1	0
584.112	1	12
584.452	1	3
584.791	1	0
585.131	1	-6
585.471	1	2
585.811	1	-3
586.150	1	0
586.490	1	-3
586.830	1	-9
587.169	1	0
587.509	1	4
587.849	1	9
588.188	1	-3
588.528	1	2
588.867	1	1
589.207	1	-3
589.547	1	-1
589.886	1	0
590.226	1	4
590.566	1	2
590.905	1	11
591.245	1	-4
591.585	1	1
591.924	1	-2
592.264	1	-4
592.603	1	0
592.943	1	0
593.283	1	9
593.622	1	-1
593.962	1	1
594.301	1	25
594.641	1	0
594.981	1	0
595.320	1	9
595.660	1	-1
595.999	1	0
596.339	1	3
596.678	1	-5
597.018	1	-2
597.358	1	11
597.697	1	-3
598.037	1	-2
598.376	1	4
598.716	1	1
599.055	1	0
599.395	1	10
599.734	1	2
600.074	1	-6
600.413	1	-5
600.753	1	10
601.092	1	-7
601.432	1	-1
601.771	1	-1
602.111	1	0
602.451	1	4
602.790	1	6
603.130	1	2
603.469	1	3
603.809	1	4
604.148	1	4
604.487	1	4
604.827	1	-12
605.166	1	0
605.506	1	11
605.845	1	0
606.185	1	4
606.524	1	-9
606.864	1	2
607.203	1	7
607.543	1	-7
607.882	1	-3
608.222	1	5
608.561	1	3
608.901	1	13
609.240	1	-1
609.579	1	10
609.919	1	-7
610.258	1	9
610.598	1	8
610.937	1	4
611.277	1	10
611.616	1	-4
611.955	1	-2
612.295	1	-3
612.634	1	-3
612.974	1	1
613.313	1	8
613.652	1	-1
613.992	1	-1
614.331	1	8
614.671	1	2
615.010	1	-2
615.349	1	0
615.689	1	5
616.028	1	3
616.368	1	1
616.707	1	-5
617.046	1	-1
617.386	1	-2
617.725	1	12
618.064	1	10
618.404	1	7
618.743	1	3
619.082	1	8
619.422	1	5
619.761	1	8
620.100	1	4
620.440	1	4
620.779	1	-3
621.118	1	-8
621.458	1	6
621.797	1	2
622.136	1	3
622.476	1	7
622.815	1	3
623.154	1	-4
623.494	1	4
623.833	1	6
624.172	1	6
624.511	1	4
624.851	1	-7
625.190	1	0
625.529	1	-1
625.869	1	-1
626.208	1	7
626.547	1	2
626.886	1	-7
627.226	1	8
627.565	1	10
627.904	1	5
628.243	1	-6
628.583	1	14
628.922	1	0
629.261	1	3
629.600	1	10
629.940	1	8
630.279	1	-9
630.618	1	0
630.957	1	4
631.297	1	-11
631.636	1	2
631.975	1	4
632.314	1	12
632.653	1	-9
632.993	1	9
633.332	1	3
633.671	1	9
634.010	1	2
634.349	1	0
634.689	1	9
635.028	1	5
635.367	1	-2
635.706	1	-3
636.045	1	12
636.384	1	7
636.724	1	2
637.063	1	5
637.402	1	11
637.741	1	9
638.080	1	-3
638.419	1	4
638.759	1	4
639.098	1	11
639.437	1	-9
639.776	1	6
640.115	1	-2
640.454	1	7
640.793	1	12
641.132	1	12
641.472	1	-5
641.811	1	5
642.150	1	-5
642.489	1	5
642.828	1	10
643.167	1	6
643.506	1	-8
643.845	1	2
644.184	1	6
644.524	1	-4
644.863	1	-5
645.202	1	7
645.541	1	-15
645.880	1	-1
646.219	1	0
646.558	1	4
646.897	1	-1
647.236	1	15
647.575	1	-4
647.914	1	2
648.253	1	10
648.592	1	0
648.931	1	2
649.270	1	15
649.610	1	8
649.949	1	1
650.288	1	1
650.627	1	7
650.966	1	4
651.305	1	-10
651.644	1	-1
651.983	1	-1
652.322	1	2
652.661	1	5
653.000	1	-4
653.339	1	8
653.678	1	4
654.017	1	-5
654.356	1	8
654.695	1	8
655.034	1	6
655.373	1	-12
655.712	1	-8
656.051	1	11
656.390	1	2
656.729	1	1
657.068	1	3
657.406	1	-1
657.745	1	2
658.084	1	1
658.423	1	1
658.762	1	-5
659.101	1	3
659.440	1	8
659.779	1	-2
660.118	1	5
660.457	1	-3
660.796	1	9
661.135	1	-2
661.474	1	0
661.813	1	2
662.152	1	3
662.491	1	5
662.829	1	-1
663.168	1	-3
663.507	1	2
663.846	1	6
664.185	1	4
664.524	1	-8
664.863	1	2
665.202	1	-11
665.541	1	3
665.879	1	-1
666.218	1	-9
666.557	1	1
666.896	1	-11
667.235	1	-4
667.574	1	4
667.913	1	2
668.251	1	10
668.590	1	4
668.929	1	3
669.268	1	-2
669.607	1	0
669.946	1	4
670.285	1	-1
670.623	1	8
670.962	1	-3
671.301	1	6
671.640	1	-10
671.979	1	8
672.317	1	3
672.656	1	2
672.995	1	6
673.334	1	11
673.673	1	13
674.011	1	8
674.350	1	1
674.689	1	0
675.028	1	18
675.367	1	-3
675.705	1	-8
676.044	1	-6
676.383	1	8
676.722	1	7
677.060	1	4
677.399	1	-6
677.738	1	-1
678.077	1	5
678.416	1	-1
678.754	1	2
679.093	1	9
679.432	1	-4
679.771	1	-2
680.109	1	9
680.448	1	3
680.787	1	-3
681.125	1	-2
681.464	1	4
681.803	1	-10
682.142	1	8
682.480	1	3
682.819	1	-1
683.158	1	-3
683.496	1	-4
683.835	1	5
684.174	1	4
684.512	1	-5
684.851	1	2
685.190	1	4
685.529	1	2
685.867	1	2
686.206	1	8
686.545	1	9
686.883	1	-8
687.222	1	1
687.561	1	4
687.899	1	-5
688.238	1	1
688.577	1	-15
688.746	1	5