File: Analysis/GaN_68K_200ms/GaN_sample E_spot4_UVVIS_68 K_200um_200 ms 2x2mm1_126.txt
340.368	1	5
340.710	1	-5
341.052	1	3
341.394	1	0
341.737	1	12
342.079	1	0
342.421	1	-1
342.763	1	4
343.105	1	15
343.447	1	11
343.789	1	2
344.131	1	9
344.473	1	5
344.815	1	11
345.157	1	7
345.499	1	15
345.841	1	3
346.183	1	-1
346.526	1	12
346.868	1	-2
347.210	1	8
347.552	1	5
347.894	1	14
348.236	1	6
348.578	1	15
348.920	1	17
349.262	1	6
349.604	1	18
349.946	1	9
350.288	1	10
350.630	1	-1
350.972	1	13
351.314	1	-1
351.656	1	14
351.998	1	3
352.340	1	8
352.682	1	8
353.024	1	4
353.366	1	12
353.708	1	10
354.050	1	19
354.392	1	15
354.734	1	5
355.076	1	14
355.418	1	9
355.760	1	9
356.102	1	4
356.444	1	23
356.785	1	23
357.127	1	16
357.469	1	18
357.811	1	28
358.153	1	20
358.495	1	29
358.837	1	27
359.179	1	31
359.521	1	30
359.863	1	24
360.205	1	34
360.547	1	39
360.889	1	55
361.231	1	49
361.572	1	58
361.914	1	68
362.256	1	81
362.598	1	83
362.940	1	86
363.282	1	109
363.624	1	118
363.966	1	144
364.308	1	149
364.649	1	182
364.991	1	202
365.333	1	223
365.675	1	224
366.017	1	245
366.359	1	240
366.701	1	264
367.042	1	261
367.384	1	265
367.726	1	258
368.068	1	244
368.410	1	224
368.752	1	218
369.093	1	215
369.435	1	202
369.777	1	187
370.119	1	182
370.461	1	158
370.803	1	148
371.144	1	143
371.486	1	142
371.828	1	131
372.170	1	135
372.512	1	118
372.853	1	120
373.195	1	101
373.537	1	109
373.879	1	99
374.220	1	111
374.562	1	99
374.904	1	99
375.246	1	83
375.588	1	84
375.929	1	72
376.271	1	68
376.613	1	66
376.955	1	59
377.296	1	68
377.638	1	73
377.980	1	65
378.321	1	61
378.663	1	49
379.005	1	77
379.347	1	66
379.688	1	63
380.030	1	59
380.372	1	85
380.714	1	83
381.055	1	85
381.397	1	83
381.739	1	109
382.080	1	91
382.422	1	125
382.764	1	122
383.105	1	149
383.447	1	175
383.789	1	199
384.130	1	207
384.472	1	221
384.814	1	257
385.156	1	274
385.497	1	294
385.839	1	310
386.180	1	320
386.522	1	329
386.864	1	341
387.205	1	334
387.547	1	339
387.889	1	359
388.230	1	336
388.572	1	354
388.914	1	325
389.255	1	323
389.597	1	313
389.939	1	325
390.280	1	330
390.622	1	318
390.963	1	307
391.305	1	310
391.647	1	308
391.988	1	301
392.330	1	299
392.671	1	291
393.013	1	281
393.355	1	293
393.696	1	273
394.038	1	256
394.379	1	249
394.721	1	275
395.062	1	252
395.404	1	272
395.746	1	275
396.087	1	289
396.429	1	282
396.770	1	298
397.112	1	310
397.453	1	295
397.795	1	316
398.136	1	313
398.478	1	309
398.819	1	325
399.161	1	310
399.503	1	306
399.844	1	273
400.186	1	288
400.527	1	264
400.869	1	259
401.210	1	241
401.552	1	266
401.893	1	240
402.235	1	238
402.576	1	223
402.918	1	205
403.259	1	198
403.601	1	202
403.942	1	212
404.284	1	203
404.625	1	201
404.967	1	204
405.308	1	191
405.649	1	196
405.991	1	197
406.332	1	188
406.674	1	197
407.015	1	173
407.357	1	189
407.698	1	186
408.040	1	190
408.381	1	183
408.722	1	181
409.064	1	171
409.405	1	172
409.747	1	177
410.088	1	185
410.430	1	185
410.771	1	166
411.112	1	153
411.454	1	166
411.795	1	156
412.137	1	152
412.478	1	142
412.819	1	135
413.161	1	136
413.502	1	139
413.844	1	125
414.185	1	135
414.526	1	134
414.868	1	137
415.209	1	114
415.550	1	110
415.892	1	117
416.233	1	112
416.575	1	103
416.916	1	111
417.257	1	119
417.599	1	110
417.940	1	101
418.281	1	105
418.623	1	103
418.964	1	109
419.305	1	103
419.647	1	109
419.988	1	97
420.329	1	97
420.671	1	104
421.012	1	108
421.353	1	88
421.695	1	95
422.036	1	77
422.377	1	93
422.718	1	84
423.060	1	83
423.401	1	78
423.742	1	82
424.084	1	86
424.425	1	82
424.766	1	78
425.107	1	76
425.449	1	89
425.790	1	67
426.131	1	72
426.472	1	71
426.814	1	76
427.155	1	62
427.496	1	81
427.837	1	73
428.179	1	61
428.520	1	62
428.861	1	50
429.202	1	77
429.544	1	71
429.885	1	56
430.226	1	52
430.567	1	62
430.909	1	44
431.250	1	46
431.591	1	62
431.932	1	57
432.273	1	46
432.615	1	60
432.956	1	53
433.297	1	49
433.638	1	45
433.979	1	52
434.320	1	46
434.662	1	46
435.003	1	41
435.344	1	51
435.685	1	55
436.026	1	53
436.368	1	45
436.709	1	34
437.050	1	41
437.391	1	48
437.732	1	47
438.073	1	54
438.414	1	52
438.756	1	47
439.097	1	51
439.438	1	60
439.779	1	38
440.120	1	47
440.461	1	39
440.802	1	42
441.143	1	42
441.485	1	40
441.826	1	30
442.167	1	33
442.508	1	39
442.849	1	36
443.190	1	34
443.531	1	25
443.872	1	30
444.213	1	22
444.554	1	27
444.895	1	38
445.237	1	29
445.578	1	39
445.919	1	36
446.260	1	47
446.601	1	26
446.942	1	37
447.283	1	27
447.624	1	34
447.965	1	22
448.306	1	29
448.647	1	48
448.988	1	13
449.329	1	36
449.670	1	32
450.011	1	28
450.352	1	33
450.693	1	22
451.034	1	29
451.375	1	31
451.716	1	25
452.057	1	35
452.398	1	19
452.739	1	23
453.080	1	45
453.421	1	24
453.762	1	34
454.103	1	24
454.444	1	32
454.785	1	17
455.126	1	24
455.467	1	28
455.808	1	30
456.149	1	19
456.490	1	27
456.831	1	27
457.172	1	20
457.513	1	35
457.854	1	16
458.195	1	17
458.536	1	32
458.877	1	26
459.218	1	30
459.559	1	23
459.899	1	28
460.240	1	20
460.581	1	28
460.922	1	20
461.263	1	27
461.604	1	22
461.945	1	20
462.286	1	28
462.627	1	16
462.968	1	11
463.309	1	27
463.649	1	16
463.990	1	27
464.331	1	32
464.672	1	14
465.013	1	9
465.354	1	26
465.695	1	33
466.036	1	25
466.376	1	30
466.717	1	9
467.058	1	28
467.399	1	23
467.740	1	24
468.081	1	18
468.422	1	18
468.762	1	9
469.103	1	13
469.444	1	14
469.785	1	16
470.126	1	22
470.467	1	16
470.807	1	22
471.148	1	18
471.489	1	12
471.830	1	28
472.171	1	14
472.511	1	27
472.852	1	20
473.193	1	11
473.534	1	16
473.875	1	24
474.215	1	14
474.556	1	2
474.897	1	18
475.238	1	12
475.578	1	24
475.919	1	21
476.260	1	32
476.601	1	17
476.942	1	15
477.282	1	22
477.623	1	22
477.964	1	27
478.305	1	25
478.645	1	16
478.986	1	18
479.327	1	8
479.667	1	18
480.008	1	23
480.349	1	28
480.690	1	23
481.030	1	25
481.371	1	24
481.712	1	13
482.053	1	25
482.393	1	9
482.734	1	28
483.075	1	26
483.415	1	27
483.756	1	28
484.097	1	16
484.437	1	14
484.778	1	29
485.119	1	38
485.459	1	32
485.800	1	21
486.141	1	25
486.481	1	28
486.822	1	29
487.163	1	29
487.503	1	12
487.844	1	18
488.185	1	33
488.525	1	34
488.866	1	33
489.207	1	30
489.547	1	37
489.888	1	31
490.228	1	16
490.569	1	46
490.910	1	26
491.250	1	45
491.591	1	30
491.932	1	55
492.272	1	40
492.613	1	48
492.953	1	34
493.294	1	44
493.635	1	44
493.975	1	48
494.316	1	46
494.656	1	44
494.997	1	41
495.337	1	53
495.678	1	46
496.019	1	29
496.359	1	42
496.700	1	48
497.040	1	46
497.381	1	39
497.721	1	41
498.062	1	44
498.403	1	46
498.743	1	61
499.084	1	41
499.424	1	55
499.765	1	56
500.105	1	67
500.446	1	73
500.786	1	63
501.127	1	68
501.467	1	64
501.808	1	55
502.148	1	73
502.489	1	61
502.829	1	55
503.170	1	68
503.510	1	65
503.851	1	60
504.191	1	61
504.532	1	60
504.872	1	66
505.213	1	73
505.553	1	80
505.894	1	84
506.234	1	92
506.575	1	78
506.915	1	78
507.256	1	76
507.596	1	90
507.936	1	83
508.277	1	88
508.617	1	97
508.958	1	96
509.298	1	107
509.639	1	97
509.979	1	89
510.319	1	93
510.660	1	105
511.000	1	108
511.341	1	90
511.681	1	97
512.022	1	87
512.362	1	111
512.702	1	89
513.043	1	101
513.383	1	92
513.724	1	110
514.064	1	106
514.404	1	103
514.745	1	104
515.085	1	115
515.425	1	107
515.766	1	113
516.106	1	107
516.447	1	120
516.787	1	115
517.127	1	121
517.468	1	116
517.808	1	117
518.148	1	122
518.489	1	124
518.829	1	119
519.169	1	130
519.510	1	126
519.850	1	119
520.190	1	130
520.531	1	134
520.871	1	127
521.211	1	125
521.552	1	141
521.892	1	115
522.232	1	125
522.573	1	122
522.913	1	132
523.253	1	136
523.593	1	126
523.934	1	135
524.274	1	135
524.614	1	143
524.955	1	134
525.295	1	133
525.635	1	139
525.975	1	146
526.316	1	138
526.656	1	151
526.996	1	147
527.337	1	136
527.677	1	153
528.017	1	143
528.357	1	143
528.698	1	148
529.038	1	158
529.378	1	155
529.718	1	139
530.058	1	148
530.399	1	152
530.739	1	137
531.079	1	146
531.419	1	159
531.760	1	152
532.100	1	147
532.440	1	150
532.780	1	135
533.120	1	136
533.461	1	156
533.801	1	144
534.141	1	147
534.481	1	141
534.821	1	142
535.162	1	138
535.502	1	149
535.842	1	140
536.182	1	142
536.522	1	140
536.862	1	141
537.203	1	141
537.543	1	137
537.883	1	150
538.223	1	140
538.563	1	131
538.903	1	129
539.243	1	143
539.584	1	132
539.924	1	139
540.264	1	126
540.604	1	137
540.944	1	120
541.284	1	130
541.624	1	146
541.964	1	141
542.305	1	121
542.645	1	123
542.985	1	116
543.325	1	131
543.665	1	135
544.005	1	129
544.345	1	125
544.685	1	132
545.025	1	118
545.365	1	119
545.705	1	133
546.045	1	130
546.386	1	122
546.726	1	125
547.066	1	113
547.406	1	110
547.746	1	126
548.086	1	131
548.426	1	122
548.766	1	141
549.106	1	129
549.446	1	116
549.786	1	118
550.126	1	107
550.466	1	107
550.806	1	130
551.146	1	112
551.486	1	133
551.826	1	120
552.166	1	123
552.506	1	109
552.846	1	122
553.186	1	105
553.526	1	112
553.866	1	113
554.206	1	113
554.546	1	94
554.886	1	108
555.226	1	105
555.566	1	116
555.906	1	102
556.246	1	94
556.586	1	108
556.926	1	99
557.266	1	111
557.606	1	95
557.946	1	101
558.286	1	95
558.626	1	111
558.966	1	98
559.306	1	79
559.646	1	81
559.986	1	87
560.325	1	80
560.665	1	91
561.005	1	93
561.345	1	85
561.685	1	85
562.025	1	89
562.365	1	83
562.705	1	94
563.045	1	82
563.385	1	76
563.725	1	82
564.064	1	82
564.404	1	69
564.744	1	78
565.084	1	75
565.424	1	87
565.764	1	88
566.104	1	72
566.444	1	80
566.783	1	74
567.123	1	81
567.463	1	79
567.803	1	66
568.143	1	69
568.483	1	65
568.823	1	87
569.162	1	89
569.502	1	73
569.842	1	66
570.182	1	69
570.522	1	76
570.862	1	80
571.201	1	68
571.541	1	62
571.881	1	62
572.221	1	78
572.561	1	70
572.900	1	77
573.240	1	55
573.580	1	67
573.920	1	65
574.260	1	69
574.599	1	55
574.939	1	51
575.279	1	67
575.619	1	65
575.959	1	65
576.298	1	55
576.638	1	62
576.978	1	59
577.318	1	57
577.657	1	39
577.997	1	44
578.337	1	55
578.677	1	46
579.016	1	69
579.356	1	54
579.696	1	58
580.036	1	50
580.375	1	52
580.715	1	65
581.055	1	53
581.394	1	41
581.734	1	65
582.074	1	50
582.414	1	55
582.753	1	53
583.093	1	52
583.433	1	47
583.772	1	53
584.112	1	42
584.452	1	41
584.791	1	45
585.131	1	39
585.471	1	46
585.811	1	46
586.150	1	42
586.490	1	38
586.830	1	42
587.169	1	52
587.509	1	51
587.849	1	61
588.188	1	44
588.528	1	58
588.867	1	38
589.207	1	44
589.547	1	35
589.886	1	39
590.226	1	42
590.566	1	37
590.905	1	41
591.245	1	29
591.585	1	32
591.924	1	36
592.264	1	27
592.603	1	32
592.943	1	41
593.283	1	30
593.622	1	40
593.962	1	41
594.301	1	25
594.641	1	30
594.981	1	37
595.320	1	33
595.660	1	31
595.999	1	31
596.339	1	40
596.678	1	37
597.018	1	33
597.358	1	45
597.697	1	26
598.037	1	34
598.376	1	43
598.716	1	14
599.055	1	32
599.395	1	29
599.734	1	27
600.074	1	33
600.413	1	26
600.753	1	21
601.092	1	21
601.432	1	25
601.771	1	35
602.111	1	20
602.451	1	30
602.790	1	19
603.130	1	33
603.469	1	26
603.809	1	38
604.148	1	28
604.487	1	28
604.827	1	12
605.166	1	22
605.506	1	26
605.845	1	31
606.185	1	31
606.524	1	24
606.864	1	23
607.203	1	31
607.543	1	15
607.882	1	19
608.222	1	28
608.561	1	30
608.901	1	24
609.240	1	27
609.579	1	26
609.919	1	17
610.258	1	32
610.598	1	28
610.937	1	17
611.277	1	26
611.616	1	19
611.955	1	31
612.295	1	20
612.634	1	19
612.974	1	28
613.313	1	31
613.652	1	10
613.992	1	25
614.331	1	24
614.671	1	34
615.010	1	23
615.349	1	33
615.689	1	38
616.028	1	12
616.368	1	12
616.707	1	11
617.046	1	18
617.386	1	26
617.725	1	23
618.064	1	21
618.404	1	22
618.743	1	28
619.082	1	19
619.422	1	22
619.761	1	19
620.100	1	28
620.440	1	14
620.779	1	17
621.118	1	17
621.458	1	24
621.797	1	17
622.136	1	19
622.476	1	23
622.815	1	19
623.154	1	18
623.494	1	20
623.833	1	18
624.172	1	27
624.511	1	16
624.851	1	-3
625.190	1	28
625.529	1	21
625.869	1	11
626.208	1	16
626.547	1	21
626.886	1	17
627.226	1	17
627.565	1	22
627.904	1	16
628.243	1	12
628.583	1	15
628.922	1	15
629.261	1	20
629.600	1	27
629.940	1	14
630.279	1	7
630.618	1	10
630.957	1	16
631.297	1	2
631.636	1	13
631.975	1	21
632.314	1	19
632.653	1	4
632.993	1	20
633.332	1	21
633.671	1	7
634.010	1	21
634.349	1	17
634.689	1	18
635.028	1	16
635.367	1	13
635.706	1	-2
636.045	1	10
636.384	1	17
636.724	1	12
637.063	1	24
637.402	1	20
637.741	1	18
638.080	1	19
638.419	1	27
638.759	1	18
639.098	1	10
639.437	1	0
639.776	1	7
640.115	1	10
640.454	1	24
640.793	1	21
641.132	1	19
641.472	1	6
641.811	1	15
642.150	1	12
642.489	1	12
642.828	1	10
643.167	1	17
643.506	1	7
643.845	1	14
644.184	1	21
644.524	1	6
644.863	1	8
645.202	1	8
645.541	1	6
645.880	1	14
646.219	1	23
646.558	1	15
646.897	1	13
647.236	1	9
647.575	1	14
647.914	1	8
648.253	1	25
648.592	1	3
648.931	1	16
649.270	1	13
649.610	1	30
649.949	1	13
650.288	1	12
650.627	1	18
650.966	1	13
651.305	1	0
651.644	1	4
651.983	1	13
652.322	1	20
652.661	1	13
653.000	1	5
653.339	1	15
653.678	1	11
654.017	1	11
654.356	1	9
654.695	1	17
655.034	1	11
655.373	1	16
655.712	1	7
656.051	1	19
656.390	1	10
656.729	1	12
657.068	1	9
657.406	1	22
657.745	1	9
658.084	1	13
658.423	1	3
658.762	1	4
659.101	1	9
659.440	1	18
659.779	1	-5
660.118	1	15
660.457	1	-5
660.796	1	2
661.135	1	18
661.474	1	11
661.813	1	2
662.152	1	5
662.491	1	9
662.829	1	7
663.168	1	11
663.507	1	9
663.846	1	17
664.185	1	6
664.524	1	-2
664.863	1	12
665.202	1	4
665.541	1	5
665.879	1	10
666.218	1	-3
666.557	1	12
666.896	1	4
667.235	1	4
667.574	1	5
667.913	1	6
668.251	1	9
668.590	1	9
668.929	1	14
669.268	1	17
669.607	1	-4
669.946	1	27
670.285	1	12
670.623	1	4
670.962	1	17
671.301	1	-1
671.640	1	-5
671.979	1	27
672.317	1	9
672.656	1	13
672.995	1	16
673.334	1	19
673.673	1	21
674.011	1	11
674.350	1	3
674.689	1	1
675.028	1	12
675.367	1	7
675.705	1	-1
676.044	1	7
676.383	1	15
676.722	1	15
677.060	1	17
677.399	1	16
677.738	1	6
678.077	1	6
678.416	1	10
678.754	1	5
679.093	1	5
679.432	1	12
679.771	1	2
680.109	1	24
680.448	1	4
680.787	1	6
681.125	1	14
681.464	1	10
681.803	1	1
682.142	1	21
682.480	1	7
682.819	1	14
683.158	1	13
683.496	1	2
683.835	1	14
684.174	1	16
684.512	1	0
684.851	1	13
685.190	1	10
685.529	1	12
685.867	1	12
686.206	1	22
686.545	1	15
686.883	1	4
687.222	1	7
687.561	1	12
687.899	1	19
688.238	1	10
688.577	1	2
688.746	1	7