File: Analysis/GaN_68K_200ms/GaN_sample E_spot4_UVVIS_68 K_200um_200 ms 2x2mm1_185.txt
340.368	1	-1
340.710	1	3
341.052	1	-1
341.394	1	3
341.737	1	21
342.079	1	-2
342.421	1	-5
342.763	1	1
343.105	1	6
343.447	1	11
343.789	1	-4
344.131	1	-10
344.473	1	-5
344.815	1	8
345.157	1	12
345.499	1	9
345.841	1	14
346.183	1	7
346.526	1	7
346.868	1	4
347.210	1	6
347.552	1	5
347.894	1	2
348.236	1	11
348.578	1	13
348.920	1	5
349.262	1	-3
349.604	1	15
349.946	1	13
350.288	1	3
350.630	1	-8
350.972	1	4
351.314	1	-2
351.656	1	6
351.998	1	5
352.340	1	3
352.682	1	-4
353.024	1	-2
353.366	1	10
353.708	1	4
354.050	1	7
354.392	1	3
354.734	1	7
355.076	1	18
355.418	1	5
355.760	1	8
356.102	1	11
356.444	1	5
356.785	1	17
357.127	1	5
357.469	1	4
357.811	1	17
358.153	1	11
358.495	1	10
358.837	1	6
359.179	1	13
359.521	1	13
359.863	1	1
360.205	1	5
360.547	1	16
360.889	1	17
361.231	1	15
361.572	1	2
361.914	1	11
362.256	1	15
362.598	1	18
362.940	1	13
363.282	1	12
363.624	1	14
363.966	1	13
364.308	1	13
364.649	1	16
364.991	1	25
365.333	1	24
365.675	1	14
366.017	1	25
366.359	1	30
366.701	1	12
367.042	1	25
367.384	1	26
367.726	1	29
368.068	1	24
368.410	1	30
368.752	1	13
369.093	1	27
369.435	1	11
369.777	1	23
370.119	1	21
370.461	1	16
370.803	1	10
371.144	1	24
371.486	1	21
371.828	1	22
372.170	1	29
372.512	1	13
372.853	1	23
373.195	1	4
373.537	1	11
373.879	1	18
374.220	1	7
374.562	1	6
374.904	1	16
375.246	1	11
375.588	1	10
375.929	1	10
376.271	1	10
376.613	1	14
376.955	1	5
377.296	1	15
377.638	1	5
377.980	1	20
378.321	1	10
378.663	1	2
379.005	1	19
379.347	1	5
379.688	1	-2
380.030	1	8
380.372	1	9
380.714	1	13
381.055	1	18
381.397	1	1
381.739	1	18
382.080	1	10
382.422	1	30
382.764	1	12
383.105	1	12
383.447	1	22
383.789	1	14
384.130	1	10
384.472	1	19
384.814	1	27
385.156	1	24
385.497	1	35
385.839	1	35
386.180	1	28
386.522	1	37
386.864	1	22
387.205	1	17
387.547	1	23
387.889	1	25
388.230	1	24
388.572	1	23
388.914	1	39
389.255	1	27
389.597	1	14
389.939	1	22
390.280	1	35
390.622	1	28
390.963	1	16
391.305	1	26
391.647	1	26
391.988	1	11
392.330	1	32
392.671	1	34
393.013	1	21
393.355	1	33
393.696	1	27
394.038	1	18
394.379	1	14
394.721	1	31
395.062	1	15
395.404	1	27
395.746	1	17
396.087	1	23
396.429	1	28
396.770	1	23
397.112	1	25
397.453	1	12
397.795	1	24
398.136	1	31
398.478	1	21
398.819	1	28
399.161	1	29
399.503	1	20
399.844	1	22
400.186	1	33
400.527	1	19
400.869	1	26
401.210	1	17
401.552	1	32
401.893	1	18
402.235	1	32
402.576	1	32
402.918	1	13
403.259	1	13
403.601	1	12
403.942	1	22
404.284	1	20
404.625	1	22
404.967	1	16
405.308	1	20
405.649	1	24
405.991	1	28
406.332	1	11
406.674	1	19
407.015	1	12
407.357	1	17
407.698	1	12
408.040	1	12
408.381	1	23
408.722	1	10
409.064	1	18
409.405	1	17
409.747	1	17
410.088	1	16
410.430	1	22
410.771	1	12
411.112	1	15
411.454	1	33
411.795	1	28
412.137	1	22
412.478	1	12
412.819	1	4
413.161	1	6
413.502	1	14
413.844	1	23
414.185	1	17
414.526	1	8
414.868	1	29
415.209	1	5
415.550	1	9
415.892	1	13
416.233	1	9
416.575	1	14
416.916	1	10
417.257	1	27
417.599	1	10
417.940	1	8
418.281	1	21
418.623	1	11
418.964	1	20
419.305	1	10
419.647	1	15
419.988	1	3
420.329	1	11
420.671	1	13
421.012	1	19
421.353	1	23
421.695	1	11
422.036	1	5
422.377	1	12
422.718	1	18
423.060	1	20
423.401	1	16
423.742	1	12
424.084	1	16
424.425	1	13
424.766	1	17
425.107	1	18
425.449	1	16
425.790	1	15
426.131	1	17
426.472	1	14
426.814	1	20
427.155	1	9
427.496	1	15
427.837	1	3
428.179	1	5
428.520	1	10
428.861	1	6
429.202	1	20
429.544	1	15
429.885	1	14
430.226	1	0
430.567	1	22
430.909	1	-2
431.250	1	0
431.591	1	8
431.932	1	21
432.273	1	11
432.615	1	15
432.956	1	5
433.297	1	15
433.638	1	9
433.979	1	7
434.320	1	2
434.662	1	13
435.003	1	11
435.344	1	19
435.685	1	14
436.026	1	17
436.368	1	13
436.709	1	6
437.050	1	14
437.391	1	8
437.732	1	14
438.073	1	10
438.414	1	15
438.756	1	12
439.097	1	17
439.438	1	13
439.779	1	2
440.120	1	5
440.461	1	-2
440.802	1	3
441.143	1	23
441.485	1	1
441.826	1	5
442.167	1	9
442.508	1	12
442.849	1	11
443.190	1	-1
443.531	1	4
443.872	1	0
444.213	1	8
444.554	1	4
444.895	1	5
445.237	1	4
445.578	1	18
445.919	1	5
446.260	1	13
446.601	1	2
446.942	1	7
447.283	1	7
447.624	1	11
447.965	1	4
448.306	1	-1
448.647	1	22
448.988	1	-5
449.329	1	7
449.670	1	17
450.011	1	10
450.352	1	11
450.693	1	3
451.034	1	8
451.375	1	15
451.716	1	15
452.057	1	15
452.398	1	11
452.739	1	6
453.080	1	13
453.421	1	6
453.762	1	10
454.103	1	15
454.444	1	13
454.785	1	11
455.126	1	1
455.467	1	12
455.808	1	13
456.149	1	5
456.490	1	10
456.831	1	21
457.172	1	7
457.513	1	7
457.854	1	15
458.195	1	1
458.536	1	0
458.877	1	8
459.218	1	12
459.559	1	7
459.899	1	17
460.240	1	7
460.581	1	11
460.922	1	13
461.263	1	7
461.604	1	5
461.945	1	18
462.286	1	12
462.627	1	9
462.968	1	-1
463.309	1	3
463.649	1	12
463.990	1	10
464.331	1	13
464.672	1	10
465.013	1	8
465.354	1	-4
465.695	1	4
466.036	1	7
466.376	1	-2
466.717	1	0
467.058	1	15
467.399	1	4
467.740	1	6
468.081	1	12
468.422	1	5
468.762	1	-9
469.103	1	1
469.444	1	-1
469.785	1	11
470.126	1	7
470.467	1	7
470.807	1	3
471.148	1	-1
471.489	1	10
471.830	1	5
472.171	1	9
472.511	1	14
472.852	1	1
473.193	1	-1
473.534	1	7
473.875	1	8
474.215	1	6
474.556	1	-4
474.897	1	4
475.238	1	8
475.578	1	6
475.919	1	10
476.260	1	-4
476.601	1	6
476.942	1	12
477.282	1	-9
477.623	1	8
477.964	1	14
478.305	1	6
478.645	1	7
478.986	1	2
479.327	1	-4
479.667	1	5
480.008	1	11
480.349	1	8
480.690	1	-7
481.030	1	-1
481.371	1	2
481.712	1	14
482.053	1	9
482.393	1	-6
482.734	1	7
483.075	1	11
483.415	1	6
483.756	1	18
484.097	1	-2
484.437	1	-8
484.778	1	1
485.119	1	15
485.459	1	12
485.800	1	1
486.141	1	-1
486.481	1	5
486.822	1	6
487.163	1	0
487.503	1	-3
487.844	1	4
488.185	1	-3
488.525	1	-2
488.866	1	17
489.207	1	18
489.547	1	8
489.888	1	5
490.228	1	4
490.569	1	20
490.910	1	8
491.250	1	6
491.591	1	-3
491.932	1	17
492.272	1	10
492.613	1	10
492.953	1	5
493.294	1	18
493.635	1	-2
493.975	1	11
494.316	1	12
494.656	1	15
494.997	1	9
495.337	1	8
495.678	1	25
496.019	1	0
496.359	1	14
496.700	1	-1
497.040	1	18
497.381	1	-11
497.721	1	1
498.062	1	10
498.403	1	12
498.743	1	8
499.084	1	-1
499.424	1	21
499.765	1	9
500.105	1	6
500.446	1	11
500.786	1	20
501.127	1	15
501.467	1	6
501.808	1	-3
502.148	1	10
502.489	1	14
502.829	1	9
503.170	1	8
503.510	1	21
503.851	1	2
504.191	1	16
504.532	1	-5
504.872	1	2
505.213	1	14
505.553	1	15
505.894	1	20
506.234	1	19
506.575	1	7
506.915	1	14
507.256	1	4
507.596	1	25
507.936	1	12
508.277	1	15
508.617	1	20
508.958	1	19
509.298	1	31
509.639	1	21
509.979	1	7
510.319	1	12
510.660	1	20
511.000	1	25
511.341	1	8
511.681	1	18
512.022	1	6
512.362	1	23
512.702	1	12
513.043	1	16
513.383	1	7
513.724	1	24
514.064	1	9
514.404	1	15
514.745	1	20
515.085	1	8
515.425	1	11
515.766	1	14
516.106	1	15
516.447	1	23
516.787	1	17
517.127	1	15
517.468	1	14
517.808	1	20
518.148	1	11
518.489	1	21
518.829	1	10
519.169	1	11
519.510	1	19
519.850	1	13
520.190	1	13
520.531	1	18
520.871	1	12
521.211	1	19
521.552	1	18
521.892	1	7
522.232	1	12
522.573	1	19
522.913	1	21
523.253	1	19
523.593	1	-5
523.934	1	21
524.274	1	13
524.614	1	21
524.955	1	20
525.295	1	15
525.635	1	27
525.975	1	20
526.316	1	19
526.656	1	25
526.996	1	36
527.337	1	17
527.677	1	20
528.017	1	10
528.357	1	25
528.698	1	15
529.038	1	23
529.378	1	18
529.718	1	17
530.058	1	24
530.399	1	30
530.739	1	16
531.079	1	28
531.419	1	30
531.760	1	21
532.100	1	27
532.440	1	14
532.780	1	10
533.120	1	8
533.461	1	35
533.801	1	22
534.141	1	24
534.481	1	17
534.821	1	30
535.162	1	13
535.502	1	24
535.842	1	20
536.182	1	25
536.522	1	27
536.862	1	19
537.203	1	21
537.543	1	22
537.883	1	18
538.223	1	24
538.563	1	22
538.903	1	27
539.243	1	16
539.584	1	24
539.924	1	22
540.264	1	20
540.604	1	21
540.944	1	18
541.284	1	10
541.624	1	21
541.964	1	21
542.305	1	11
542.645	1	12
542.985	1	12
543.325	1	14
543.665	1	21
544.005	1	21
544.345	1	7
544.685	1	22
545.025	1	6
545.365	1	24
545.705	1	20
546.045	1	21
546.386	1	21
546.726	1	15
547.066	1	3
547.406	1	25
547.746	1	23
548.086	1	22
548.426	1	12
548.766	1	22
549.106	1	12
549.446	1	15
549.786	1	12
550.126	1	7
550.466	1	16
550.806	1	22
551.146	1	4
551.486	1	22
551.826	1	26
552.166	1	9
552.506	1	16
552.846	1	16
553.186	1	10
553.526	1	22
553.866	1	25
554.206	1	16
554.546	1	4
554.886	1	13
555.226	1	4
555.566	1	26
555.906	1	9
556.246	1	15
556.586	1	16
556.926	1	14
557.266	1	19
557.606	1	2
557.946	1	11
558.286	1	12
558.626	1	21
558.966	1	18
559.306	1	6
559.646	1	16
559.986	1	2
560.325	1	4
560.665	1	18
561.005	1	18
561.345	1	14
561.685	1	8
562.025	1	11
562.365	1	17
562.705	1	20
563.045	1	20
563.385	1	11
563.725	1	12
564.064	1	20
564.404	1	7
564.744	1	10
565.084	1	7
565.424	1	8
565.764	1	23
566.104	1	14
566.444	1	24
566.783	1	13
567.123	1	23
567.463	1	11
567.803	1	6
568.143	1	-2
568.483	1	6
568.823	1	17
569.162	1	18
569.502	1	7
569.842	1	4
570.182	1	2
570.522	1	15
570.862	1	11
571.201	1	15
571.541	1	7
571.881	1	11
572.221	1	22
572.561	1	-1
572.900	1	20
573.240	1	5
573.580	1	7
573.920	1	8
574.260	1	6
574.599	1	8
574.939	1	10
575.279	1	15
575.619	1	7
575.959	1	1
576.298	1	3
576.638	1	10
576.978	1	9
577.318	1	9
577.657	1	0
577.997	1	8
578.337	1	11
578.677	1	14
579.016	1	19
579.356	1	5
579.696	1	10
580.036	1	3
580.375	1	13
580.715	1	15
581.055	1	4
581.394	1	0
581.734	1	13
582.074	1	14
582.414	1	17
582.753	1	6
583.093	1	4
583.433	1	-5
583.772	1	7
584.112	1	5
584.452	1	4
584.791	1	3
585.131	1	-2
585.471	1	2
585.811	1	1
586.150	1	9
586.490	1	3
586.830	1	1
587.169	1	0
587.509	1	9
587.849	1	13
588.188	1	6
588.528	1	5
588.867	1	11
589.207	1	-6
589.547	1	-1
589.886	1	5
590.226	1	10
590.566	1	0
590.905	1	0
591.245	1	15
591.585	1	3
591.924	1	1
592.264	1	10
592.603	1	9
592.943	1	4
593.283	1	8
593.622	1	7
593.962	1	16
594.301	1	21
594.641	1	4
594.981	1	7
595.320	1	8
595.660	1	-1
595.999	1	9
596.339	1	11
596.678	1	-3
597.018	1	12
597.358	1	15
597.697	1	4
598.037	1	5
598.376	1	3
598.716	1	-4
599.055	1	7
599.395	1	14
599.734	1	6
600.074	1	3
600.413	1	3
600.753	1	16
601.092	1	-7
601.432	1	7
601.771	1	6
602.111	1	-6
602.451	1	8
602.790	1	4
603.130	1	12
603.469	1	-1
603.809	1	4
604.148	1	11
604.487	1	11
604.827	1	0
605.166	1	-7
605.506	1	14
605.845	1	6
606.185	1	-1
606.524	1	-5
606.864	1	8
607.203	1	7
607.543	1	1
607.882	1	1
608.222	1	10
608.561	1	22
608.901	1	8
609.240	1	9
609.579	1	11
609.919	1	2
610.258	1	12
610.598	1	7
610.937	1	9
611.277	1	-1
611.616	1	7
611.955	1	11
612.295	1	5
612.634	1	4
612.974	1	11
613.313	1	10
613.652	1	4
613.992	1	10
614.331	1	8
614.671	1	5
615.010	1	15
615.349	1	2
615.689	1	7
616.028	1	9
616.368	1	-1
616.707	1	3
617.046	1	7
617.386	1	1
617.725	1	6
618.064	1	2
618.404	1	16
618.743	1	5
619.082	1	8
619.422	1	2
619.761	1	5
620.100	1	7
620.440	1	0
620.779	1	4
621.118	1	-1
621.458	1	1
621.797	1	5
622.136	1	8
622.476	1	3
622.815	1	8
623.154	1	0
623.494	1	7
623.833	1	2
624.172	1	9
624.511	1	2
624.851	1	-10
625.190	1	9
625.529	1	13
625.869	1	3
626.208	1	2
626.547	1	12
626.886	1	-7
627.226	1	2
627.565	1	14
627.904	1	10
628.243	1	-6
628.583	1	1
628.922	1	11
629.261	1	11
629.600	1	3
629.940	1	4
630.279	1	7
630.618	1	1
630.957	1	2
631.297	1	-9
631.636	1	7
631.975	1	11
632.314	1	19
632.653	1	2
632.993	1	11
633.332	1	7
633.671	1	4
634.010	1	9
634.349	1	1
634.689	1	6
635.028	1	4
635.367	1	3
635.706	1	-9
636.045	1	3
636.384	1	13
636.724	1	0
637.063	1	13
637.402	1	9
637.741	1	16
638.080	1	8
638.419	1	2
638.759	1	6
639.098	1	12
639.437	1	2
639.776	1	6
640.115	1	-3
640.454	1	15
640.793	1	12
641.132	1	20
641.472	1	-9
641.811	1	2
642.150	1	7
642.489	1	8
642.828	1	10
643.167	1	13
643.506	1	-2
643.845	1	7
644.184	1	11
644.524	1	1
644.863	1	-3
645.202	1	1
645.541	1	-5
645.880	1	3
646.219	1	7
646.558	1	-2
646.897	1	2
647.236	1	4
647.575	1	9
647.914	1	1
648.253	1	6
648.592	1	13
648.931	1	7
649.270	1	9
649.610	1	13
649.949	1	7
650.288	1	-3
650.627	1	3
650.966	1	-6
651.305	1	1
651.644	1	3
651.983	1	2
652.322	1	13
652.661	1	13
653.000	1	-3
653.339	1	3
653.678	1	2
654.017	1	7
654.356	1	13
654.695	1	4
655.034	1	0
655.373	1	10
655.712	1	5
656.051	1	9
656.390	1	-7
656.729	1	4
657.068	1	5
657.406	1	10
657.745	1	3
658.084	1	5
658.423	1	-6
658.762	1	-2
659.101	1	1
659.440	1	13
659.779	1	-1
660.118	1	14
660.457	1	6
660.796	1	1
661.135	1	4
661.474	1	9
661.813	1	7
662.152	1	-4
662.491	1	10
662.829	1	2
663.168	1	-4
663.507	1	4
663.846	1	9
664.185	1	7
664.524	1	-15
664.863	1	9
665.202	1	-4
665.541	1	1
665.879	1	5
666.218	1	-8
666.557	1	4
666.896	1	0
667.235	1	4
667.574	1	7
667.913	1	4
668.251	1	10
668.590	1	-6
668.929	1	16
669.268	1	6
669.607	1	-4
669.946	1	7
670.285	1	10
670.623	1	8
670.962	1	-3
671.301	1	0
671.640	1	-18
671.979	1	12
672.317	1	3
672.656	1	10
672.995	1	12
673.334	1	6
673.673	1	18
674.011	1	5
674.350	1	-4
674.689	1	4
675.028	1	6
675.367	1	2
675.705	1	-9
676.044	1	6
676.383	1	2
676.722	1	2
677.060	1	4
677.399	1	-7
677.738	1	-7
678.077	1	8
678.416	1	8
678.754	1	-3
679.093	1	7
679.432	1	3
679.771	1	4
680.109	1	21
680.448	1	2
680.787	1	2
681.125	1	13
681.464	1	0
681.803	1	-3
682.142	1	17
682.480	1	-5
682.819	1	6
683.158	1	-5
683.496	1	-3
683.835	1	1
684.174	1	5
684.512	1	7
684.851	1	10
685.190	1	4
685.529	1	9
685.867	1	3
686.206	1	-2
686.545	1	11
686.883	1	-3
687.222	1	-9
687.561	1	3
687.899	1	6
688.238	1	5
688.577	1	-6
688.746	1	4