File: Analysis/GaN_68K_200ms/GaN_sample E_spot4_UVVIS_68 K_200um_200 ms 2x2mm1_119.txt
340.368	1	7
340.710	1	4
341.052	1	11
341.394	1	7
341.737	1	13
342.079	1	3
342.421	1	4
342.763	1	13
343.105	1	13
343.447	1	19
343.789	1	4
344.131	1	4
344.473	1	3
344.815	1	15
345.157	1	19
345.499	1	8
345.841	1	12
346.183	1	11
346.526	1	17
346.868	1	18
347.210	1	7
347.552	1	19
347.894	1	13
348.236	1	15
348.578	1	15
348.920	1	20
349.262	1	5
349.604	1	29
349.946	1	15
350.288	1	13
350.630	1	9
350.972	1	10
351.314	1	19
351.656	1	18
351.998	1	17
352.340	1	7
352.682	1	10
353.024	1	15
353.366	1	19
353.708	1	26
354.050	1	22
354.392	1	22
354.734	1	26
355.076	1	24
355.418	1	14
355.760	1	29
356.102	1	21
356.444	1	34
356.785	1	38
357.127	1	20
357.469	1	21
357.811	1	41
358.153	1	46
358.495	1	54
358.837	1	51
359.179	1	55
359.521	1	56
359.863	1	59
360.205	1	72
360.547	1	86
360.889	1	98
361.231	1	103
361.572	1	103
361.914	1	137
362.256	1	174
362.598	1	191
362.940	1	223
363.282	1	251
363.624	1	301
363.966	1	371
364.308	1	437
364.649	1	498
364.991	1	571
365.333	1	640
365.675	1	717
366.017	1	794
366.359	1	814
366.701	1	832
367.042	1	836
367.384	1	859
367.726	1	812
368.068	1	776
368.410	1	733
368.752	1	638
369.093	1	602
369.435	1	540
369.777	1	501
370.119	1	455
370.461	1	419
370.803	1	376
371.144	1	366
371.486	1	329
371.828	1	303
372.170	1	310
372.512	1	275
372.853	1	289
373.195	1	264
373.537	1	264
373.879	1	260
374.220	1	234
374.562	1	225
374.904	1	221
375.246	1	210
375.588	1	198
375.929	1	199
376.271	1	184
376.613	1	183
376.955	1	177
377.296	1	188
377.638	1	175
377.980	1	197
378.321	1	183
378.663	1	167
379.005	1	202
379.347	1	214
379.688	1	193
380.030	1	215
380.372	1	260
380.714	1	280
381.055	1	320
381.397	1	345
381.739	1	400
382.080	1	444
382.422	1	517
382.764	1	617
383.105	1	685
383.447	1	808
383.789	1	927
384.130	1	1082
384.472	1	1181
384.814	1	1356
385.156	1	1495
385.497	1	1642
385.839	1	1775
386.180	1	1850
386.522	1	1943
386.864	1	1986
387.205	1	2047
387.547	1	2074
387.889	1	2086
388.230	1	2069
388.572	1	2024
388.914	1	2001
389.255	1	1938
389.597	1	1933
389.939	1	1897
390.280	1	1910
390.622	1	1852
390.963	1	1847
391.305	1	1823
391.647	1	1730
391.988	1	1718
392.330	1	1653
392.671	1	1614
393.013	1	1578
393.355	1	1565
393.696	1	1514
394.038	1	1494
394.379	1	1515
394.721	1	1509
395.062	1	1510
395.404	1	1557
395.746	1	1594
396.087	1	1640
396.429	1	1716
396.770	1	1740
397.112	1	1788
397.453	1	1815
397.795	1	1886
398.136	1	1872
398.478	1	1875
398.819	1	1839
399.161	1	1805
399.503	1	1791
399.844	1	1726
400.186	1	1662
400.527	1	1614
400.869	1	1559
401.210	1	1486
401.552	1	1454
401.893	1	1382
402.235	1	1349
402.576	1	1320
402.918	1	1260
403.259	1	1213
403.601	1	1229
403.942	1	1193
404.284	1	1175
404.625	1	1160
404.967	1	1141
405.308	1	1163
405.649	1	1124
405.991	1	1120
406.332	1	1117
406.674	1	1103
407.015	1	1077
407.357	1	1081
407.698	1	1051
408.040	1	1047
408.381	1	1054
408.722	1	1041
409.064	1	1019
409.405	1	1031
409.747	1	1015
410.088	1	996
410.430	1	972
410.771	1	957
411.112	1	959
411.454	1	934
411.795	1	893
412.137	1	908
412.478	1	862
412.819	1	852
413.161	1	805
413.502	1	777
413.844	1	742
414.185	1	738
414.526	1	694
414.868	1	677
415.209	1	673
415.550	1	658
415.892	1	643
416.233	1	637
416.575	1	622
416.916	1	614
417.257	1	622
417.599	1	610
417.940	1	618
418.281	1	606
418.623	1	589
418.964	1	598
419.305	1	596
419.647	1	580
419.988	1	550
420.329	1	564
420.671	1	571
421.012	1	548
421.353	1	513
421.695	1	516
422.036	1	478
422.377	1	475
422.718	1	474
423.060	1	453
423.401	1	447
423.742	1	426
424.084	1	419
424.425	1	400
424.766	1	410
425.107	1	401
425.449	1	405
425.790	1	381
426.131	1	366
426.472	1	365
426.814	1	379
427.155	1	363
427.496	1	351
427.837	1	345
428.179	1	347
428.520	1	343
428.861	1	329
429.202	1	325
429.544	1	333
429.885	1	326
430.226	1	311
430.567	1	320
430.909	1	290
431.250	1	282
431.591	1	292
431.932	1	290
432.273	1	264
432.615	1	271
432.956	1	254
433.297	1	257
433.638	1	240
433.979	1	246
434.320	1	235
434.662	1	236
435.003	1	228
435.344	1	223
435.685	1	225
436.026	1	216
436.368	1	206
436.709	1	210
437.050	1	215
437.391	1	198
437.732	1	191
438.073	1	208
438.414	1	197
438.756	1	199
439.097	1	186
439.438	1	195
439.779	1	180
440.120	1	178
440.461	1	173
440.802	1	172
441.143	1	168
441.485	1	171
441.826	1	149
442.167	1	152
442.508	1	149
442.849	1	156
443.190	1	145
443.531	1	153
443.872	1	122
444.213	1	137
444.554	1	130
444.895	1	143
445.237	1	122
445.578	1	149
445.919	1	127
446.260	1	134
446.601	1	126
446.942	1	128
447.283	1	125
447.624	1	123
447.965	1	122
448.306	1	123
448.647	1	127
448.988	1	99
449.329	1	112
449.670	1	112
450.011	1	113
450.352	1	105
450.693	1	119
451.034	1	107
451.375	1	121
451.716	1	111
452.057	1	114
452.398	1	90
452.739	1	101
453.080	1	103
453.421	1	102
453.762	1	114
454.103	1	89
454.444	1	99
454.785	1	92
455.126	1	95
455.467	1	88
455.808	1	87
456.149	1	86
456.490	1	90
456.831	1	87
457.172	1	83
457.513	1	93
457.854	1	88
458.195	1	85
458.536	1	91
458.877	1	82
459.218	1	84
459.559	1	80
459.899	1	91
460.240	1	88
460.581	1	85
460.922	1	80
461.263	1	75
461.604	1	64
461.945	1	82
462.286	1	72
462.627	1	70
462.968	1	72
463.309	1	70
463.649	1	64
463.990	1	71
464.331	1	82
464.672	1	69
465.013	1	58
465.354	1	72
465.695	1	77
466.036	1	61
466.376	1	67
466.717	1	60
467.058	1	70
467.399	1	63
467.740	1	64
468.081	1	68
468.422	1	65
468.762	1	50
469.103	1	51
469.444	1	60
469.785	1	59
470.126	1	69
470.467	1	58
470.807	1	59
471.148	1	56
471.489	1	62
471.830	1	68
472.171	1	61
472.511	1	67
472.852	1	61
473.193	1	48
473.534	1	50
473.875	1	67
474.215	1	51
474.556	1	45
474.897	1	64
475.238	1	52
475.578	1	61
475.919	1	50
476.260	1	62
476.601	1	45
476.942	1	58
477.282	1	46
477.623	1	64
477.964	1	62
478.305	1	57
478.645	1	51
478.986	1	57
479.327	1	47
479.667	1	55
480.008	1	58
480.349	1	63
480.690	1	65
481.030	1	63
481.371	1	55
481.712	1	59
482.053	1	68
482.393	1	53
482.734	1	58
483.075	1	64
483.415	1	68
483.756	1	67
484.097	1	57
484.437	1	47
484.778	1	57
485.119	1	64
485.459	1	62
485.800	1	58
486.141	1	56
486.481	1	66
486.822	1	63
487.163	1	57
487.503	1	51
487.844	1	67
488.185	1	65
488.525	1	62
488.866	1	76
489.207	1	79
489.547	1	73
489.888	1	70
490.228	1	66
490.569	1	82
490.910	1	72
491.250	1	65
491.591	1	69
491.932	1	84
492.272	1	83
492.613	1	79
492.953	1	88
493.294	1	86
493.635	1	83
493.975	1	83
494.316	1	97
494.656	1	90
494.997	1	79
495.337	1	101
495.678	1	99
496.019	1	82
496.359	1	88
496.700	1	94
497.040	1	91
497.381	1	83
497.721	1	93
498.062	1	93
498.403	1	109
498.743	1	112
499.084	1	91
499.424	1	123
499.765	1	117
500.105	1	109
500.446	1	110
500.786	1	123
501.127	1	128
501.467	1	122
501.808	1	112
502.148	1	128
502.489	1	135
502.829	1	129
503.170	1	134
503.510	1	140
503.851	1	124
504.191	1	142
504.532	1	141
504.872	1	139
505.213	1	139
505.553	1	169
505.894	1	155
506.234	1	174
506.575	1	171
506.915	1	152
507.256	1	170
507.596	1	157
507.936	1	175
508.277	1	173
508.617	1	179
508.958	1	180
509.298	1	201
509.639	1	181
509.979	1	183
510.319	1	180
510.660	1	202
511.000	1	202
511.341	1	169
511.681	1	191
512.022	1	194
512.362	1	199
512.702	1	193
513.043	1	194
513.383	1	205
513.724	1	208
514.064	1	220
514.404	1	209
514.745	1	213
515.085	1	207
515.425	1	218
515.766	1	220
516.106	1	226
516.447	1	231
516.787	1	228
517.127	1	242
517.468	1	232
517.808	1	249
518.148	1	255
518.489	1	243
518.829	1	253
519.169	1	245
519.510	1	247
519.850	1	256
520.190	1	255
520.531	1	272
520.871	1	248
521.211	1	252
521.552	1	276
521.892	1	255
522.232	1	262
522.573	1	275
522.913	1	266
523.253	1	280
523.593	1	257
523.934	1	276
524.274	1	261
524.614	1	277
524.955	1	283
525.295	1	269
525.635	1	294
525.975	1	263
526.316	1	268
526.656	1	293
526.996	1	289
527.337	1	284
527.677	1	301
528.017	1	292
528.357	1	288
528.698	1	279
529.038	1	305
529.378	1	302
529.718	1	312
530.058	1	307
530.399	1	316
530.739	1	299
531.079	1	311
531.419	1	315
531.760	1	317
532.100	1	317
532.440	1	310
532.780	1	314
533.120	1	309
533.461	1	346
533.801	1	304
534.141	1	317
534.481	1	311
534.821	1	308
535.162	1	310
535.502	1	319
535.842	1	314
536.182	1	304
536.522	1	307
536.862	1	307
537.203	1	321
537.543	1	305
537.883	1	305
538.223	1	299
538.563	1	293
538.903	1	291
539.243	1	285
539.584	1	285
539.924	1	293
540.264	1	281
540.604	1	304
540.944	1	283
541.284	1	278
541.624	1	286
541.964	1	293
542.305	1	277
542.645	1	270
542.985	1	268
543.325	1	285
543.665	1	293
544.005	1	277
544.345	1	266
544.685	1	288
545.025	1	283
545.365	1	281
545.705	1	279
546.045	1	279
546.386	1	265
546.726	1	263
547.066	1	276
547.406	1	276
547.746	1	274
548.086	1	279
548.426	1	261
548.766	1	273
549.106	1	263
549.446	1	275
549.786	1	273
550.126	1	277
550.466	1	274
550.806	1	271
551.146	1	276
551.486	1	268
551.826	1	273
552.166	1	261
552.506	1	263
552.846	1	267
553.186	1	261
553.526	1	265
553.866	1	271
554.206	1	261
554.546	1	253
554.886	1	258
555.226	1	243
555.566	1	262
555.906	1	251
556.246	1	240
556.586	1	230
556.926	1	246
557.266	1	247
557.606	1	216
557.946	1	240
558.286	1	238
558.626	1	244
558.966	1	236
559.306	1	233
559.646	1	229
559.986	1	205
560.325	1	227
560.665	1	229
561.005	1	220
561.345	1	224
561.685	1	222
562.025	1	203
562.365	1	223
562.705	1	218
563.045	1	215
563.385	1	206
563.725	1	204
564.064	1	210
564.404	1	200
564.744	1	224
565.084	1	191
565.424	1	197
565.764	1	204
566.104	1	209
566.444	1	204
566.783	1	189
567.123	1	216
567.463	1	193
567.803	1	187
568.143	1	188
568.483	1	194
568.823	1	204
569.162	1	190
569.502	1	193
569.842	1	191
570.182	1	174
570.522	1	188
570.862	1	200
571.201	1	183
571.541	1	181
571.881	1	189
572.221	1	182
572.561	1	151
572.900	1	179
573.240	1	168
573.580	1	170
573.920	1	168
574.260	1	156
574.599	1	174
574.939	1	152
575.279	1	159
575.619	1	156
575.959	1	150
576.298	1	158
576.638	1	157
576.978	1	164
577.318	1	163
577.657	1	137
577.997	1	149
578.337	1	154
578.677	1	151
579.016	1	153
579.356	1	145
579.696	1	154
580.036	1	148
580.375	1	135
580.715	1	146
581.055	1	153
581.394	1	139
581.734	1	144
582.074	1	134
582.414	1	151
582.753	1	144
583.093	1	145
583.433	1	129
583.772	1	138
584.112	1	156
584.452	1	134
584.791	1	141
585.131	1	140
585.471	1	139
585.811	1	139
586.150	1	148
586.490	1	139
586.830	1	128
587.169	1	132
587.509	1	141
587.849	1	152
588.188	1	119
588.528	1	129
588.867	1	126
589.207	1	114
589.547	1	128
589.886	1	117
590.226	1	128
590.566	1	121
590.905	1	109
591.245	1	121
591.585	1	109
591.924	1	124
592.264	1	119
592.603	1	115
592.943	1	112
593.283	1	120
593.622	1	110
593.962	1	108
594.301	1	124
594.641	1	104
594.981	1	106
595.320	1	115
595.660	1	102
595.999	1	110
596.339	1	113
596.678	1	105
597.018	1	104
597.358	1	111
597.697	1	102
598.037	1	106
598.376	1	102
598.716	1	96
599.055	1	105
599.395	1	109
599.734	1	94
600.074	1	106
600.413	1	102
600.753	1	109
601.092	1	85
601.432	1	98
601.771	1	104
602.111	1	90
602.451	1	99
602.790	1	105
603.130	1	98
603.469	1	94
603.809	1	102
604.148	1	95
604.487	1	108
604.827	1	87
605.166	1	91
605.506	1	107
605.845	1	98
606.185	1	96
606.524	1	93
606.864	1	99
607.203	1	94
607.543	1	84
607.882	1	89
608.222	1	100
608.561	1	96
608.901	1	106
609.240	1	104
609.579	1	85
609.919	1	87
610.258	1	106
610.598	1	93
610.937	1	100
611.277	1	94
611.616	1	83
611.955	1	88
612.295	1	94
612.634	1	75
612.974	1	87
613.313	1	91
613.652	1	85
613.992	1	89
614.331	1	75
614.671	1	87
615.010	1	86
615.349	1	78
615.689	1	88
616.028	1	80
616.368	1	77
616.707	1	80
617.046	1	83
617.386	1	78
617.725	1	84
618.064	1	79
618.404	1	82
618.743	1	69
619.082	1	70
619.422	1	71
619.761	1	82
620.100	1	71
620.440	1	75
620.779	1	67
621.118	1	76
621.458	1	71
621.797	1	75
622.136	1	78
622.476	1	77
622.815	1	73
623.154	1	68
623.494	1	65
623.833	1	67
624.172	1	78
624.511	1	63
624.851	1	65
625.190	1	68
625.529	1	63
625.869	1	68
626.208	1	64
626.547	1	67
626.886	1	58
627.226	1	63
627.565	1	70
627.904	1	66
628.243	1	58
628.583	1	63
628.922	1	52
629.261	1	71
629.600	1	71
629.940	1	77
630.279	1	65
630.618	1	56
630.957	1	61
631.297	1	55
631.636	1	57
631.975	1	69
632.314	1	69
632.653	1	53
632.993	1	63
633.332	1	68
633.671	1	64
634.010	1	55
634.349	1	70
634.689	1	71
635.028	1	63
635.367	1	49
635.706	1	49
636.045	1	52
636.384	1	62
636.724	1	63
637.063	1	46
637.402	1	66
637.741	1	57
638.080	1	58
638.419	1	57
638.759	1	60
639.098	1	49
639.437	1	47
639.776	1	52
640.115	1	49
640.454	1	57
640.793	1	60
641.132	1	68
641.472	1	46
641.811	1	51
642.150	1	46
642.489	1	51
642.828	1	59
643.167	1	61
643.506	1	41
643.845	1	47
644.184	1	60
644.524	1	42
644.863	1	45
645.202	1	50
645.541	1	40
645.880	1	45
646.219	1	46
646.558	1	55
646.897	1	44
647.236	1	51
647.575	1	50
647.914	1	49
648.253	1	41
648.592	1	52
648.931	1	44
649.270	1	58
649.610	1	61
649.949	1	45
650.288	1	46
650.627	1	43
650.966	1	37
651.305	1	37
651.644	1	39
651.983	1	35
652.322	1	62
652.661	1	42
653.000	1	50
653.339	1	54
653.678	1	37
654.017	1	46
654.356	1	56
654.695	1	45
655.034	1	39
655.373	1	48
655.712	1	41
656.051	1	51
656.390	1	43
656.729	1	49
657.068	1	43
657.406	1	48
657.745	1	28
658.084	1	48
658.423	1	31
658.762	1	26
659.101	1	28
659.440	1	50
659.779	1	29
660.118	1	50
660.457	1	29
660.796	1	35
661.135	1	41
661.474	1	35
661.813	1	33
662.152	1	39
662.491	1	31
662.829	1	21
663.168	1	38
663.507	1	31
663.846	1	43
664.185	1	31
664.524	1	18
664.863	1	40
665.202	1	28
665.541	1	27
665.879	1	32
666.218	1	29
666.557	1	37
666.896	1	23
667.235	1	36
667.574	1	32
667.913	1	40
668.251	1	44
668.590	1	26
668.929	1	34
669.268	1	39
669.607	1	23
669.946	1	42
670.285	1	41
670.623	1	33
670.962	1	34
671.301	1	16
671.640	1	17
671.979	1	50
672.317	1	23
672.656	1	39
672.995	1	32
673.334	1	40
673.673	1	54
674.011	1	36
674.350	1	15
674.689	1	28
675.028	1	30
675.367	1	33
675.705	1	31
676.044	1	26
676.383	1	23
676.722	1	28
677.060	1	37
677.399	1	34
677.738	1	21
678.077	1	37
678.416	1	24
678.754	1	29
679.093	1	40
679.432	1	29
679.771	1	21
680.109	1	32
680.448	1	22
680.787	1	26
681.125	1	34
681.464	1	25
681.803	1	20
682.142	1	43
682.480	1	32
682.819	1	32
683.158	1	29
683.496	1	30
683.835	1	30
684.174	1	17
684.512	1	29
684.851	1	26
685.190	1	33
685.529	1	25
685.867	1	42
686.206	1	38
686.545	1	40
686.883	1	26
687.222	1	32
687.561	1	38
687.899	1	30
688.238	1	41
688.577	1	34
688.746	1	41