File: Analysis/GaN_68K_200ms/GaN_sample E_spot4_UVVIS_68 K_200um_200 ms 2x2mm1_116.txt
340.368	1	3
340.710	1	6
341.052	1	13
341.394	1	3
341.737	1	15
342.079	1	-1
342.421	1	9
342.763	1	7
343.105	1	23
343.447	1	18
343.789	1	8
344.131	1	8
344.473	1	-2
344.815	1	13
345.157	1	14
345.499	1	15
345.841	1	10
346.183	1	7
346.526	1	13
346.868	1	2
347.210	1	4
347.552	1	-3
347.894	1	2
348.236	1	15
348.578	1	15
348.920	1	22
349.262	1	18
349.604	1	17
349.946	1	15
350.288	1	12
350.630	1	10
350.972	1	10
351.314	1	9
351.656	1	16
351.998	1	7
352.340	1	14
352.682	1	10
353.024	1	12
353.366	1	19
353.708	1	19
354.050	1	16
354.392	1	12
354.734	1	5
355.076	1	18
355.418	1	8
355.760	1	24
356.102	1	7
356.444	1	10
356.785	1	21
357.127	1	12
357.469	1	13
357.811	1	28
358.153	1	15
358.495	1	16
358.837	1	16
359.179	1	20
359.521	1	14
359.863	1	12
360.205	1	18
360.547	1	25
360.889	1	28
361.231	1	22
361.572	1	33
361.914	1	30
362.256	1	40
362.598	1	59
362.940	1	57
363.282	1	80
363.624	1	89
363.966	1	113
364.308	1	115
364.649	1	154
364.991	1	213
365.333	1	239
365.675	1	264
366.017	1	297
366.359	1	320
366.701	1	316
367.042	1	334
367.384	1	328
367.726	1	310
368.068	1	265
368.410	1	276
368.752	1	224
369.093	1	197
369.435	1	166
369.777	1	158
370.119	1	134
370.461	1	117
370.803	1	114
371.144	1	117
371.486	1	102
371.828	1	95
372.170	1	102
372.512	1	78
372.853	1	97
373.195	1	83
373.537	1	84
373.879	1	95
374.220	1	90
374.562	1	85
374.904	1	83
375.246	1	83
375.588	1	82
375.929	1	82
376.271	1	79
376.613	1	75
376.955	1	86
377.296	1	86
377.638	1	93
377.980	1	88
378.321	1	91
378.663	1	88
379.005	1	108
379.347	1	112
379.688	1	120
380.030	1	130
380.372	1	154
380.714	1	175
381.055	1	204
381.397	1	225
381.739	1	295
382.080	1	322
382.422	1	413
382.764	1	495
383.105	1	586
383.447	1	706
383.789	1	833
384.130	1	1013
384.472	1	1176
384.814	1	1378
385.156	1	1559
385.497	1	1732
385.839	1	1862
386.180	1	2011
386.522	1	2083
386.864	1	2231
387.205	1	2269
387.547	1	2302
387.889	1	2295
388.230	1	2274
388.572	1	2245
388.914	1	2181
389.255	1	2164
389.597	1	2086
389.939	1	2080
390.280	1	2039
390.622	1	1954
390.963	1	1920
391.305	1	1868
391.647	1	1831
391.988	1	1786
392.330	1	1704
392.671	1	1637
393.013	1	1587
393.355	1	1560
393.696	1	1502
394.038	1	1544
394.379	1	1466
394.721	1	1538
395.062	1	1563
395.404	1	1604
395.746	1	1653
396.087	1	1734
396.429	1	1787
396.770	1	1873
397.112	1	1923
397.453	1	1961
397.795	1	2016
398.136	1	2051
398.478	1	2016
398.819	1	2003
399.161	1	1991
399.503	1	1929
399.844	1	1833
400.186	1	1792
400.527	1	1695
400.869	1	1628
401.210	1	1572
401.552	1	1517
401.893	1	1445
402.235	1	1412
402.576	1	1377
402.918	1	1317
403.259	1	1263
403.601	1	1248
403.942	1	1253
404.284	1	1238
404.625	1	1199
404.967	1	1185
405.308	1	1182
405.649	1	1191
405.991	1	1163
406.332	1	1112
406.674	1	1171
407.015	1	1149
407.357	1	1119
407.698	1	1107
408.040	1	1116
408.381	1	1091
408.722	1	1114
409.064	1	1112
409.405	1	1074
409.747	1	1049
410.088	1	1048
410.430	1	1026
410.771	1	996
411.112	1	1001
411.454	1	981
411.795	1	938
412.137	1	915
412.478	1	883
412.819	1	849
413.161	1	837
413.502	1	834
413.844	1	777
414.185	1	740
414.526	1	731
414.868	1	725
415.209	1	677
415.550	1	669
415.892	1	659
416.233	1	635
416.575	1	631
416.916	1	625
417.257	1	659
417.599	1	637
417.940	1	623
418.281	1	627
418.623	1	600
418.964	1	611
419.305	1	620
419.647	1	595
419.988	1	577
420.329	1	580
420.671	1	572
421.012	1	563
421.353	1	527
421.695	1	513
422.036	1	516
422.377	1	475
422.718	1	488
423.060	1	455
423.401	1	441
423.742	1	424
424.084	1	422
424.425	1	424
424.766	1	393
425.107	1	387
425.449	1	391
425.790	1	369
426.131	1	381
426.472	1	360
426.814	1	370
427.155	1	364
427.496	1	350
427.837	1	335
428.179	1	354
428.520	1	322
428.861	1	343
429.202	1	331
429.544	1	316
429.885	1	317
430.226	1	308
430.567	1	311
430.909	1	289
431.250	1	281
431.591	1	264
431.932	1	270
432.273	1	256
432.615	1	255
432.956	1	233
433.297	1	240
433.638	1	222
433.979	1	227
434.320	1	230
434.662	1	206
435.003	1	220
435.344	1	212
435.685	1	206
436.026	1	200
436.368	1	194
436.709	1	187
437.050	1	205
437.391	1	201
437.732	1	195
438.073	1	194
438.414	1	174
438.756	1	174
439.097	1	178
439.438	1	179
439.779	1	144
440.120	1	158
440.461	1	143
440.802	1	145
441.143	1	149
441.485	1	130
441.826	1	128
442.167	1	144
442.508	1	128
442.849	1	146
443.190	1	122
443.531	1	130
443.872	1	125
444.213	1	127
444.554	1	126
444.895	1	124
445.237	1	119
445.578	1	121
445.919	1	105
446.260	1	113
446.601	1	109
446.942	1	107
447.283	1	100
447.624	1	105
447.965	1	90
448.306	1	104
448.647	1	123
448.988	1	81
449.329	1	86
449.670	1	101
450.011	1	84
450.352	1	102
450.693	1	92
451.034	1	101
451.375	1	80
451.716	1	90
452.057	1	93
452.398	1	85
452.739	1	88
453.080	1	81
453.421	1	76
453.762	1	81
454.103	1	78
454.444	1	81
454.785	1	60
455.126	1	69
455.467	1	74
455.808	1	62
456.149	1	69
456.490	1	71
456.831	1	64
457.172	1	69
457.513	1	72
457.854	1	58
458.195	1	55
458.536	1	57
458.877	1	54
459.218	1	60
459.559	1	56
459.899	1	66
460.240	1	48
460.581	1	64
460.922	1	52
461.263	1	57
461.604	1	54
461.945	1	53
462.286	1	51
462.627	1	56
462.968	1	46
463.309	1	37
463.649	1	41
463.990	1	43
464.331	1	49
464.672	1	41
465.013	1	36
465.354	1	40
465.695	1	43
466.036	1	51
466.376	1	36
466.717	1	33
467.058	1	44
467.399	1	46
467.740	1	47
468.081	1	43
468.422	1	42
468.762	1	29
469.103	1	42
469.444	1	37
469.785	1	46
470.126	1	33
470.467	1	26
470.807	1	42
471.148	1	30
471.489	1	22
471.830	1	51
472.171	1	39
472.511	1	29
472.852	1	24
473.193	1	29
473.534	1	25
473.875	1	32
474.215	1	27
474.556	1	24
474.897	1	24
475.238	1	27
475.578	1	41
475.919	1	34
476.260	1	32
476.601	1	23
476.942	1	25
477.282	1	21
477.623	1	28
477.964	1	28
478.305	1	20
478.645	1	22
478.986	1	30
479.327	1	29
479.667	1	16
480.008	1	29
480.349	1	23
480.690	1	19
481.030	1	25
481.371	1	31
481.712	1	21
482.053	1	26
482.393	1	1
482.734	1	28
483.075	1	30
483.415	1	33
483.756	1	28
484.097	1	22
484.437	1	10
484.778	1	17
485.119	1	28
485.459	1	26
485.800	1	14
486.141	1	16
486.481	1	32
486.822	1	26
487.163	1	20
487.503	1	10
487.844	1	24
488.185	1	25
488.525	1	25
488.866	1	30
489.207	1	28
489.547	1	14
489.888	1	21
490.228	1	9
490.569	1	26
490.910	1	25
491.250	1	23
491.591	1	19
491.932	1	25
492.272	1	31
492.613	1	29
492.953	1	16
493.294	1	27
493.635	1	22
493.975	1	20
494.316	1	35
494.656	1	19
494.997	1	10
495.337	1	23
495.678	1	27
496.019	1	27
496.359	1	21
496.700	1	5
497.040	1	26
497.381	1	11
497.721	1	24
498.062	1	24
498.403	1	27
498.743	1	25
499.084	1	11
499.424	1	43
499.765	1	24
500.105	1	41
500.446	1	29
500.786	1	32
501.127	1	39
501.467	1	22
501.808	1	25
502.148	1	28
502.489	1	30
502.829	1	33
503.170	1	34
503.510	1	32
503.851	1	11
504.191	1	29
504.532	1	28
504.872	1	21
505.213	1	27
505.553	1	41
505.894	1	42
506.234	1	28
506.575	1	41
506.915	1	38
507.256	1	33
507.596	1	34
507.936	1	37
508.277	1	35
508.617	1	48
508.958	1	49
509.298	1	53
509.639	1	50
509.979	1	32
510.319	1	43
510.660	1	51
511.000	1	45
511.341	1	42
511.681	1	44
512.022	1	44
512.362	1	42
512.702	1	37
513.043	1	43
513.383	1	40
513.724	1	41
514.064	1	46
514.404	1	47
514.745	1	37
515.085	1	42
515.425	1	39
515.766	1	43
516.106	1	35
516.447	1	52
516.787	1	45
517.127	1	57
517.468	1	53
517.808	1	49
518.148	1	53
518.489	1	53
518.829	1	48
519.169	1	56
519.510	1	50
519.850	1	48
520.190	1	63
520.531	1	52
520.871	1	49
521.211	1	50
521.552	1	61
521.892	1	52
522.232	1	49
522.573	1	59
522.913	1	57
523.253	1	57
523.593	1	47
523.934	1	63
524.274	1	47
524.614	1	65
524.955	1	53
525.295	1	57
525.635	1	70
525.975	1	60
526.316	1	64
526.656	1	71
526.996	1	64
527.337	1	65
527.677	1	72
528.017	1	59
528.357	1	63
528.698	1	65
529.038	1	80
529.378	1	71
529.718	1	78
530.058	1	65
530.399	1	77
530.739	1	74
531.079	1	77
531.419	1	78
531.760	1	79
532.100	1	80
532.440	1	70
532.780	1	70
533.120	1	67
533.461	1	89
533.801	1	73
534.141	1	74
534.481	1	78
534.821	1	81
535.162	1	79
535.502	1	78
535.842	1	71
536.182	1	75
536.522	1	76
536.862	1	71
537.203	1	73
537.543	1	75
537.883	1	73
538.223	1	77
538.563	1	70
538.903	1	77
539.243	1	77
539.584	1	65
539.924	1	71
540.264	1	71
540.604	1	80
540.944	1	73
541.284	1	63
541.624	1	78
541.964	1	78
542.305	1	73
542.645	1	73
542.985	1	63
543.325	1	70
543.665	1	84
544.005	1	79
544.345	1	77
544.685	1	80
545.025	1	76
545.365	1	83
545.705	1	86
546.045	1	85
546.386	1	68
546.726	1	83
547.066	1	77
547.406	1	94
547.746	1	86
548.086	1	78
548.426	1	75
548.766	1	80
549.106	1	93
549.446	1	85
549.786	1	88
550.126	1	73
550.466	1	73
550.806	1	92
551.146	1	83
551.486	1	88
551.826	1	88
552.166	1	85
552.506	1	80
552.846	1	88
553.186	1	95
553.526	1	89
553.866	1	90
554.206	1	86
554.546	1	86
554.886	1	80
555.226	1	77
555.566	1	92
555.906	1	92
556.246	1	83
556.586	1	97
556.926	1	86
557.266	1	88
557.606	1	83
557.946	1	95
558.286	1	86
558.626	1	86
558.966	1	91
559.306	1	78
559.646	1	83
559.986	1	82
560.325	1	74
560.665	1	85
561.005	1	87
561.345	1	80
561.685	1	86
562.025	1	76
562.365	1	81
562.705	1	78
563.045	1	96
563.385	1	73
563.725	1	83
564.064	1	84
564.404	1	79
564.744	1	87
565.084	1	79
565.424	1	79
565.764	1	85
566.104	1	78
566.444	1	86
566.783	1	82
567.123	1	95
567.463	1	88
567.803	1	81
568.143	1	81
568.483	1	79
568.823	1	91
569.162	1	95
569.502	1	85
569.842	1	81
570.182	1	83
570.522	1	94
570.862	1	89
571.201	1	88
571.541	1	82
571.881	1	77
572.221	1	83
572.561	1	77
572.900	1	97
573.240	1	71
573.580	1	88
573.920	1	82
574.260	1	81
574.599	1	80
574.939	1	78
575.279	1	79
575.619	1	85
575.959	1	79
576.298	1	73
576.638	1	74
576.978	1	77
577.318	1	90
577.657	1	63
577.997	1	80
578.337	1	81
578.677	1	79
579.016	1	90
579.356	1	77
579.696	1	84
580.036	1	81
580.375	1	76
580.715	1	89
581.055	1	81
581.394	1	78
581.734	1	81
582.074	1	70
582.414	1	81
582.753	1	85
583.093	1	82
583.433	1	72
583.772	1	77
584.112	1	90
584.452	1	82
584.791	1	88
585.131	1	79
585.471	1	78
585.811	1	73
586.150	1	86
586.490	1	85
586.830	1	76
587.169	1	77
587.509	1	76
587.849	1	94
588.188	1	69
588.528	1	88
588.867	1	81
589.207	1	72
589.547	1	62
589.886	1	70
590.226	1	70
590.566	1	80
590.905	1	77
591.245	1	72
591.585	1	72
591.924	1	76
592.264	1	65
592.603	1	71
592.943	1	56
593.283	1	77
593.622	1	77
593.962	1	75
594.301	1	81
594.641	1	65
594.981	1	64
595.320	1	76
595.660	1	52
595.999	1	65
596.339	1	65
596.678	1	71
597.018	1	78
597.358	1	75
597.697	1	67
598.037	1	71
598.376	1	66
598.716	1	65
599.055	1	62
599.395	1	67
599.734	1	60
600.074	1	59
600.413	1	67
600.753	1	66
601.092	1	52
601.432	1	65
601.771	1	76
602.111	1	69
602.451	1	73
602.790	1	63
603.130	1	68
603.469	1	66
603.809	1	67
604.148	1	76
604.487	1	67
604.827	1	51
605.166	1	65
605.506	1	65
605.845	1	61
606.185	1	76
606.524	1	57
606.864	1	62
607.203	1	75
607.543	1	54
607.882	1	62
608.222	1	79
608.561	1	65
608.901	1	67
609.240	1	68
609.579	1	68
609.919	1	60
610.258	1	75
610.598	1	63
610.937	1	54
611.277	1	66
611.616	1	55
611.955	1	70
612.295	1	64
612.634	1	64
612.974	1	62
613.313	1	65
613.652	1	65
613.992	1	67
614.331	1	63
614.671	1	53
615.010	1	71
615.349	1	51
615.689	1	58
616.028	1	49
616.368	1	51
616.707	1	48
617.046	1	58
617.386	1	61
617.725	1	59
618.064	1	50
618.404	1	58
618.743	1	48
619.082	1	52
619.422	1	52
619.761	1	51
620.100	1	52
620.440	1	51
620.779	1	52
621.118	1	48
621.458	1	54
621.797	1	49
622.136	1	60
622.476	1	51
622.815	1	46
623.154	1	51
623.494	1	58
623.833	1	45
624.172	1	62
624.511	1	48
624.851	1	46
625.190	1	41
625.529	1	47
625.869	1	50
626.208	1	43
626.547	1	42
626.886	1	47
627.226	1	50
627.565	1	49
627.904	1	38
628.243	1	37
628.583	1	50
628.922	1	49
629.261	1	53
629.600	1	50
629.940	1	53
630.279	1	35
630.618	1	44
630.957	1	43
631.297	1	41
631.636	1	46
631.975	1	44
632.314	1	50
632.653	1	37
632.993	1	47
633.332	1	42
633.671	1	40
634.010	1	42
634.349	1	39
634.689	1	46
635.028	1	52
635.367	1	38
635.706	1	31
636.045	1	40
636.384	1	47
636.724	1	49
637.063	1	45
637.402	1	53
637.741	1	45
638.080	1	42
638.419	1	44
638.759	1	31
639.098	1	43
639.437	1	37
639.776	1	35
640.115	1	41
640.454	1	48
640.793	1	46
641.132	1	38
641.472	1	35
641.811	1	37
642.150	1	33
642.489	1	31
642.828	1	34
643.167	1	49
643.506	1	28
643.845	1	38
644.184	1	41
644.524	1	27
644.863	1	24
645.202	1	33
645.541	1	30
645.880	1	43
646.219	1	31
646.558	1	37
646.897	1	27
647.236	1	31
647.575	1	43
647.914	1	15
648.253	1	33
648.592	1	29
648.931	1	52
649.270	1	42
649.610	1	32
649.949	1	29
650.288	1	31
650.627	1	38
650.966	1	27
651.305	1	29
651.644	1	30
651.983	1	28
652.322	1	35
652.661	1	31
653.000	1	28
653.339	1	34
653.678	1	35
654.017	1	27
654.356	1	45
654.695	1	41
655.034	1	22
655.373	1	27
655.712	1	31
656.051	1	33
656.390	1	32
656.729	1	42
657.068	1	31
657.406	1	24
657.745	1	18
658.084	1	38
658.423	1	15
658.762	1	30
659.101	1	34
659.440	1	32
659.779	1	18
660.118	1	28
660.457	1	24
660.796	1	20
661.135	1	30
661.474	1	18
661.813	1	19
662.152	1	19
662.491	1	28
662.829	1	25
663.168	1	14
663.507	1	21
663.846	1	25
664.185	1	27
664.524	1	10
664.863	1	23
665.202	1	13
665.541	1	17
665.879	1	17
666.218	1	11
666.557	1	19
666.896	1	14
667.235	1	29
667.574	1	30
667.913	1	26
668.251	1	19
668.590	1	16
668.929	1	24
669.268	1	24
669.607	1	10
669.946	1	20
670.285	1	23
670.623	1	30
670.962	1	17
671.301	1	19
671.640	1	13
671.979	1	25
672.317	1	15
672.656	1	24
672.995	1	21
673.334	1	16
673.673	1	32
674.011	1	29
674.350	1	18
674.689	1	16
675.028	1	25
675.367	1	35
675.705	1	13
676.044	1	13
676.383	1	16
676.722	1	15
677.060	1	23
677.399	1	21
677.738	1	15
678.077	1	17
678.416	1	22
678.754	1	18
679.093	1	22
679.432	1	22
679.771	1	14
680.109	1	32
680.448	1	23
680.787	1	24
681.125	1	18
681.464	1	17
681.803	1	3
682.142	1	28
682.480	1	16
682.819	1	18
683.158	1	17
683.496	1	19
683.835	1	24
684.174	1	16
684.512	1	14
684.851	1	18
685.190	1	22
685.529	1	17
685.867	1	23
686.206	1	26
686.545	1	18
686.883	1	13
687.222	1	6
687.561	1	16
687.899	1	17
688.238	1	11
688.577	1	5
688.746	1	29