File: Analysis/GaN_68K_200ms/GaN_sample E_spot4_UVVIS_68 K_200um_200 ms 2x2mm1_37.txt
340.368	1	-1
340.710	1	-2
341.052	1	3
341.394	1	0
341.737	1	6
342.079	1	-7
342.421	1	-1
342.763	1	-7
343.105	1	9
343.447	1	8
343.789	1	-7
344.131	1	-2
344.473	1	2
344.815	1	4
345.157	1	1
345.499	1	6
345.841	1	0
346.183	1	-3
346.526	1	3
346.868	1	5
347.210	1	4
347.552	1	-1
347.894	1	5
348.236	1	6
348.578	1	1
348.920	1	8
349.262	1	-3
349.604	1	11
349.946	1	9
350.288	1	2
350.630	1	-13
350.972	1	0
351.314	1	-4
351.656	1	-2
351.998	1	3
352.340	1	3
352.682	1	-4
353.024	1	-2
353.366	1	7
353.708	1	10
354.050	1	0
354.392	1	13
354.734	1	0
355.076	1	6
355.418	1	2
355.760	1	3
356.102	1	5
356.444	1	-2
356.785	1	7
357.127	1	8
357.469	1	11
357.811	1	14
358.153	1	5
358.495	1	7
358.837	1	1
359.179	1	14
359.521	1	0
359.863	1	-5
360.205	1	-1
360.547	1	1
360.889	1	5
361.231	1	0
361.572	1	-9
361.914	1	-3
362.256	1	11
362.598	1	8
362.940	1	-2
363.282	1	-7
363.624	1	5
363.966	1	8
364.308	1	-6
364.649	1	0
364.991	1	8
365.333	1	2
365.675	1	2
366.017	1	1
366.359	1	-4
366.701	1	1
367.042	1	7
367.384	1	8
367.726	1	15
368.068	1	-1
368.410	1	0
368.752	1	-8
369.093	1	-3
369.435	1	14
369.777	1	4
370.119	1	6
370.461	1	2
370.803	1	-4
371.144	1	3
371.486	1	14
371.828	1	-3
372.170	1	1
372.512	1	-2
372.853	1	7
373.195	1	-12
373.537	1	-3
373.879	1	1
374.220	1	8
374.562	1	3
374.904	1	12
375.246	1	7
375.588	1	5
375.929	1	1
376.271	1	-3
376.613	1	-1
376.955	1	-2
377.296	1	1
377.638	1	3
377.980	1	0
378.321	1	12
378.663	1	-2
379.005	1	9
379.347	1	-2
379.688	1	-5
380.030	1	-1
380.372	1	8
380.714	1	11
381.055	1	6
381.397	1	-4
381.739	1	3
382.080	1	-6
382.422	1	14
382.764	1	-5
383.105	1	-5
383.447	1	8
383.789	1	1
384.130	1	-8
384.472	1	-4
384.814	1	-3
385.156	1	11
385.497	1	6
385.839	1	-3
386.180	1	0
386.522	1	1
386.864	1	0
387.205	1	-2
387.547	1	-9
387.889	1	15
388.230	1	5
388.572	1	3
388.914	1	2
389.255	1	3
389.597	1	-3
389.939	1	7
390.280	1	9
390.622	1	-5
390.963	1	-4
391.305	1	11
391.647	1	7
391.988	1	-1
392.330	1	3
392.671	1	13
393.013	1	8
393.355	1	6
393.696	1	4
394.038	1	-11
394.379	1	-2
394.721	1	-3
395.062	1	-7
395.404	1	11
395.746	1	-7
396.087	1	2
396.429	1	-2
396.770	1	5
397.112	1	-3
397.453	1	-5
397.795	1	-5
398.136	1	7
398.478	1	-3
398.819	1	6
399.161	1	11
399.503	1	-2
399.844	1	-3
400.186	1	2
400.527	1	4
400.869	1	11
401.210	1	-4
401.552	1	5
401.893	1	-1
402.235	1	7
402.576	1	-1
402.918	1	-10
403.259	1	-15
403.601	1	-3
403.942	1	-1
404.284	1	3
404.625	1	-3
404.967	1	-5
405.308	1	-2
405.649	1	-8
405.991	1	3
406.332	1	2
406.674	1	3
407.015	1	-6
407.357	1	3
407.698	1	-7
408.040	1	-6
408.381	1	-3
408.722	1	-6
409.064	1	8
409.405	1	8
409.747	1	-10
410.088	1	-2
410.430	1	4
410.771	1	3
411.112	1	5
411.454	1	6
411.795	1	2
412.137	1	3
412.478	1	-3
412.819	1	-7
413.161	1	3
413.502	1	-1
413.844	1	-7
414.185	1	1
414.526	1	8
414.868	1	7
415.209	1	-5
415.550	1	0
415.892	1	0
416.233	1	-5
416.575	1	-1
416.916	1	-3
417.257	1	7
417.599	1	0
417.940	1	-5
418.281	1	1
418.623	1	-7
418.964	1	0
419.305	1	-4
419.647	1	5
419.988	1	-3
420.329	1	13
420.671	1	0
421.012	1	2
421.353	1	0
421.695	1	-2
422.036	1	5
422.377	1	1
422.718	1	-3
423.060	1	2
423.401	1	1
423.742	1	-1
424.084	1	1
424.425	1	2
424.766	1	4
425.107	1	8
425.449	1	8
425.790	1	3
426.131	1	2
426.472	1	-8
426.814	1	4
427.155	1	-2
427.496	1	14
427.837	1	-3
428.179	1	-12
428.520	1	2
428.861	1	-8
429.202	1	12
429.544	1	2
429.885	1	-6
430.226	1	-1
430.567	1	8
430.909	1	-5
431.250	1	-12
431.591	1	5
431.932	1	-4
432.273	1	-5
432.615	1	6
432.956	1	2
433.297	1	7
433.638	1	1
433.979	1	0
434.320	1	1
434.662	1	3
435.003	1	7
435.344	1	10
435.685	1	6
436.026	1	1
436.368	1	-3
436.709	1	-1
437.050	1	0
437.391	1	5
437.732	1	0
438.073	1	5
438.414	1	2
438.756	1	-3
439.097	1	10
439.438	1	7
439.779	1	2
440.120	1	-2
440.461	1	-8
440.802	1	7
441.143	1	9
441.485	1	2
441.826	1	2
442.167	1	-5
442.508	1	-2
442.849	1	18
443.190	1	-11
443.531	1	3
443.872	1	5
444.213	1	-3
444.554	1	4
444.895	1	-1
445.237	1	-9
445.578	1	10
445.919	1	4
446.260	1	2
446.601	1	-4
446.942	1	-1
447.283	1	9
447.624	1	7
447.965	1	-2
448.306	1	4
448.647	1	12
448.988	1	-12
449.329	1	3
449.670	1	8
450.011	1	-4
450.352	1	17
450.693	1	9
451.034	1	-5
451.375	1	4
451.716	1	1
452.057	1	12
452.398	1	0
452.739	1	3
453.080	1	14
453.421	1	0
453.762	1	8
454.103	1	3
454.444	1	15
454.785	1	-9
455.126	1	-1
455.467	1	10
455.808	1	2
456.149	1	-5
456.490	1	10
456.831	1	6
457.172	1	4
457.513	1	16
457.854	1	5
458.195	1	-3
458.536	1	4
458.877	1	5
459.218	1	8
459.559	1	-1
459.899	1	13
460.240	1	1
460.581	1	8
460.922	1	3
461.263	1	12
461.604	1	-3
461.945	1	7
462.286	1	5
462.627	1	4
462.968	1	-3
463.309	1	-2
463.649	1	1
463.990	1	4
464.331	1	5
464.672	1	2
465.013	1	-6
465.354	1	2
465.695	1	12
466.036	1	2
466.376	1	0
466.717	1	0
467.058	1	12
467.399	1	6
467.740	1	1
468.081	1	7
468.422	1	9
468.762	1	-4
469.103	1	-8
469.444	1	1
469.785	1	-2
470.126	1	8
470.467	1	-5
470.807	1	-8
471.148	1	2
471.489	1	4
471.830	1	15
472.171	1	1
472.511	1	6
472.852	1	-4
473.193	1	0
473.534	1	-5
473.875	1	5
474.215	1	-5
474.556	1	2
474.897	1	-2
475.238	1	-3
475.578	1	4
475.919	1	1
476.260	1	-2
476.601	1	3
476.942	1	-1
477.282	1	-13
477.623	1	6
477.964	1	8
478.305	1	1
478.645	1	-7
478.986	1	17
479.327	1	-11
479.667	1	0
480.008	1	13
480.349	1	0
480.690	1	2
481.030	1	-5
481.371	1	4
481.712	1	5
482.053	1	0
482.393	1	-10
482.734	1	3
483.075	1	4
483.415	1	9
483.756	1	17
484.097	1	-5
484.437	1	-8
484.778	1	6
485.119	1	13
485.459	1	9
485.800	1	-1
486.141	1	-3
486.481	1	1
486.822	1	6
487.163	1	-13
487.503	1	-15
487.844	1	-4
488.185	1	-4
488.525	1	-1
488.866	1	4
489.207	1	15
489.547	1	2
489.888	1	-2
490.228	1	-3
490.569	1	11
490.910	1	-5
491.250	1	5
491.591	1	-6
491.932	1	6
492.272	1	6
492.613	1	1
492.953	1	4
493.294	1	8
493.635	1	-3
493.975	1	2
494.316	1	11
494.656	1	0
494.997	1	-4
495.337	1	0
495.678	1	8
496.019	1	-1
496.359	1	3
496.700	1	5
497.040	1	-7
497.381	1	-21
497.721	1	2
498.062	1	3
498.403	1	3
498.743	1	12
499.084	1	-3
499.424	1	12
499.765	1	2
500.105	1	5
500.446	1	4
500.786	1	2
501.127	1	11
501.467	1	8
501.808	1	-8
502.148	1	3
502.489	1	5
502.829	1	7
503.170	1	4
503.510	1	-2
503.851	1	-1
504.191	1	-9
504.532	1	-5
504.872	1	-10
505.213	1	-10
505.553	1	-1
505.894	1	-2
506.234	1	12
506.575	1	-1
506.915	1	-1
507.256	1	-5
507.596	1	3
507.936	1	6
508.277	1	-10
508.617	1	5
508.958	1	17
509.298	1	13
509.639	1	10
509.979	1	4
510.319	1	-5
510.660	1	7
511.000	1	2
511.341	1	-12
511.681	1	7
512.022	1	-8
512.362	1	3
512.702	1	-1
513.043	1	-5
513.383	1	-5
513.724	1	5
514.064	1	8
514.404	1	9
514.745	1	0
515.085	1	0
515.425	1	-6
515.766	1	-6
516.106	1	-5
516.447	1	0
516.787	1	2
517.127	1	3
517.468	1	3
517.808	1	4
518.148	1	4
518.489	1	2
518.829	1	-3
519.169	1	7
519.510	1	8
519.850	1	-7
520.190	1	-8
520.531	1	5
520.871	1	-4
521.211	1	-4
521.552	1	1
521.892	1	-14
522.232	1	-9
522.573	1	1
522.913	1	3
523.253	1	-3
523.593	1	-13
523.934	1	9
524.274	1	-5
524.614	1	-4
524.955	1	0
525.295	1	-9
525.635	1	8
525.975	1	-10
526.316	1	0
526.656	1	8
526.996	1	6
527.337	1	-3
527.677	1	11
528.017	1	-2
528.357	1	0
528.698	1	-12
529.038	1	7
529.378	1	-4
529.718	1	2
530.058	1	6
530.399	1	10
530.739	1	-7
531.079	1	5
531.419	1	8
531.760	1	-7
532.100	1	5
532.440	1	1
532.780	1	-7
533.120	1	1
533.461	1	5
533.801	1	-1
534.141	1	17
534.481	1	-8
534.821	1	4
535.162	1	1
535.502	1	10
535.842	1	0
536.182	1	5
536.522	1	-1
536.862	1	-3
537.203	1	-6
537.543	1	-3
537.883	1	-1
538.223	1	3
538.563	1	0
538.903	1	-6
539.243	1	10
539.584	1	13
539.924	1	0
540.264	1	3
540.604	1	5
540.944	1	1
541.284	1	0
541.624	1	-5
541.964	1	1
542.305	1	2
542.645	1	2
542.985	1	-10
543.325	1	-8
543.665	1	11
544.005	1	2
544.345	1	-6
544.685	1	3
545.025	1	-4
545.365	1	-3
545.705	1	6
546.045	1	6
546.386	1	0
546.726	1	-8
547.066	1	-3
547.406	1	2
547.746	1	10
548.086	1	4
548.426	1	1
548.766	1	7
549.106	1	0
549.446	1	-4
549.786	1	3
550.126	1	2
550.466	1	-8
550.806	1	9
551.146	1	-2
551.486	1	12
551.826	1	10
552.166	1	-1
552.506	1	-4
552.846	1	10
553.186	1	0
553.526	1	-1
553.866	1	4
554.206	1	4
554.546	1	-12
554.886	1	-4
555.226	1	-8
555.566	1	4
555.906	1	1
556.246	1	-2
556.586	1	14
556.926	1	11
557.266	1	14
557.606	1	-11
557.946	1	9
558.286	1	2
558.626	1	12
558.966	1	-3
559.306	1	-4
559.646	1	-2
559.986	1	-8
560.325	1	-7
560.665	1	9
561.005	1	9
561.345	1	0
561.685	1	0
562.025	1	-3
562.365	1	-2
562.705	1	10
563.045	1	5
563.385	1	-5
563.725	1	5
564.064	1	10
564.404	1	1
564.744	1	9
565.084	1	-8
565.424	1	3
565.764	1	11
566.104	1	-15
566.444	1	18
566.783	1	2
567.123	1	16
567.463	1	2
567.803	1	-6
568.143	1	-12
568.483	1	1
568.823	1	6
569.162	1	-2
569.502	1	1
569.842	1	-2
570.182	1	6
570.522	1	13
570.862	1	0
571.201	1	7
571.541	1	-9
571.881	1	9
572.221	1	8
572.561	1	-5
572.900	1	10
573.240	1	0
573.580	1	9
573.920	1	2
574.260	1	3
574.599	1	-12
574.939	1	0
575.279	1	10
575.619	1	4
575.959	1	-4
576.298	1	-7
576.638	1	-1
576.978	1	-5
577.318	1	7
577.657	1	-11
577.997	1	-4
578.337	1	3
578.677	1	-2
579.016	1	7
579.356	1	-6
579.696	1	2
580.036	1	-2
580.375	1	5
580.715	1	5
581.055	1	4
581.394	1	-1
581.734	1	3
582.074	1	-3
582.414	1	9
582.753	1	3
583.093	1	-2
583.433	1	-6
583.772	1	4
584.112	1	-1
584.452	1	7
584.791	1	3
585.131	1	-2
585.471	1	4
585.811	1	-3
586.150	1	6
586.490	1	-9
586.830	1	-6
587.169	1	-2
587.509	1	9
587.849	1	8
588.188	1	3
588.528	1	1
588.867	1	6
589.207	1	0
589.547	1	-4
589.886	1	-5
590.226	1	8
590.566	1	-2
590.905	1	10
591.245	1	0
591.585	1	-3
591.924	1	1
592.264	1	1
592.603	1	-1
592.943	1	-3
593.283	1	5
593.622	1	-3
593.962	1	10
594.301	1	7
594.641	1	-3
594.981	1	-6
595.320	1	13
595.660	1	-1
595.999	1	1
596.339	1	6
596.678	1	7
597.018	1	1
597.358	1	4
597.697	1	-2
598.037	1	-6
598.376	1	5
598.716	1	-4
599.055	1	2
599.395	1	6
599.734	1	-7
600.074	1	-4
600.413	1	0
600.753	1	7
601.092	1	-9
601.432	1	8
601.771	1	13
602.111	1	-10
602.451	1	1
602.790	1	-5
603.130	1	3
603.469	1	-8
603.809	1	9
604.148	1	6
604.487	1	7
604.827	1	-2
605.166	1	-7
605.506	1	1
605.845	1	-6
606.185	1	5
606.524	1	0
606.864	1	-3
607.203	1	10
607.543	1	1
607.882	1	-3
608.222	1	1
608.561	1	-3
608.901	1	4
609.240	1	10
609.579	1	12
609.919	1	-8
610.258	1	4
610.598	1	8
610.937	1	-7
611.277	1	3
611.616	1	-12
611.955	1	3
612.295	1	4
612.634	1	-3
612.974	1	9
613.313	1	10
613.652	1	-11
613.992	1	9
614.331	1	7
614.671	1	6
615.010	1	-1
615.349	1	0
615.689	1	2
616.028	1	7
616.368	1	-5
616.707	1	2
617.046	1	4
617.386	1	0
617.725	1	10
618.064	1	1
618.404	1	14
618.743	1	-7
619.082	1	0
619.422	1	5
619.761	1	11
620.100	1	3
620.440	1	-2
620.779	1	-2
621.118	1	-2
621.458	1	8
621.797	1	8
622.136	1	3
622.476	1	-2
622.815	1	1
623.154	1	3
623.494	1	0
623.833	1	-1
624.172	1	10
624.511	1	0
624.851	1	-8
625.190	1	0
625.529	1	8
625.869	1	-1
626.208	1	-4
626.547	1	0
626.886	1	4
627.226	1	3
627.565	1	7
627.904	1	6
628.243	1	-5
628.583	1	-1
628.922	1	-2
629.261	1	11
629.600	1	8
629.940	1	9
630.279	1	-3
630.618	1	7
630.957	1	-10
631.297	1	0
631.636	1	-9
631.975	1	10
632.314	1	10
632.653	1	-8
632.993	1	1
633.332	1	-3
633.671	1	1
634.010	1	-6
634.349	1	8
634.689	1	-8
635.028	1	9
635.367	1	-1
635.706	1	0
636.045	1	1
636.384	1	8
636.724	1	0
637.063	1	2
637.402	1	11
637.741	1	14
638.080	1	-3
638.419	1	4
638.759	1	3
639.098	1	-1
639.437	1	-7
639.776	1	-5
640.115	1	-9
640.454	1	13
640.793	1	5
641.132	1	10
641.472	1	-1
641.811	1	3
642.150	1	-7
642.489	1	1
642.828	1	11
643.167	1	2
643.506	1	-6
643.845	1	8
644.184	1	10
644.524	1	-3
644.863	1	-2
645.202	1	-7
645.541	1	-16
645.880	1	-1
646.219	1	6
646.558	1	-8
646.897	1	-5
647.236	1	7
647.575	1	-2
647.914	1	-2
648.253	1	-3
648.592	1	4
648.931	1	6
649.270	1	9
649.610	1	6
649.949	1	2
650.288	1	-11
650.627	1	-2
650.966	1	-1
651.305	1	0
651.644	1	-6
651.983	1	1
652.322	1	3
652.661	1	10
653.000	1	-4
653.339	1	10
653.678	1	-8
654.017	1	-5
654.356	1	7
654.695	1	2
655.034	1	1
655.373	1	-5
655.712	1	0
656.051	1	7
656.390	1	7
656.729	1	3
657.068	1	-11
657.406	1	1
657.745	1	-9
658.084	1	7
658.423	1	1
658.762	1	-4
659.101	1	-1
659.440	1	9
659.779	1	-1
660.118	1	-2
660.457	1	1
660.796	1	3
661.135	1	4
661.474	1	2
661.813	1	-3
662.152	1	0
662.491	1	9
662.829	1	-2
663.168	1	-5
663.507	1	2
663.846	1	8
664.185	1	-2
664.524	1	-6
664.863	1	5
665.202	1	-3
665.541	1	-7
665.879	1	1
666.218	1	-11
666.557	1	6
666.896	1	-1
667.235	1	7
667.574	1	6
667.913	1	3
668.251	1	-1
668.590	1	-6
668.929	1	6
669.268	1	3
669.607	1	-1
669.946	1	4
670.285	1	6
670.623	1	-1
670.962	1	3
671.301	1	-1
671.640	1	-8
671.979	1	15
672.317	1	7
672.656	1	0
672.995	1	-2
673.334	1	18
673.673	1	9
674.011	1	3
674.350	1	8
674.689	1	3
675.028	1	-4
675.367	1	-8
675.705	1	-13
676.044	1	-2
676.383	1	-4
676.722	1	1
677.060	1	2
677.399	1	-1
677.738	1	-5
678.077	1	2
678.416	1	-2
678.754	1	1
679.093	1	-5
679.432	1	-10
679.771	1	-3
680.109	1	2
680.448	1	12
680.787	1	-1
681.125	1	-3
681.464	1	4
681.803	1	-13
682.142	1	12
682.480	1	-1
682.819	1	-7
683.158	1	5
683.496	1	-6
683.835	1	4
684.174	1	1
684.512	1	-5
684.851	1	2
685.190	1	2
685.529	1	6
685.867	1	-3
686.206	1	7
686.545	1	2
686.883	1	-3
687.222	1	-2
687.561	1	-2
687.899	1	3
688.238	1	-1
688.577	1	-5
688.746	1	-1