File: Analysis/GaN_68K_200ms/GaN_sample E_spot4_UVVIS_68 K_200um_200 ms 2x2mm1_149.txt
340.368	1	10
340.710	1	-2
341.052	1	6
341.394	1	4
341.737	1	8
342.079	1	-3
342.421	1	1
342.763	1	-4
343.105	1	13
343.447	1	-5
343.789	1	2
344.131	1	-1
344.473	1	1
344.815	1	1
345.157	1	7
345.499	1	9
345.841	1	14
346.183	1	4
346.526	1	12
346.868	1	2
347.210	1	1
347.552	1	11
347.894	1	9
348.236	1	4
348.578	1	6
348.920	1	5
349.262	1	5
349.604	1	10
349.946	1	10
350.288	1	8
350.630	1	-1
350.972	1	7
351.314	1	8
351.656	1	10
351.998	1	4
352.340	1	12
352.682	1	8
353.024	1	6
353.366	1	8
353.708	1	10
354.050	1	16
354.392	1	8
354.734	1	1
355.076	1	11
355.418	1	0
355.760	1	14
356.102	1	9
356.444	1	12
356.785	1	24
357.127	1	9
357.469	1	0
357.811	1	19
358.153	1	16
358.495	1	17
358.837	1	10
359.179	1	20
359.521	1	15
359.863	1	12
360.205	1	22
360.547	1	17
360.889	1	24
361.231	1	18
361.572	1	21
361.914	1	23
362.256	1	30
362.598	1	28
362.940	1	39
363.282	1	38
363.624	1	31
363.966	1	34
364.308	1	40
364.649	1	50
364.991	1	50
365.333	1	67
365.675	1	50
366.017	1	66
366.359	1	64
366.701	1	60
367.042	1	76
367.384	1	74
367.726	1	65
368.068	1	55
368.410	1	63
368.752	1	51
369.093	1	60
369.435	1	50
369.777	1	51
370.119	1	52
370.461	1	48
370.803	1	34
371.144	1	53
371.486	1	50
371.828	1	41
372.170	1	52
372.512	1	43
372.853	1	36
373.195	1	27
373.537	1	33
373.879	1	45
374.220	1	39
374.562	1	21
374.904	1	20
375.246	1	32
375.588	1	32
375.929	1	31
376.271	1	23
376.613	1	24
376.955	1	11
377.296	1	30
377.638	1	21
377.980	1	25
378.321	1	27
378.663	1	18
379.005	1	29
379.347	1	22
379.688	1	15
380.030	1	26
380.372	1	17
380.714	1	24
381.055	1	21
381.397	1	19
381.739	1	24
382.080	1	19
382.422	1	44
382.764	1	33
383.105	1	42
383.447	1	47
383.789	1	46
384.130	1	30
384.472	1	39
384.814	1	61
385.156	1	62
385.497	1	66
385.839	1	71
386.180	1	70
386.522	1	68
386.864	1	68
387.205	1	58
387.547	1	61
387.889	1	77
388.230	1	61
388.572	1	70
388.914	1	73
389.255	1	70
389.597	1	57
389.939	1	70
390.280	1	66
390.622	1	66
390.963	1	71
391.305	1	69
391.647	1	58
391.988	1	47
392.330	1	71
392.671	1	59
393.013	1	64
393.355	1	59
393.696	1	55
394.038	1	51
394.379	1	51
394.721	1	55
395.062	1	50
395.404	1	51
395.746	1	57
396.087	1	55
396.429	1	59
396.770	1	65
397.112	1	54
397.453	1	59
397.795	1	66
398.136	1	63
398.478	1	52
398.819	1	59
399.161	1	61
399.503	1	57
399.844	1	55
400.186	1	70
400.527	1	57
400.869	1	66
401.210	1	47
401.552	1	60
401.893	1	45
402.235	1	47
402.576	1	61
402.918	1	50
403.259	1	37
403.601	1	34
403.942	1	45
404.284	1	38
404.625	1	51
404.967	1	51
405.308	1	49
405.649	1	34
405.991	1	42
406.332	1	40
406.674	1	47
407.015	1	35
407.357	1	45
407.698	1	48
408.040	1	39
408.381	1	40
408.722	1	36
409.064	1	44
409.405	1	41
409.747	1	34
410.088	1	36
410.430	1	32
410.771	1	49
411.112	1	40
411.454	1	56
411.795	1	40
412.137	1	40
412.478	1	34
412.819	1	29
413.161	1	27
413.502	1	26
413.844	1	30
414.185	1	27
414.526	1	29
414.868	1	41
415.209	1	25
415.550	1	8
415.892	1	28
416.233	1	20
416.575	1	26
416.916	1	27
417.257	1	28
417.599	1	34
417.940	1	24
418.281	1	24
418.623	1	23
418.964	1	18
419.305	1	23
419.647	1	29
419.988	1	14
420.329	1	21
420.671	1	28
421.012	1	36
421.353	1	25
421.695	1	22
422.036	1	30
422.377	1	20
422.718	1	18
423.060	1	17
423.401	1	28
423.742	1	22
424.084	1	20
424.425	1	20
424.766	1	25
425.107	1	19
425.449	1	26
425.790	1	18
426.131	1	9
426.472	1	17
426.814	1	26
427.155	1	10
427.496	1	28
427.837	1	16
428.179	1	4
428.520	1	13
428.861	1	20
429.202	1	21
429.544	1	14
429.885	1	8
430.226	1	15
430.567	1	24
430.909	1	5
431.250	1	9
431.591	1	23
431.932	1	21
432.273	1	17
432.615	1	20
432.956	1	19
433.297	1	19
433.638	1	17
433.979	1	15
434.320	1	20
434.662	1	10
435.003	1	19
435.344	1	19
435.685	1	15
436.026	1	18
436.368	1	8
436.709	1	7
437.050	1	16
437.391	1	15
437.732	1	20
438.073	1	20
438.414	1	14
438.756	1	14
439.097	1	25
439.438	1	27
439.779	1	17
440.120	1	22
440.461	1	19
440.802	1	22
441.143	1	22
441.485	1	7
441.826	1	-2
442.167	1	10
442.508	1	6
442.849	1	15
443.190	1	3
443.531	1	8
443.872	1	10
444.213	1	-2
444.554	1	7
444.895	1	8
445.237	1	20
445.578	1	16
445.919	1	2
446.260	1	15
446.601	1	4
446.942	1	15
447.283	1	18
447.624	1	22
447.965	1	10
448.306	1	21
448.647	1	21
448.988	1	9
449.329	1	11
449.670	1	11
450.011	1	9
450.352	1	12
450.693	1	9
451.034	1	11
451.375	1	18
451.716	1	23
452.057	1	13
452.398	1	3
452.739	1	12
453.080	1	21
453.421	1	11
453.762	1	14
454.103	1	10
454.444	1	18
454.785	1	0
455.126	1	10
455.467	1	11
455.808	1	-2
456.149	1	11
456.490	1	8
456.831	1	19
457.172	1	11
457.513	1	13
457.854	1	4
458.195	1	5
458.536	1	10
458.877	1	5
459.218	1	11
459.559	1	8
459.899	1	22
460.240	1	20
460.581	1	17
460.922	1	0
461.263	1	14
461.604	1	9
461.945	1	16
462.286	1	23
462.627	1	12
462.968	1	2
463.309	1	6
463.649	1	8
463.990	1	10
464.331	1	12
464.672	1	13
465.013	1	3
465.354	1	9
465.695	1	22
466.036	1	12
466.376	1	4
466.717	1	9
467.058	1	19
467.399	1	15
467.740	1	11
468.081	1	11
468.422	1	11
468.762	1	4
469.103	1	-5
469.444	1	6
469.785	1	13
470.126	1	21
470.467	1	-2
470.807	1	1
471.148	1	6
471.489	1	12
471.830	1	25
472.171	1	9
472.511	1	11
472.852	1	10
473.193	1	1
473.534	1	7
473.875	1	13
474.215	1	-1
474.556	1	1
474.897	1	8
475.238	1	8
475.578	1	6
475.919	1	10
476.260	1	5
476.601	1	7
476.942	1	11
477.282	1	-3
477.623	1	9
477.964	1	5
478.305	1	11
478.645	1	-2
478.986	1	5
479.327	1	6
479.667	1	9
480.008	1	11
480.349	1	8
480.690	1	-1
481.030	1	6
481.371	1	11
481.712	1	12
482.053	1	16
482.393	1	8
482.734	1	7
483.075	1	14
483.415	1	16
483.756	1	18
484.097	1	9
484.437	1	-3
484.778	1	8
485.119	1	18
485.459	1	15
485.800	1	10
486.141	1	7
486.481	1	11
486.822	1	8
487.163	1	9
487.503	1	-4
487.844	1	10
488.185	1	9
488.525	1	6
488.866	1	25
489.207	1	24
489.547	1	11
489.888	1	13
490.228	1	4
490.569	1	28
490.910	1	5
491.250	1	15
491.591	1	10
491.932	1	21
492.272	1	19
492.613	1	12
492.953	1	22
493.294	1	18
493.635	1	4
493.975	1	12
494.316	1	20
494.656	1	15
494.997	1	16
495.337	1	19
495.678	1	16
496.019	1	10
496.359	1	16
496.700	1	24
497.040	1	23
497.381	1	5
497.721	1	18
498.062	1	12
498.403	1	23
498.743	1	17
499.084	1	7
499.424	1	27
499.765	1	29
500.105	1	28
500.446	1	22
500.786	1	28
501.127	1	34
501.467	1	20
501.808	1	15
502.148	1	25
502.489	1	23
502.829	1	26
503.170	1	25
503.510	1	23
503.851	1	15
504.191	1	30
504.532	1	11
504.872	1	18
505.213	1	28
505.553	1	30
505.894	1	28
506.234	1	33
506.575	1	26
506.915	1	38
507.256	1	32
507.596	1	34
507.936	1	32
508.277	1	30
508.617	1	39
508.958	1	44
509.298	1	48
509.639	1	38
509.979	1	21
510.319	1	27
510.660	1	34
511.000	1	44
511.341	1	29
511.681	1	25
512.022	1	37
512.362	1	34
512.702	1	27
513.043	1	41
513.383	1	39
513.724	1	39
514.064	1	35
514.404	1	39
514.745	1	41
515.085	1	38
515.425	1	34
515.766	1	43
516.106	1	40
516.447	1	48
516.787	1	36
517.127	1	43
517.468	1	34
517.808	1	40
518.148	1	33
518.489	1	45
518.829	1	42
519.169	1	54
519.510	1	50
519.850	1	38
520.190	1	46
520.531	1	54
520.871	1	32
521.211	1	52
521.552	1	45
521.892	1	26
522.232	1	36
522.573	1	45
522.913	1	50
523.253	1	51
523.593	1	37
523.934	1	48
524.274	1	52
524.614	1	54
524.955	1	40
525.295	1	46
525.635	1	57
525.975	1	40
526.316	1	45
526.656	1	54
526.996	1	57
527.337	1	51
527.677	1	59
528.017	1	39
528.357	1	58
528.698	1	48
529.038	1	51
529.378	1	54
529.718	1	57
530.058	1	49
530.399	1	56
530.739	1	39
531.079	1	62
531.419	1	65
531.760	1	56
532.100	1	56
532.440	1	49
532.780	1	50
533.120	1	40
533.461	1	60
533.801	1	49
534.141	1	55
534.481	1	48
534.821	1	50
535.162	1	43
535.502	1	59
535.842	1	56
536.182	1	43
536.522	1	56
536.862	1	53
537.203	1	56
537.543	1	51
537.883	1	51
538.223	1	48
538.563	1	49
538.903	1	51
539.243	1	52
539.584	1	48
539.924	1	53
540.264	1	48
540.604	1	50
540.944	1	41
541.284	1	43
541.624	1	43
541.964	1	50
542.305	1	37
542.645	1	51
542.985	1	44
543.325	1	45
543.665	1	45
544.005	1	38
544.345	1	35
544.685	1	52
545.025	1	29
545.365	1	54
545.705	1	46
546.045	1	58
546.386	1	47
546.726	1	35
547.066	1	33
547.406	1	53
547.746	1	44
548.086	1	32
548.426	1	42
548.766	1	53
549.106	1	50
549.446	1	37
549.786	1	40
550.126	1	34
550.466	1	35
550.806	1	47
551.146	1	33
551.486	1	40
551.826	1	44
552.166	1	39
552.506	1	34
552.846	1	41
553.186	1	31
553.526	1	42
553.866	1	43
554.206	1	42
554.546	1	37
554.886	1	44
555.226	1	36
555.566	1	36
555.906	1	35
556.246	1	36
556.586	1	38
556.926	1	39
557.266	1	52
557.606	1	25
557.946	1	39
558.286	1	43
558.626	1	45
558.966	1	30
559.306	1	28
559.646	1	32
559.986	1	29
560.325	1	21
560.665	1	50
561.005	1	24
561.345	1	26
561.685	1	20
562.025	1	28
562.365	1	44
562.705	1	35
563.045	1	27
563.385	1	19
563.725	1	34
564.064	1	33
564.404	1	22
564.744	1	30
565.084	1	25
565.424	1	19
565.764	1	39
566.104	1	23
566.444	1	30
566.783	1	28
567.123	1	38
567.463	1	21
567.803	1	23
568.143	1	16
568.483	1	18
568.823	1	34
569.162	1	24
569.502	1	24
569.842	1	14
570.182	1	21
570.522	1	29
570.862	1	22
571.201	1	22
571.541	1	19
571.881	1	20
572.221	1	21
572.561	1	21
572.900	1	27
573.240	1	12
573.580	1	15
573.920	1	19
574.260	1	17
574.599	1	16
574.939	1	29
575.279	1	22
575.619	1	24
575.959	1	10
576.298	1	3
576.638	1	19
576.978	1	15
577.318	1	22
577.657	1	8
577.997	1	12
578.337	1	20
578.677	1	12
579.016	1	28
579.356	1	15
579.696	1	16
580.036	1	11
580.375	1	23
580.715	1	19
581.055	1	22
581.394	1	15
581.734	1	25
582.074	1	10
582.414	1	23
582.753	1	18
583.093	1	13
583.433	1	14
583.772	1	18
584.112	1	20
584.452	1	10
584.791	1	8
585.131	1	9
585.471	1	13
585.811	1	10
586.150	1	18
586.490	1	8
586.830	1	11
587.169	1	20
587.509	1	6
587.849	1	15
588.188	1	11
588.528	1	18
588.867	1	15
589.207	1	5
589.547	1	8
589.886	1	12
590.226	1	17
590.566	1	13
590.905	1	19
591.245	1	10
591.585	1	10
591.924	1	6
592.264	1	3
592.603	1	8
592.943	1	1
593.283	1	14
593.622	1	15
593.962	1	22
594.301	1	20
594.641	1	7
594.981	1	6
595.320	1	19
595.660	1	10
595.999	1	14
596.339	1	9
596.678	1	1
597.018	1	14
597.358	1	12
597.697	1	8
598.037	1	13
598.376	1	6
598.716	1	5
599.055	1	13
599.395	1	21
599.734	1	6
600.074	1	9
600.413	1	12
600.753	1	6
601.092	1	0
601.432	1	10
601.771	1	14
602.111	1	11
602.451	1	0
602.790	1	9
603.130	1	6
603.469	1	7
603.809	1	14
604.148	1	10
604.487	1	11
604.827	1	3
605.166	1	2
605.506	1	15
605.845	1	8
606.185	1	2
606.524	1	4
606.864	1	3
607.203	1	18
607.543	1	5
607.882	1	0
608.222	1	6
608.561	1	12
608.901	1	12
609.240	1	6
609.579	1	14
609.919	1	0
610.258	1	21
610.598	1	15
610.937	1	8
611.277	1	12
611.616	1	-1
611.955	1	8
612.295	1	13
612.634	1	10
612.974	1	15
613.313	1	8
613.652	1	5
613.992	1	9
614.331	1	12
614.671	1	9
615.010	1	16
615.349	1	17
615.689	1	6
616.028	1	7
616.368	1	14
616.707	1	9
617.046	1	13
617.386	1	0
617.725	1	7
618.064	1	12
618.404	1	25
618.743	1	6
619.082	1	5
619.422	1	12
619.761	1	2
620.100	1	10
620.440	1	8
620.779	1	3
621.118	1	4
621.458	1	7
621.797	1	2
622.136	1	10
622.476	1	12
622.815	1	8
623.154	1	11
623.494	1	6
623.833	1	9
624.172	1	21
624.511	1	6
624.851	1	4
625.190	1	12
625.529	1	17
625.869	1	10
626.208	1	6
626.547	1	7
626.886	1	-3
627.226	1	2
627.565	1	14
627.904	1	5
628.243	1	5
628.583	1	17
628.922	1	7
629.261	1	12
629.600	1	12
629.940	1	9
630.279	1	4
630.618	1	7
630.957	1	4
631.297	1	-5
631.636	1	1
631.975	1	7
632.314	1	13
632.653	1	-4
632.993	1	15
633.332	1	13
633.671	1	2
634.010	1	10
634.349	1	10
634.689	1	15
635.028	1	5
635.367	1	4
635.706	1	-9
636.045	1	5
636.384	1	6
636.724	1	8
637.063	1	14
637.402	1	19
637.741	1	22
638.080	1	17
638.419	1	13
638.759	1	14
639.098	1	3
639.437	1	0
639.776	1	5
640.115	1	-4
640.454	1	18
640.793	1	10
641.132	1	15
641.472	1	1
641.811	1	0
642.150	1	7
642.489	1	5
642.828	1	5
643.167	1	16
643.506	1	9
643.845	1	6
644.184	1	8
644.524	1	0
644.863	1	8
645.202	1	4
645.541	1	1
645.880	1	9
646.219	1	11
646.558	1	2
646.897	1	8
647.236	1	15
647.575	1	16
647.914	1	1
648.253	1	13
648.592	1	12
648.931	1	8
649.270	1	12
649.610	1	10
649.949	1	3
650.288	1	12
650.627	1	4
650.966	1	3
651.305	1	7
651.644	1	6
651.983	1	17
652.322	1	13
652.661	1	9
653.000	1	3
653.339	1	8
653.678	1	8
654.017	1	-1
654.356	1	13
654.695	1	5
655.034	1	8
655.373	1	3
655.712	1	5
656.051	1	16
656.390	1	5
656.729	1	4
657.068	1	9
657.406	1	17
657.745	1	7
658.084	1	20
658.423	1	-4
658.762	1	2
659.101	1	2
659.440	1	5
659.779	1	-6
660.118	1	7
660.457	1	5
660.796	1	9
661.135	1	3
661.474	1	9
661.813	1	4
662.152	1	4
662.491	1	2
662.829	1	-4
663.168	1	-2
663.507	1	9
663.846	1	12
664.185	1	9
664.524	1	-4
664.863	1	4
665.202	1	0
665.541	1	2
665.879	1	14
666.218	1	-4
666.557	1	-2
666.896	1	4
667.235	1	5
667.574	1	8
667.913	1	7
668.251	1	9
668.590	1	3
668.929	1	9
669.268	1	12
669.607	1	1
669.946	1	10
670.285	1	7
670.623	1	14
670.962	1	7
671.301	1	4
671.640	1	-8
671.979	1	27
672.317	1	1
672.656	1	9
672.995	1	5
673.334	1	11
673.673	1	25
674.011	1	3
674.350	1	7
674.689	1	4
675.028	1	4
675.367	1	11
675.705	1	-6
676.044	1	-2
676.383	1	8
676.722	1	5
677.060	1	5
677.399	1	6
677.738	1	2
678.077	1	14
678.416	1	8
678.754	1	2
679.093	1	13
679.432	1	-6
679.771	1	6
680.109	1	8
680.448	1	11
680.787	1	4
681.125	1	15
681.464	1	3
681.803	1	-8
682.142	1	13
682.480	1	1
682.819	1	3
683.158	1	-2
683.496	1	3
683.835	1	18
684.174	1	2
684.512	1	8
684.851	1	4
685.190	1	12
685.529	1	-2
685.867	1	9
686.206	1	11
686.545	1	3
686.883	1	4
687.222	1	12
687.561	1	14
687.899	1	5
688.238	1	14
688.577	1	10
688.746	1	12