File: Analysis/GaN_68K_200ms/GaN_sample E_spot4_UVVIS_68 K_200um_200 ms 2x2mm1_546.txt
340.368	1	-2
340.710	1	-10
341.052	1	-3
341.394	1	2
341.737	1	4
342.079	1	-6
342.421	1	-8
342.763	1	-2
343.105	1	13
343.447	1	10
343.789	1	-2
344.131	1	-3
344.473	1	0
344.815	1	-7
345.157	1	3
345.499	1	-1
345.841	1	1
346.183	1	-1
346.526	1	9
346.868	1	3
347.210	1	0
347.552	1	-2
347.894	1	-6
348.236	1	-3
348.578	1	2
348.920	1	11
349.262	1	3
349.604	1	5
349.946	1	1
350.288	1	4
350.630	1	-5
350.972	1	6
351.314	1	-8
351.656	1	9
351.998	1	0
352.340	1	4
352.682	1	-10
353.024	1	-4
353.366	1	-3
353.708	1	8
354.050	1	-1
354.392	1	7
354.734	1	-12
355.076	1	1
355.418	1	-8
355.760	1	2
356.102	1	-10
356.444	1	4
356.785	1	12
357.127	1	-1
357.469	1	5
357.811	1	11
358.153	1	3
358.495	1	10
358.837	1	-4
359.179	1	6
359.521	1	-5
359.863	1	-3
360.205	1	-2
360.547	1	-2
360.889	1	5
361.231	1	5
361.572	1	3
361.914	1	2
362.256	1	4
362.598	1	3
362.940	1	0
363.282	1	3
363.624	1	7
363.966	1	6
364.308	1	2
364.649	1	-5
364.991	1	-3
365.333	1	1
365.675	1	1
366.017	1	4
366.359	1	8
366.701	1	-4
367.042	1	12
367.384	1	9
367.726	1	15
368.068	1	-2
368.410	1	0
368.752	1	-3
369.093	1	3
369.435	1	-10
369.777	1	0
370.119	1	-3
370.461	1	-4
370.803	1	-14
371.144	1	6
371.486	1	7
371.828	1	6
372.170	1	3
372.512	1	1
372.853	1	7
373.195	1	-4
373.537	1	-1
373.879	1	0
374.220	1	-4
374.562	1	-2
374.904	1	7
375.246	1	1
375.588	1	-6
375.929	1	3
376.271	1	-5
376.613	1	4
376.955	1	2
377.296	1	2
377.638	1	-8
377.980	1	15
378.321	1	1
378.663	1	0
379.005	1	10
379.347	1	-1
379.688	1	-4
380.030	1	-7
380.372	1	5
380.714	1	7
381.055	1	2
381.397	1	-2
381.739	1	13
382.080	1	-12
382.422	1	9
382.764	1	2
383.105	1	-8
383.447	1	17
383.789	1	8
384.130	1	-2
384.472	1	0
384.814	1	9
385.156	1	3
385.497	1	4
385.839	1	9
386.180	1	14
386.522	1	11
386.864	1	-9
387.205	1	0
387.547	1	-10
387.889	1	11
388.230	1	-9
388.572	1	4
388.914	1	13
389.255	1	11
389.597	1	-5
389.939	1	13
390.280	1	8
390.622	1	2
390.963	1	13
391.305	1	9
391.647	1	6
391.988	1	-13
392.330	1	19
392.671	1	2
393.013	1	6
393.355	1	13
393.696	1	5
394.038	1	-5
394.379	1	3
394.721	1	10
395.062	1	-9
395.404	1	5
395.746	1	-10
396.087	1	-2
396.429	1	9
396.770	1	5
397.112	1	-5
397.453	1	-16
397.795	1	8
398.136	1	3
398.478	1	5
398.819	1	1
399.161	1	6
399.503	1	5
399.844	1	3
400.186	1	10
400.527	1	2
400.869	1	12
401.210	1	-6
401.552	1	16
401.893	1	-1
402.235	1	8
402.576	1	20
402.918	1	-1
403.259	1	-6
403.601	1	-4
403.942	1	6
404.284	1	5
404.625	1	14
404.967	1	4
405.308	1	-2
405.649	1	11
405.991	1	9
406.332	1	-9
406.674	1	2
407.015	1	-1
407.357	1	11
407.698	1	-11
408.040	1	-2
408.381	1	0
408.722	1	-5
409.064	1	6
409.405	1	-2
409.747	1	-2
410.088	1	9
410.430	1	1
410.771	1	6
411.112	1	2
411.454	1	2
411.795	1	-1
412.137	1	12
412.478	1	6
412.819	1	-13
413.161	1	1
413.502	1	-4
413.844	1	-6
414.185	1	3
414.526	1	6
414.868	1	6
415.209	1	-7
415.550	1	-12
415.892	1	5
416.233	1	0
416.575	1	-5
416.916	1	-3
417.257	1	6
417.599	1	14
417.940	1	-5
418.281	1	1
418.623	1	-3
418.964	1	-2
419.305	1	0
419.647	1	-1
419.988	1	-3
420.329	1	4
420.671	1	6
421.012	1	8
421.353	1	7
421.695	1	7
422.036	1	-6
422.377	1	7
422.718	1	-2
423.060	1	9
423.401	1	2
423.742	1	3
424.084	1	6
424.425	1	-2
424.766	1	8
425.107	1	-2
425.449	1	4
425.790	1	-5
426.131	1	4
426.472	1	-3
426.814	1	17
427.155	1	-5
427.496	1	-3
427.837	1	0
428.179	1	-2
428.520	1	-3
428.861	1	-3
429.202	1	3
429.544	1	-1
429.885	1	-6
430.226	1	-3
430.567	1	19
430.909	1	-8
431.250	1	-14
431.591	1	0
431.932	1	8
432.273	1	-1
432.615	1	4
432.956	1	5
433.297	1	4
433.638	1	5
433.979	1	-1
434.320	1	0
434.662	1	-2
435.003	1	5
435.344	1	-1
435.685	1	0
436.026	1	8
436.368	1	-5
436.709	1	-13
437.050	1	3
437.391	1	5
437.732	1	-6
438.073	1	1
438.414	1	2
438.756	1	0
439.097	1	16
439.438	1	14
439.779	1	-8
440.120	1	-4
440.461	1	-7
440.802	1	15
441.143	1	8
441.485	1	4
441.826	1	-14
442.167	1	-8
442.508	1	-4
442.849	1	8
443.190	1	-12
443.531	1	3
443.872	1	-8
444.213	1	-8
444.554	1	-3
444.895	1	-2
445.237	1	-5
445.578	1	4
445.919	1	-1
446.260	1	1
446.601	1	1
446.942	1	-2
447.283	1	-3
447.624	1	12
447.965	1	0
448.306	1	3
448.647	1	13
448.988	1	-5
449.329	1	-5
449.670	1	-1
450.011	1	0
450.352	1	5
450.693	1	2
451.034	1	12
451.375	1	7
451.716	1	-1
452.057	1	10
452.398	1	4
452.739	1	6
453.080	1	12
453.421	1	5
453.762	1	6
454.103	1	2
454.444	1	2
454.785	1	-1
455.126	1	4
455.467	1	4
455.808	1	-4
456.149	1	-8
456.490	1	-2
456.831	1	6
457.172	1	3
457.513	1	5
457.854	1	1
458.195	1	-2
458.536	1	7
458.877	1	8
459.218	1	4
459.559	1	-2
459.899	1	7
460.240	1	6
460.581	1	8
460.922	1	1
461.263	1	-4
461.604	1	1
461.945	1	5
462.286	1	2
462.627	1	5
462.968	1	-10
463.309	1	1
463.649	1	5
463.990	1	3
464.331	1	1
464.672	1	1
465.013	1	-6
465.354	1	3
465.695	1	5
466.036	1	2
466.376	1	-2
466.717	1	-8
467.058	1	9
467.399	1	6
467.740	1	-3
468.081	1	-2
468.422	1	6
468.762	1	-5
469.103	1	-7
469.444	1	-1
469.785	1	6
470.126	1	2
470.467	1	-1
470.807	1	5
471.148	1	-7
471.489	1	-7
471.830	1	8
472.171	1	-4
472.511	1	12
472.852	1	-6
473.193	1	-3
473.534	1	-3
473.875	1	9
474.215	1	-2
474.556	1	-7
474.897	1	2
475.238	1	2
475.578	1	-1
475.919	1	-1
476.260	1	4
476.601	1	3
476.942	1	0
477.282	1	-13
477.623	1	6
477.964	1	10
478.305	1	9
478.645	1	-9
478.986	1	-1
479.327	1	-8
479.667	1	11
480.008	1	-6
480.349	1	8
480.690	1	3
481.030	1	-3
481.371	1	7
481.712	1	6
482.053	1	6
482.393	1	-10
482.734	1	5
483.075	1	4
483.415	1	13
483.756	1	6
484.097	1	-6
484.437	1	-7
484.778	1	10
485.119	1	2
485.459	1	2
485.800	1	-7
486.141	1	-8
486.481	1	-2
486.822	1	6
487.163	1	-8
487.503	1	-6
487.844	1	-4
488.185	1	-8
488.525	1	-11
488.866	1	6
489.207	1	-3
489.547	1	-1
489.888	1	1
490.228	1	-5
490.569	1	17
490.910	1	-7
491.250	1	-4
491.591	1	-11
491.932	1	7
492.272	1	5
492.613	1	7
492.953	1	5
493.294	1	4
493.635	1	-2
493.975	1	1
494.316	1	2
494.656	1	6
494.997	1	0
495.337	1	10
495.678	1	16
496.019	1	-4
496.359	1	-6
496.700	1	7
497.040	1	3
497.381	1	-12
497.721	1	-8
498.062	1	-9
498.403	1	0
498.743	1	-1
499.084	1	-9
499.424	1	13
499.765	1	4
500.105	1	-4
500.446	1	4
500.786	1	4
501.127	1	10
501.467	1	5
501.808	1	-18
502.148	1	0
502.489	1	3
502.829	1	-3
503.170	1	-1
503.510	1	4
503.851	1	-9
504.191	1	-4
504.532	1	-15
504.872	1	-1
505.213	1	3
505.553	1	10
505.894	1	6
506.234	1	6
506.575	1	3
506.915	1	12
507.256	1	-7
507.596	1	6
507.936	1	8
508.277	1	-6
508.617	1	7
508.958	1	10
509.298	1	11
509.639	1	6
509.979	1	14
510.319	1	-10
510.660	1	11
511.000	1	11
511.341	1	-5
511.681	1	4
512.022	1	-5
512.362	1	6
512.702	1	-9
513.043	1	6
513.383	1	-2
513.724	1	4
514.064	1	0
514.404	1	0
514.745	1	0
515.085	1	6
515.425	1	-4
515.766	1	0
516.106	1	-4
516.447	1	2
516.787	1	-1
517.127	1	-2
517.468	1	-1
517.808	1	1
518.148	1	1
518.489	1	3
518.829	1	-3
519.169	1	7
519.510	1	0
519.850	1	-4
520.190	1	2
520.531	1	9
520.871	1	-14
521.211	1	7
521.552	1	7
521.892	1	-16
522.232	1	-1
522.573	1	0
522.913	1	6
523.253	1	1
523.593	1	-10
523.934	1	0
524.274	1	-4
524.614	1	1
524.955	1	-8
525.295	1	-8
525.635	1	13
525.975	1	-1
526.316	1	11
526.656	1	11
526.996	1	8
527.337	1	10
527.677	1	15
528.017	1	-4
528.357	1	3
528.698	1	-11
529.038	1	8
529.378	1	2
529.718	1	1
530.058	1	6
530.399	1	8
530.739	1	1
531.079	1	9
531.419	1	8
531.760	1	4
532.100	1	6
532.440	1	-6
532.780	1	-4
533.120	1	6
533.461	1	8
533.801	1	1
534.141	1	16
534.481	1	2
534.821	1	8
535.162	1	7
535.502	1	1
535.842	1	2
536.182	1	7
536.522	1	0
536.862	1	11
537.203	1	5
537.543	1	3
537.883	1	4
538.223	1	11
538.563	1	2
538.903	1	0
539.243	1	6
539.584	1	10
539.924	1	-1
540.264	1	6
540.604	1	1
540.944	1	2
541.284	1	-7
541.624	1	-1
541.964	1	8
542.305	1	-2
542.645	1	-2
542.985	1	-3
543.325	1	4
543.665	1	10
544.005	1	-3
544.345	1	-1
544.685	1	10
545.025	1	-8
545.365	1	8
545.705	1	2
546.045	1	9
546.386	1	-1
546.726	1	-2
547.066	1	-7
547.406	1	10
547.746	1	8
548.086	1	7
548.426	1	2
548.766	1	9
549.106	1	3
549.446	1	2
549.786	1	7
550.126	1	-1
550.466	1	-9
550.806	1	-1
551.146	1	-5
551.486	1	8
551.826	1	4
552.166	1	5
552.506	1	-4
552.846	1	-5
553.186	1	-1
553.526	1	-2
553.866	1	5
554.206	1	11
554.546	1	-12
554.886	1	-4
555.226	1	-10
555.566	1	5
555.906	1	9
556.246	1	2
556.586	1	2
556.926	1	2
557.266	1	14
557.606	1	-2
557.946	1	8
558.286	1	3
558.626	1	6
558.966	1	-2
559.306	1	-12
559.646	1	2
559.986	1	-3
560.325	1	-2
560.665	1	4
561.005	1	-8
561.345	1	-5
561.685	1	2
562.025	1	-4
562.365	1	6
562.705	1	14
563.045	1	9
563.385	1	2
563.725	1	-8
564.064	1	3
564.404	1	-5
564.744	1	15
565.084	1	-3
565.424	1	-4
565.764	1	13
566.104	1	1
566.444	1	5
566.783	1	3
567.123	1	13
567.463	1	-5
567.803	1	-9
568.143	1	1
568.483	1	-2
568.823	1	6
569.162	1	6
569.502	1	2
569.842	1	-9
570.182	1	-5
570.522	1	0
570.862	1	10
571.201	1	1
571.541	1	-1
571.881	1	1
572.221	1	0
572.561	1	-3
572.900	1	5
573.240	1	3
573.580	1	-2
573.920	1	-3
574.260	1	6
574.599	1	-3
574.939	1	2
575.279	1	-5
575.619	1	1
575.959	1	-6
576.298	1	-5
576.638	1	8
576.978	1	-3
577.318	1	6
577.657	1	-12
577.997	1	1
578.337	1	-5
578.677	1	0
579.016	1	13
579.356	1	-8
579.696	1	3
580.036	1	-2
580.375	1	-4
580.715	1	2
581.055	1	2
581.394	1	-7
581.734	1	-4
582.074	1	-4
582.414	1	5
582.753	1	1
583.093	1	-7
583.433	1	-3
583.772	1	-4
584.112	1	2
584.452	1	11
584.791	1	-4
585.131	1	-11
585.471	1	3
585.811	1	-3
586.150	1	4
586.490	1	-6
586.830	1	5
587.169	1	-2
587.509	1	1
587.849	1	3
588.188	1	-1
588.528	1	7
588.867	1	6
589.207	1	-13
589.547	1	-4
589.886	1	-6
590.226	1	-1
590.566	1	0
590.905	1	5
591.245	1	-5
591.585	1	-1
591.924	1	2
592.264	1	5
592.603	1	-3
592.943	1	-1
593.283	1	-1
593.622	1	0
593.962	1	9
594.301	1	3
594.641	1	-7
594.981	1	-5
595.320	1	15
595.660	1	1
595.999	1	-4
596.339	1	7
596.678	1	-5
597.018	1	4
597.358	1	0
597.697	1	-10
598.037	1	0
598.376	1	19
598.716	1	1
599.055	1	3
599.395	1	8
599.734	1	-8
600.074	1	0
600.413	1	4
600.753	1	1
601.092	1	-10
601.432	1	-1
601.771	1	0
602.111	1	-2
602.451	1	-4
602.790	1	-7
603.130	1	7
603.469	1	4
603.809	1	1
604.148	1	-1
604.487	1	4
604.827	1	-7
605.166	1	-10
605.506	1	7
605.845	1	1
606.185	1	-10
606.524	1	2
606.864	1	-9
607.203	1	-3
607.543	1	-11
607.882	1	-1
608.222	1	-1
608.561	1	11
608.901	1	8
609.240	1	2
609.579	1	4
609.919	1	-14
610.258	1	7
610.598	1	0
610.937	1	-2
611.277	1	9
611.616	1	-7
611.955	1	10
612.295	1	-16
612.634	1	5
612.974	1	-2
613.313	1	4
613.652	1	1
613.992	1	-4
614.331	1	4
614.671	1	-7
615.010	1	2
615.349	1	-4
615.689	1	4
616.028	1	-4
616.368	1	-1
616.707	1	-9
617.046	1	7
617.386	1	1
617.725	1	14
618.064	1	-1
618.404	1	6
618.743	1	-1
619.082	1	5
619.422	1	-7
619.761	1	-3
620.100	1	-3
620.440	1	2
620.779	1	4
621.118	1	6
621.458	1	2
621.797	1	2
622.136	1	10
622.476	1	11
622.815	1	2
623.154	1	6
623.494	1	2
623.833	1	3
624.172	1	8
624.511	1	-2
624.851	1	1
625.190	1	-3
625.529	1	-1
625.869	1	13
626.208	1	-8
626.547	1	-1
626.886	1	-3
627.226	1	0
627.565	1	0
627.904	1	9
628.243	1	4
628.583	1	6
628.922	1	-4
629.261	1	16
629.600	1	2
629.940	1	2
630.279	1	4
630.618	1	-9
630.957	1	-5
631.297	1	-3
631.636	1	-7
631.975	1	2
632.314	1	-2
632.653	1	-7
632.993	1	10
633.332	1	6
633.671	1	3
634.010	1	2
634.349	1	2
634.689	1	-1
635.028	1	7
635.367	1	1
635.706	1	-4
636.045	1	-3
636.384	1	6
636.724	1	-1
637.063	1	9
637.402	1	10
637.741	1	10
638.080	1	6
638.419	1	2
638.759	1	0
639.098	1	3
639.437	1	-5
639.776	1	-2
640.115	1	-8
640.454	1	6
640.793	1	-3
641.132	1	9
641.472	1	2
641.811	1	-3
642.150	1	6
642.489	1	-4
642.828	1	4
643.167	1	15
643.506	1	1
643.845	1	5
644.184	1	1
644.524	1	-3
644.863	1	-15
645.202	1	4
645.541	1	-6
645.880	1	6
646.219	1	6
646.558	1	-1
646.897	1	-2
647.236	1	3
647.575	1	7
647.914	1	-6
648.253	1	8
648.592	1	0
648.931	1	11
649.270	1	13
649.610	1	15
649.949	1	-4
650.288	1	-7
650.627	1	7
650.966	1	-1
651.305	1	-6
651.644	1	-6
651.983	1	0
652.322	1	6
652.661	1	2
653.000	1	-3
653.339	1	9
653.678	1	2
654.017	1	-5
654.356	1	5
654.695	1	13
655.034	1	-4
655.373	1	0
655.712	1	-9
656.051	1	9
656.390	1	3
656.729	1	2
657.068	1	2
657.406	1	0
657.745	1	-8
658.084	1	0
658.423	1	1
658.762	1	-9
659.101	1	-4
659.440	1	0
659.779	1	-10
660.118	1	1
660.457	1	1
660.796	1	-6
661.135	1	-3
661.474	1	3
661.813	1	-1
662.152	1	5
662.491	1	1
662.829	1	-9
663.168	1	-1
663.507	1	-4
663.846	1	5
664.185	1	-7
664.524	1	-5
664.863	1	-2
665.202	1	-10
665.541	1	1
665.879	1	4
666.218	1	-2
666.557	1	1
666.896	1	1
667.235	1	1
667.574	1	-2
667.913	1	3
668.251	1	-1
668.590	1	-2
668.929	1	2
669.268	1	4
669.607	1	1
669.946	1	9
670.285	1	0
670.623	1	-2
670.962	1	1
671.301	1	-2
671.640	1	-22
671.979	1	14
672.317	1	-5
672.656	1	0
672.995	1	5
673.334	1	3
673.673	1	16
674.011	1	4
674.350	1	-4
674.689	1	2
675.028	1	3
675.367	1	4
675.705	1	-12
676.044	1	-7
676.383	1	-3
676.722	1	0
677.060	1	0
677.399	1	5
677.738	1	-6
678.077	1	14
678.416	1	4
678.754	1	-3
679.093	1	-1
679.432	1	-9
679.771	1	2
680.109	1	9
680.448	1	-6
680.787	1	1
681.125	1	3
681.464	1	2
681.803	1	-7
682.142	1	10
682.480	1	-9
682.819	1	-4
683.158	1	0
683.496	1	-10
683.835	1	-2
684.174	1	-4
684.512	1	-2
684.851	1	-8
685.190	1	9
685.529	1	0
685.867	1	-3
686.206	1	2
686.545	1	5
686.883	1	-9
687.222	1	-4
687.561	1	4
687.899	1	8
688.238	1	0
688.577	1	4
688.746	1	7