File: Analysis/GaN_68K_200ms/GaN_sample E_spot4_UVVIS_68 K_200um_200 ms 2x2mm1_766.txt
340.368	1	4
340.710	1	-2
341.052	1	2
341.394	1	4
341.737	1	7
342.079	1	1
342.421	1	-6
342.763	1	5
343.105	1	8
343.447	1	3
343.789	1	-7
344.131	1	-3
344.473	1	0
344.815	1	8
345.157	1	7
345.499	1	10
345.841	1	2
346.183	1	-6
346.526	1	10
346.868	1	1
347.210	1	-8
347.552	1	2
347.894	1	0
348.236	1	-1
348.578	1	0
348.920	1	5
349.262	1	-13
349.604	1	14
349.946	1	0
350.288	1	2
350.630	1	-8
350.972	1	-4
351.314	1	-3
351.656	1	2
351.998	1	-7
352.340	1	-1
352.682	1	-9
353.024	1	-7
353.366	1	7
353.708	1	5
354.050	1	4
354.392	1	6
354.734	1	-5
355.076	1	8
355.418	1	-2
355.760	1	4
356.102	1	1
356.444	1	5
356.785	1	23
357.127	1	-1
357.469	1	0
357.811	1	8
358.153	1	8
358.495	1	13
358.837	1	-1
359.179	1	-1
359.521	1	-3
359.863	1	-6
360.205	1	1
360.547	1	-4
360.889	1	0
361.231	1	-5
361.572	1	-6
361.914	1	-1
362.256	1	7
362.598	1	9
362.940	1	-6
363.282	1	6
363.624	1	2
363.966	1	0
364.308	1	7
364.649	1	-7
364.991	1	-6
365.333	1	1
365.675	1	-4
366.017	1	-1
366.359	1	-6
366.701	1	-6
367.042	1	14
367.384	1	11
367.726	1	15
368.068	1	-2
368.410	1	-5
368.752	1	-4
369.093	1	2
369.435	1	-6
369.777	1	-5
370.119	1	7
370.461	1	5
370.803	1	-3
371.144	1	1
371.486	1	11
371.828	1	-1
372.170	1	6
372.512	1	-3
372.853	1	6
373.195	1	-5
373.537	1	-2
373.879	1	9
374.220	1	-5
374.562	1	4
374.904	1	5
375.246	1	-8
375.588	1	0
375.929	1	4
376.271	1	1
376.613	1	-5
376.955	1	-5
377.296	1	5
377.638	1	-4
377.980	1	0
378.321	1	9
378.663	1	-4
379.005	1	6
379.347	1	-6
379.688	1	-3
380.030	1	2
380.372	1	2
380.714	1	-2
381.055	1	1
381.397	1	-1
381.739	1	6
382.080	1	-10
382.422	1	13
382.764	1	3
383.105	1	-4
383.447	1	2
383.789	1	-2
384.130	1	-1
384.472	1	-6
384.814	1	5
385.156	1	9
385.497	1	7
385.839	1	9
386.180	1	0
386.522	1	9
386.864	1	3
387.205	1	-5
387.547	1	3
387.889	1	13
388.230	1	4
388.572	1	-1
388.914	1	3
389.255	1	6
389.597	1	-14
389.939	1	16
390.280	1	5
390.622	1	3
390.963	1	0
391.305	1	9
391.647	1	-2
391.988	1	1
392.330	1	9
392.671	1	10
393.013	1	6
393.355	1	8
393.696	1	-10
394.038	1	-3
394.379	1	-7
394.721	1	11
395.062	1	2
395.404	1	3
395.746	1	-2
396.087	1	-1
396.429	1	6
396.770	1	7
397.112	1	-6
397.453	1	-5
397.795	1	10
398.136	1	6
398.478	1	-2
398.819	1	8
399.161	1	2
399.503	1	2
399.844	1	3
400.186	1	14
400.527	1	6
400.869	1	11
401.210	1	-6
401.552	1	16
401.893	1	-2
402.235	1	6
402.576	1	11
402.918	1	-4
403.259	1	-5
403.601	1	-4
403.942	1	10
404.284	1	-7
404.625	1	7
404.967	1	8
405.308	1	4
405.649	1	-5
405.991	1	6
406.332	1	-6
406.674	1	6
407.015	1	-9
407.357	1	5
407.698	1	-6
408.040	1	-6
408.381	1	-2
408.722	1	-2
409.064	1	-3
409.405	1	4
409.747	1	-18
410.088	1	2
410.430	1	4
410.771	1	10
411.112	1	0
411.454	1	0
411.795	1	3
412.137	1	14
412.478	1	8
412.819	1	-6
413.161	1	3
413.502	1	2
413.844	1	-11
414.185	1	4
414.526	1	-4
414.868	1	9
415.209	1	0
415.550	1	1
415.892	1	-3
416.233	1	0
416.575	1	8
416.916	1	-1
417.257	1	14
417.599	1	2
417.940	1	-3
418.281	1	8
418.623	1	-1
418.964	1	-6
419.305	1	-4
419.647	1	4
419.988	1	-3
420.329	1	-2
420.671	1	5
421.012	1	8
421.353	1	10
421.695	1	3
422.036	1	-2
422.377	1	9
422.718	1	-5
423.060	1	-7
423.401	1	3
423.742	1	2
424.084	1	-3
424.425	1	0
424.766	1	-2
425.107	1	6
425.449	1	2
425.790	1	-1
426.131	1	-1
426.472	1	-7
426.814	1	14
427.155	1	2
427.496	1	1
427.837	1	-9
428.179	1	-9
428.520	1	-6
428.861	1	8
429.202	1	6
429.544	1	-1
429.885	1	0
430.226	1	-6
430.567	1	-3
430.909	1	-11
431.250	1	-12
431.591	1	6
431.932	1	-1
432.273	1	0
432.615	1	5
432.956	1	-4
433.297	1	5
433.638	1	1
433.979	1	-5
434.320	1	4
434.662	1	-5
435.003	1	-2
435.344	1	5
435.685	1	15
436.026	1	3
436.368	1	-1
436.709	1	-10
437.050	1	-1
437.391	1	6
437.732	1	6
438.073	1	-3
438.414	1	-4
438.756	1	5
439.097	1	12
439.438	1	9
439.779	1	-8
440.120	1	-2
440.461	1	-6
440.802	1	2
441.143	1	11
441.485	1	4
441.826	1	-8
442.167	1	-6
442.508	1	2
442.849	1	5
443.190	1	-1
443.531	1	-2
443.872	1	0
444.213	1	-12
444.554	1	-4
444.895	1	0
445.237	1	-2
445.578	1	0
445.919	1	3
446.260	1	2
446.601	1	-5
446.942	1	-1
447.283	1	2
447.624	1	4
447.965	1	3
448.306	1	6
448.647	1	13
448.988	1	-13
449.329	1	0
449.670	1	2
450.011	1	-8
450.352	1	5
450.693	1	-3
451.034	1	-1
451.375	1	10
451.716	1	11
452.057	1	4
452.398	1	-3
452.739	1	-3
453.080	1	17
453.421	1	1
453.762	1	6
454.103	1	1
454.444	1	13
454.785	1	-10
455.126	1	-3
455.467	1	-1
455.808	1	3
456.149	1	-8
456.490	1	-2
456.831	1	13
457.172	1	0
457.513	1	9
457.854	1	1
458.195	1	3
458.536	1	5
458.877	1	-1
459.218	1	2
459.559	1	3
459.899	1	16
460.240	1	-6
460.581	1	6
460.922	1	-2
461.263	1	5
461.604	1	-3
461.945	1	9
462.286	1	2
462.627	1	-4
462.968	1	-8
463.309	1	-3
463.649	1	-6
463.990	1	2
464.331	1	7
464.672	1	1
465.013	1	-12
465.354	1	4
465.695	1	-5
466.036	1	5
466.376	1	-2
466.717	1	-12
467.058	1	6
467.399	1	1
467.740	1	0
468.081	1	3
468.422	1	-1
468.762	1	-13
469.103	1	-2
469.444	1	-10
469.785	1	6
470.126	1	1
470.467	1	-10
470.807	1	-4
471.148	1	-13
471.489	1	5
471.830	1	14
472.171	1	6
472.511	1	0
472.852	1	-3
473.193	1	-13
473.534	1	1
473.875	1	6
474.215	1	-6
474.556	1	-6
474.897	1	-2
475.238	1	5
475.578	1	1
475.919	1	4
476.260	1	7
476.601	1	0
476.942	1	1
477.282	1	-16
477.623	1	5
477.964	1	16
478.305	1	1
478.645	1	0
478.986	1	-6
479.327	1	-8
479.667	1	6
480.008	1	13
480.349	1	2
480.690	1	0
481.030	1	1
481.371	1	-3
481.712	1	4
482.053	1	9
482.393	1	-13
482.734	1	4
483.075	1	3
483.415	1	7
483.756	1	3
484.097	1	-14
484.437	1	-2
484.778	1	-3
485.119	1	-1
485.459	1	6
485.800	1	-3
486.141	1	-8
486.481	1	6
486.822	1	3
487.163	1	-4
487.503	1	-7
487.844	1	-12
488.185	1	-9
488.525	1	-5
488.866	1	6
489.207	1	4
489.547	1	-5
489.888	1	-8
490.228	1	-12
490.569	1	14
490.910	1	-2
491.250	1	5
491.591	1	-3
491.932	1	4
492.272	1	0
492.613	1	1
492.953	1	0
493.294	1	12
493.635	1	-2
493.975	1	3
494.316	1	8
494.656	1	-1
494.997	1	-8
495.337	1	6
495.678	1	4
496.019	1	-5
496.359	1	5
496.700	1	3
497.040	1	-5
497.381	1	-21
497.721	1	-4
498.062	1	-2
498.403	1	8
498.743	1	-3
499.084	1	-5
499.424	1	10
499.765	1	2
500.105	1	10
500.446	1	-3
500.786	1	5
501.127	1	6
501.467	1	-4
501.808	1	-9
502.148	1	4
502.489	1	8
502.829	1	0
503.170	1	1
503.510	1	-8
503.851	1	-7
504.191	1	11
504.532	1	-9
504.872	1	-10
505.213	1	-7
505.553	1	8
505.894	1	1
506.234	1	5
506.575	1	-5
506.915	1	0
507.256	1	-4
507.596	1	3
507.936	1	3
508.277	1	0
508.617	1	16
508.958	1	9
509.298	1	9
509.639	1	7
509.979	1	1
510.319	1	-6
510.660	1	0
511.000	1	1
511.341	1	-4
511.681	1	-6
512.022	1	-8
512.362	1	-1
512.702	1	-9
513.043	1	4
513.383	1	-6
513.724	1	9
514.064	1	2
514.404	1	-1
514.745	1	5
515.085	1	4
515.425	1	-1
515.766	1	8
516.106	1	-4
516.447	1	1
516.787	1	-13
517.127	1	-3
517.468	1	-4
517.808	1	-3
518.148	1	1
518.489	1	3
518.829	1	-3
519.169	1	8
519.510	1	-13
519.850	1	-8
520.190	1	3
520.531	1	5
520.871	1	-3
521.211	1	-1
521.552	1	-3
521.892	1	-8
522.232	1	-10
522.573	1	-1
522.913	1	-1
523.253	1	1
523.593	1	-2
523.934	1	9
524.274	1	-9
524.614	1	7
524.955	1	-4
525.295	1	-4
525.635	1	9
525.975	1	-2
526.316	1	2
526.656	1	4
526.996	1	10
527.337	1	3
527.677	1	13
528.017	1	-10
528.357	1	1
528.698	1	6
529.038	1	11
529.378	1	-3
529.718	1	2
530.058	1	-8
530.399	1	16
530.739	1	-1
531.079	1	12
531.419	1	11
531.760	1	3
532.100	1	3
532.440	1	-4
532.780	1	2
533.120	1	-9
533.461	1	12
533.801	1	4
534.141	1	6
534.481	1	2
534.821	1	7
535.162	1	6
535.502	1	-5
535.842	1	-5
536.182	1	4
536.522	1	6
536.862	1	1
537.203	1	2
537.543	1	7
537.883	1	17
538.223	1	11
538.563	1	-3
538.903	1	-7
539.243	1	4
539.584	1	-3
539.924	1	1
540.264	1	4
540.604	1	7
540.944	1	-4
541.284	1	-7
541.624	1	-3
541.964	1	1
542.305	1	-1
542.645	1	-5
542.985	1	-4
543.325	1	5
543.665	1	2
544.005	1	0
544.345	1	-3
544.685	1	3
545.025	1	-4
545.365	1	7
545.705	1	5
546.045	1	10
546.386	1	0
546.726	1	-5
547.066	1	-2
547.406	1	8
547.746	1	3
548.086	1	1
548.426	1	-5
548.766	1	9
549.106	1	4
549.446	1	6
549.786	1	6
550.126	1	5
550.466	1	-11
550.806	1	10
551.146	1	-6
551.486	1	0
551.826	1	4
552.166	1	-3
552.506	1	-4
552.846	1	5
553.186	1	1
553.526	1	-9
553.866	1	2
554.206	1	2
554.546	1	-8
554.886	1	-2
555.226	1	-13
555.566	1	-2
555.906	1	9
556.246	1	2
556.586	1	9
556.926	1	5
557.266	1	14
557.606	1	-5
557.946	1	-1
558.286	1	11
558.626	1	4
558.966	1	12
559.306	1	1
559.646	1	-1
559.986	1	-6
560.325	1	-12
560.665	1	6
561.005	1	3
561.345	1	2
561.685	1	-2
562.025	1	4
562.365	1	5
562.705	1	5
563.045	1	0
563.385	1	-5
563.725	1	-13
564.064	1	3
564.404	1	5
564.744	1	2
565.084	1	-8
565.424	1	-6
565.764	1	1
566.104	1	1
566.444	1	6
566.783	1	2
567.123	1	22
567.463	1	-6
567.803	1	-4
568.143	1	0
568.483	1	-8
568.823	1	2
569.162	1	-1
569.502	1	5
569.842	1	3
570.182	1	3
570.522	1	4
570.862	1	4
571.201	1	-4
571.541	1	-12
571.881	1	3
572.221	1	-5
572.561	1	-7
572.900	1	14
573.240	1	-4
573.580	1	-1
573.920	1	3
574.260	1	0
574.599	1	0
574.939	1	2
575.279	1	1
575.619	1	-4
575.959	1	-6
576.298	1	-8
576.638	1	2
576.978	1	-3
577.318	1	5
577.657	1	-12
577.997	1	-11
578.337	1	0
578.677	1	-12
579.016	1	6
579.356	1	-5
579.696	1	-2
580.036	1	4
580.375	1	2
580.715	1	7
581.055	1	4
581.394	1	-11
581.734	1	5
582.074	1	1
582.414	1	3
582.753	1	5
583.093	1	1
583.433	1	-5
583.772	1	-1
584.112	1	1
584.452	1	-8
584.791	1	-5
585.131	1	-9
585.471	1	1
585.811	1	-2
586.150	1	3
586.490	1	-14
586.830	1	-15
587.169	1	-4
587.509	1	8
587.849	1	6
588.188	1	6
588.528	1	11
588.867	1	3
589.207	1	-3
589.547	1	-12
589.886	1	-13
590.226	1	3
590.566	1	-12
590.905	1	5
591.245	1	5
591.585	1	-4
591.924	1	-7
592.264	1	-2
592.603	1	4
592.943	1	-5
593.283	1	0
593.622	1	-7
593.962	1	1
594.301	1	8
594.641	1	-7
594.981	1	-2
595.320	1	5
595.660	1	-5
595.999	1	-4
596.339	1	-9
596.678	1	1
597.018	1	3
597.358	1	3
597.697	1	-2
598.037	1	-4
598.376	1	4
598.716	1	-1
599.055	1	-3
599.395	1	7
599.734	1	-5
600.074	1	-10
600.413	1	-3
600.753	1	9
601.092	1	-7
601.432	1	0
601.771	1	6
602.111	1	-10
602.451	1	-4
602.790	1	4
603.130	1	5
603.469	1	-3
603.809	1	2
604.148	1	4
604.487	1	10
604.827	1	-6
605.166	1	-5
605.506	1	11
605.845	1	3
606.185	1	6
606.524	1	1
606.864	1	-1
607.203	1	3
607.543	1	-11
607.882	1	-6
608.222	1	4
608.561	1	4
608.901	1	-1
609.240	1	-4
609.579	1	-2
609.919	1	-10
610.258	1	10
610.598	1	-2
610.937	1	7
611.277	1	4
611.616	1	-9
611.955	1	8
612.295	1	0
612.634	1	0
612.974	1	5
613.313	1	6
613.652	1	0
613.992	1	5
614.331	1	2
614.671	1	3
615.010	1	5
615.349	1	2
615.689	1	-6
616.028	1	-5
616.368	1	-11
616.707	1	-5
617.046	1	-5
617.386	1	0
617.725	1	3
618.064	1	3
618.404	1	12
618.743	1	-9
619.082	1	1
619.422	1	4
619.761	1	2
620.100	1	-3
620.440	1	6
620.779	1	-1
621.118	1	-2
621.458	1	4
621.797	1	-6
622.136	1	7
622.476	1	2
622.815	1	-5
623.154	1	8
623.494	1	-3
623.833	1	-11
624.172	1	8
624.511	1	7
624.851	1	-7
625.190	1	4
625.529	1	6
625.869	1	5
626.208	1	-3
626.547	1	-6
626.886	1	2
627.226	1	0
627.565	1	10
627.904	1	-1
628.243	1	-12
628.583	1	1
628.922	1	-8
629.261	1	7
629.600	1	0
629.940	1	6
630.279	1	-7
630.618	1	2
630.957	1	0
631.297	1	-6
631.636	1	-1
631.975	1	2
632.314	1	7
632.653	1	-7
632.993	1	3
633.332	1	9
633.671	1	-2
634.010	1	-1
634.349	1	3
634.689	1	0
635.028	1	-2
635.367	1	0
635.706	1	-9
636.045	1	-1
636.384	1	11
636.724	1	2
637.063	1	6
637.402	1	4
637.741	1	10
638.080	1	6
638.419	1	0
638.759	1	-5
639.098	1	-8
639.437	1	-7
639.776	1	-1
640.115	1	-12
640.454	1	12
640.793	1	4
641.132	1	5
641.472	1	-11
641.811	1	4
642.150	1	1
642.489	1	-2
642.828	1	1
643.167	1	7
643.506	1	-3
643.845	1	2
644.184	1	1
644.524	1	0
644.863	1	-2
645.202	1	0
645.541	1	-9
645.880	1	8
646.219	1	1
646.558	1	1
646.897	1	-4
647.236	1	1
647.575	1	-2
647.914	1	-2
648.253	1	1
648.592	1	-3
648.931	1	2
649.270	1	12
649.610	1	10
649.949	1	5
650.288	1	-11
650.627	1	2
650.966	1	-14
651.305	1	-1
651.644	1	3
651.983	1	2
652.322	1	8
652.661	1	-3
653.000	1	-8
653.339	1	6
653.678	1	-3
654.017	1	4
654.356	1	3
654.695	1	7
655.034	1	6
655.373	1	1
655.712	1	-6
656.051	1	-2
656.390	1	-2
656.729	1	4
657.068	1	5
657.406	1	3
657.745	1	-10
658.084	1	7
658.423	1	-6
658.762	1	-5
659.101	1	-5
659.440	1	6
659.779	1	-3
660.118	1	7
660.457	1	-4
660.796	1	-4
661.135	1	0
661.474	1	-3
661.813	1	2
662.152	1	8
662.491	1	-11
662.829	1	-3
663.168	1	-1
663.507	1	-5
663.846	1	9
664.185	1	-5
664.524	1	-12
664.863	1	-1
665.202	1	-10
665.541	1	-10
665.879	1	-10
666.218	1	-9
666.557	1	11
666.896	1	0
667.235	1	-2
667.574	1	-2
667.913	1	0
668.251	1	3
668.590	1	-9
668.929	1	4
669.268	1	1
669.607	1	-11
669.946	1	6
670.285	1	1
670.623	1	2
670.962	1	7
671.301	1	-3
671.640	1	-14
671.979	1	11
672.317	1	-7
672.656	1	3
672.995	1	-2
673.334	1	5
673.673	1	16
674.011	1	0
674.350	1	2
674.689	1	-6
675.028	1	-9
675.367	1	-5
675.705	1	-8
676.044	1	-1
676.383	1	-9
676.722	1	2
677.060	1	0
677.399	1	4
677.738	1	-3
678.077	1	-1
678.416	1	1
678.754	1	-4
679.093	1	3
679.432	1	-8
679.771	1	-3
680.109	1	4
680.448	1	-2
680.787	1	5
681.125	1	4
681.464	1	-3
681.803	1	-5
682.142	1	4
682.480	1	-3
682.819	1	1
683.158	1	-5
683.496	1	-1
683.835	1	0
684.174	1	-9
684.512	1	-5
684.851	1	-2
685.190	1	16
685.529	1	-3
685.867	1	-3
686.206	1	6
686.545	1	1
686.883	1	-7
687.222	1	-9
687.561	1	4
687.899	1	0
688.238	1	0
688.577	1	-1
688.746	1	-4