File: Analysis/GaN_68K_200ms/GaN_sample E_spot4_UVVIS_68 K_200um_200 ms 2x2mm1_262.txt
340.368	1	2
340.710	1	-2
341.052	1	7
341.394	1	-5
341.737	1	2
342.079	1	6
342.421	1	2
342.763	1	6
343.105	1	8
343.447	1	10
343.789	1	-5
344.131	1	5
344.473	1	5
344.815	1	7
345.157	1	17
345.499	1	0
345.841	1	3
346.183	1	-2
346.526	1	5
346.868	1	9
347.210	1	6
347.552	1	3
347.894	1	-6
348.236	1	12
348.578	1	8
348.920	1	11
349.262	1	8
349.604	1	10
349.946	1	5
350.288	1	4
350.630	1	3
350.972	1	4
351.314	1	2
351.656	1	0
351.998	1	3
352.340	1	8
352.682	1	-2
353.024	1	-8
353.366	1	3
353.708	1	10
354.050	1	15
354.392	1	1
354.734	1	4
355.076	1	9
355.418	1	-3
355.760	1	5
356.102	1	0
356.444	1	11
356.785	1	9
357.127	1	3
357.469	1	-3
357.811	1	15
358.153	1	7
358.495	1	17
358.837	1	9
359.179	1	0
359.521	1	-1
359.863	1	2
360.205	1	-2
360.547	1	1
360.889	1	8
361.231	1	10
361.572	1	-9
361.914	1	-1
362.256	1	8
362.598	1	11
362.940	1	12
363.282	1	4
363.624	1	6
363.966	1	7
364.308	1	6
364.649	1	6
364.991	1	18
365.333	1	19
365.675	1	10
366.017	1	15
366.359	1	11
366.701	1	-5
367.042	1	14
367.384	1	14
367.726	1	13
368.068	1	3
368.410	1	6
368.752	1	2
369.093	1	5
369.435	1	2
369.777	1	15
370.119	1	9
370.461	1	10
370.803	1	1
371.144	1	9
371.486	1	13
371.828	1	8
372.170	1	8
372.512	1	13
372.853	1	7
373.195	1	7
373.537	1	6
373.879	1	14
374.220	1	11
374.562	1	4
374.904	1	11
375.246	1	2
375.588	1	8
375.929	1	6
376.271	1	-8
376.613	1	2
376.955	1	6
377.296	1	9
377.638	1	2
377.980	1	9
378.321	1	8
378.663	1	2
379.005	1	16
379.347	1	11
379.688	1	12
380.030	1	-6
380.372	1	9
380.714	1	12
381.055	1	14
381.397	1	0
381.739	1	16
382.080	1	-15
382.422	1	20
382.764	1	14
383.105	1	6
383.447	1	15
383.789	1	9
384.130	1	4
384.472	1	1
384.814	1	19
385.156	1	22
385.497	1	17
385.839	1	17
386.180	1	11
386.522	1	13
386.864	1	13
387.205	1	4
387.547	1	7
387.889	1	14
388.230	1	2
388.572	1	11
388.914	1	11
389.255	1	19
389.597	1	6
389.939	1	17
390.280	1	9
390.622	1	11
390.963	1	9
391.305	1	18
391.647	1	8
391.988	1	1
392.330	1	9
392.671	1	7
393.013	1	17
393.355	1	10
393.696	1	13
394.038	1	-3
394.379	1	3
394.721	1	20
395.062	1	7
395.404	1	10
395.746	1	-3
396.087	1	15
396.429	1	5
396.770	1	23
397.112	1	4
397.453	1	1
397.795	1	16
398.136	1	20
398.478	1	14
398.819	1	12
399.161	1	5
399.503	1	10
399.844	1	12
400.186	1	15
400.527	1	18
400.869	1	12
401.210	1	5
401.552	1	13
401.893	1	6
402.235	1	17
402.576	1	15
402.918	1	-6
403.259	1	1
403.601	1	-4
403.942	1	12
404.284	1	13
404.625	1	12
404.967	1	16
405.308	1	8
405.649	1	11
405.991	1	12
406.332	1	0
406.674	1	8
407.015	1	-4
407.357	1	6
407.698	1	-1
408.040	1	7
408.381	1	2
408.722	1	3
409.064	1	6
409.405	1	16
409.747	1	7
410.088	1	10
410.430	1	10
410.771	1	18
411.112	1	14
411.454	1	21
411.795	1	3
412.137	1	11
412.478	1	10
412.819	1	7
413.161	1	4
413.502	1	9
413.844	1	9
414.185	1	12
414.526	1	5
414.868	1	19
415.209	1	-3
415.550	1	6
415.892	1	2
416.233	1	8
416.575	1	8
416.916	1	7
417.257	1	14
417.599	1	12
417.940	1	10
418.281	1	8
418.623	1	3
418.964	1	8
419.305	1	8
419.647	1	12
419.988	1	0
420.329	1	6
420.671	1	12
421.012	1	5
421.353	1	13
421.695	1	4
422.036	1	-4
422.377	1	10
422.718	1	3
423.060	1	7
423.401	1	0
423.742	1	11
424.084	1	7
424.425	1	8
424.766	1	11
425.107	1	5
425.449	1	3
425.790	1	0
426.131	1	7
426.472	1	2
426.814	1	5
427.155	1	8
427.496	1	15
427.837	1	1
428.179	1	13
428.520	1	-1
428.861	1	1
429.202	1	7
429.544	1	-3
429.885	1	7
430.226	1	2
430.567	1	12
430.909	1	6
431.250	1	0
431.591	1	-5
431.932	1	13
432.273	1	0
432.615	1	8
432.956	1	-2
433.297	1	4
433.638	1	11
433.979	1	9
434.320	1	1
434.662	1	-7
435.003	1	9
435.344	1	14
435.685	1	15
436.026	1	11
436.368	1	2
436.709	1	-3
437.050	1	4
437.391	1	4
437.732	1	6
438.073	1	7
438.414	1	1
438.756	1	16
439.097	1	5
439.438	1	10
439.779	1	15
440.120	1	1
440.461	1	1
440.802	1	5
441.143	1	22
441.485	1	3
441.826	1	-6
442.167	1	0
442.508	1	3
442.849	1	3
443.190	1	-8
443.531	1	7
443.872	1	6
444.213	1	-3
444.554	1	11
444.895	1	-1
445.237	1	6
445.578	1	10
445.919	1	1
446.260	1	0
446.601	1	1
446.942	1	5
447.283	1	-6
447.624	1	6
447.965	1	-2
448.306	1	3
448.647	1	19
448.988	1	-20
449.329	1	3
449.670	1	11
450.011	1	13
450.352	1	13
450.693	1	10
451.034	1	6
451.375	1	9
451.716	1	9
452.057	1	12
452.398	1	1
452.739	1	3
453.080	1	22
453.421	1	4
453.762	1	18
454.103	1	7
454.444	1	16
454.785	1	3
455.126	1	1
455.467	1	8
455.808	1	3
456.149	1	5
456.490	1	5
456.831	1	14
457.172	1	-1
457.513	1	6
457.854	1	4
458.195	1	3
458.536	1	6
458.877	1	-3
459.218	1	3
459.559	1	15
459.899	1	12
460.240	1	10
460.581	1	17
460.922	1	12
461.263	1	10
461.604	1	1
461.945	1	8
462.286	1	6
462.627	1	6
462.968	1	5
463.309	1	0
463.649	1	9
463.990	1	5
464.331	1	9
464.672	1	10
465.013	1	-5
465.354	1	1
465.695	1	7
466.036	1	11
466.376	1	5
466.717	1	7
467.058	1	9
467.399	1	9
467.740	1	-5
468.081	1	0
468.422	1	12
468.762	1	4
469.103	1	-3
469.444	1	6
469.785	1	9
470.126	1	1
470.467	1	3
470.807	1	3
471.148	1	0
471.489	1	0
471.830	1	12
472.171	1	7
472.511	1	-2
472.852	1	3
473.193	1	0
473.534	1	0
473.875	1	8
474.215	1	-2
474.556	1	1
474.897	1	1
475.238	1	4
475.578	1	3
475.919	1	1
476.260	1	8
476.601	1	2
476.942	1	5
477.282	1	-6
477.623	1	6
477.964	1	10
478.305	1	7
478.645	1	2
478.986	1	-7
479.327	1	-1
479.667	1	2
480.008	1	10
480.349	1	5
480.690	1	-1
481.030	1	6
481.371	1	5
481.712	1	0
482.053	1	11
482.393	1	-2
482.734	1	10
483.075	1	13
483.415	1	11
483.756	1	16
484.097	1	-5
484.437	1	2
484.778	1	10
485.119	1	13
485.459	1	6
485.800	1	-7
486.141	1	-10
486.481	1	11
486.822	1	7
487.163	1	4
487.503	1	-7
487.844	1	3
488.185	1	-9
488.525	1	3
488.866	1	9
489.207	1	10
489.547	1	-5
489.888	1	3
490.228	1	0
490.569	1	12
490.910	1	2
491.250	1	4
491.591	1	-8
491.932	1	13
492.272	1	15
492.613	1	10
492.953	1	3
493.294	1	10
493.635	1	-1
493.975	1	7
494.316	1	16
494.656	1	12
494.997	1	-6
495.337	1	5
495.678	1	14
496.019	1	1
496.359	1	0
496.700	1	-1
497.040	1	3
497.381	1	-15
497.721	1	-5
498.062	1	5
498.403	1	10
498.743	1	9
499.084	1	-5
499.424	1	18
499.765	1	4
500.105	1	13
500.446	1	9
500.786	1	5
501.127	1	9
501.467	1	0
501.808	1	-12
502.148	1	10
502.489	1	9
502.829	1	6
503.170	1	9
503.510	1	-2
503.851	1	-7
504.191	1	6
504.532	1	-6
504.872	1	1
505.213	1	-1
505.553	1	11
505.894	1	9
506.234	1	15
506.575	1	7
506.915	1	12
507.256	1	-4
507.596	1	4
507.936	1	13
508.277	1	-1
508.617	1	20
508.958	1	12
509.298	1	16
509.639	1	9
509.979	1	12
510.319	1	2
510.660	1	7
511.000	1	14
511.341	1	8
511.681	1	8
512.022	1	2
512.362	1	10
512.702	1	-3
513.043	1	14
513.383	1	-4
513.724	1	4
514.064	1	12
514.404	1	2
514.745	1	4
515.085	1	2
515.425	1	3
515.766	1	11
516.106	1	10
516.447	1	8
516.787	1	1
517.127	1	8
517.468	1	3
517.808	1	6
518.148	1	4
518.489	1	1
518.829	1	-4
519.169	1	20
519.510	1	7
519.850	1	3
520.190	1	7
520.531	1	10
520.871	1	-1
521.211	1	4
521.552	1	11
521.892	1	1
522.232	1	1
522.573	1	16
522.913	1	3
523.253	1	9
523.593	1	-6
523.934	1	8
524.274	1	0
524.614	1	9
524.955	1	3
525.295	1	0
525.635	1	18
525.975	1	2
526.316	1	0
526.656	1	16
526.996	1	21
527.337	1	-3
527.677	1	25
528.017	1	4
528.357	1	10
528.698	1	7
529.038	1	19
529.378	1	17
529.718	1	8
530.058	1	7
530.399	1	19
530.739	1	6
531.079	1	17
531.419	1	17
531.760	1	13
532.100	1	15
532.440	1	5
532.780	1	8
533.120	1	3
533.461	1	23
533.801	1	6
534.141	1	11
534.481	1	4
534.821	1	15
535.162	1	10
535.502	1	11
535.842	1	9
536.182	1	8
536.522	1	19
536.862	1	14
537.203	1	16
537.543	1	8
537.883	1	9
538.223	1	3
538.563	1	11
538.903	1	10
539.243	1	-1
539.584	1	14
539.924	1	2
540.264	1	14
540.604	1	16
540.944	1	6
541.284	1	6
541.624	1	11
541.964	1	9
542.305	1	-1
542.645	1	8
542.985	1	-6
543.325	1	-1
543.665	1	11
544.005	1	8
544.345	1	-2
544.685	1	16
545.025	1	0
545.365	1	3
545.705	1	9
546.045	1	13
546.386	1	8
546.726	1	5
547.066	1	-2
547.406	1	8
547.746	1	13
548.086	1	13
548.426	1	4
548.766	1	21
549.106	1	8
549.446	1	6
549.786	1	8
550.126	1	7
550.466	1	6
550.806	1	15
551.146	1	6
551.486	1	4
551.826	1	7
552.166	1	2
552.506	1	4
552.846	1	2
553.186	1	4
553.526	1	2
553.866	1	10
554.206	1	11
554.546	1	-1
554.886	1	9
555.226	1	-4
555.566	1	14
555.906	1	13
556.246	1	12
556.586	1	8
556.926	1	17
557.266	1	17
557.606	1	-6
557.946	1	10
558.286	1	14
558.626	1	14
558.966	1	4
559.306	1	-2
559.646	1	4
559.986	1	7
560.325	1	1
560.665	1	4
561.005	1	5
561.345	1	9
561.685	1	4
562.025	1	2
562.365	1	13
562.705	1	9
563.045	1	13
563.385	1	3
563.725	1	3
564.064	1	14
564.404	1	2
564.744	1	9
565.084	1	-4
565.424	1	9
565.764	1	7
566.104	1	6
566.444	1	18
566.783	1	7
567.123	1	17
567.463	1	0
567.803	1	-6
568.143	1	1
568.483	1	-3
568.823	1	10
569.162	1	10
569.502	1	9
569.842	1	-2
570.182	1	2
570.522	1	17
570.862	1	-1
571.201	1	5
571.541	1	3
571.881	1	14
572.221	1	4
572.561	1	-7
572.900	1	9
573.240	1	1
573.580	1	5
573.920	1	7
574.260	1	1
574.599	1	-1
574.939	1	0
575.279	1	12
575.619	1	6
575.959	1	-2
576.298	1	-9
576.638	1	9
576.978	1	6
577.318	1	8
577.657	1	-11
577.997	1	-3
578.337	1	2
578.677	1	-2
579.016	1	14
579.356	1	-4
579.696	1	5
580.036	1	6
580.375	1	0
580.715	1	2
581.055	1	8
581.394	1	-2
581.734	1	5
582.074	1	0
582.414	1	-3
582.753	1	-4
583.093	1	4
583.433	1	-2
583.772	1	5
584.112	1	4
584.452	1	11
584.791	1	10
585.131	1	3
585.471	1	11
585.811	1	3
586.150	1	-1
586.490	1	-4
586.830	1	-3
587.169	1	1
587.509	1	5
587.849	1	14
588.188	1	6
588.528	1	3
588.867	1	9
589.207	1	-1
589.547	1	-6
589.886	1	-2
590.226	1	11
590.566	1	2
590.905	1	12
591.245	1	4
591.585	1	-9
591.924	1	9
592.264	1	-2
592.603	1	-2
592.943	1	10
593.283	1	4
593.622	1	-3
593.962	1	7
594.301	1	13
594.641	1	-3
594.981	1	-2
595.320	1	9
595.660	1	-5
595.999	1	9
596.339	1	4
596.678	1	-4
597.018	1	6
597.358	1	4
597.697	1	2
598.037	1	7
598.376	1	13
598.716	1	-10
599.055	1	2
599.395	1	8
599.734	1	-5
600.074	1	12
600.413	1	10
600.753	1	12
601.092	1	-4
601.432	1	-3
601.771	1	7
602.111	1	-9
602.451	1	3
602.790	1	-3
603.130	1	12
603.469	1	-4
603.809	1	19
604.148	1	3
604.487	1	0
604.827	1	-4
605.166	1	-2
605.506	1	-1
605.845	1	-2
606.185	1	1
606.524	1	5
606.864	1	-5
607.203	1	16
607.543	1	0
607.882	1	7
608.222	1	8
608.561	1	12
608.901	1	6
609.240	1	-7
609.579	1	5
609.919	1	-6
610.258	1	12
610.598	1	6
610.937	1	2
611.277	1	3
611.616	1	-6
611.955	1	11
612.295	1	2
612.634	1	3
612.974	1	15
613.313	1	3
613.652	1	2
613.992	1	5
614.331	1	9
614.671	1	13
615.010	1	11
615.349	1	1
615.689	1	10
616.028	1	1
616.368	1	13
616.707	1	4
617.046	1	0
617.386	1	-2
617.725	1	12
618.064	1	11
618.404	1	10
618.743	1	8
619.082	1	6
619.422	1	5
619.761	1	5
620.100	1	3
620.440	1	2
620.779	1	8
621.118	1	1
621.458	1	3
621.797	1	5
622.136	1	6
622.476	1	-2
622.815	1	5
623.154	1	0
623.494	1	1
623.833	1	5
624.172	1	17
624.511	1	-5
624.851	1	-6
625.190	1	4
625.529	1	9
625.869	1	3
626.208	1	5
626.547	1	9
626.886	1	-5
627.226	1	5
627.565	1	6
627.904	1	-1
628.243	1	-5
628.583	1	-3
628.922	1	0
629.261	1	14
629.600	1	8
629.940	1	-1
630.279	1	0
630.618	1	5
630.957	1	-7
631.297	1	-1
631.636	1	0
631.975	1	12
632.314	1	14
632.653	1	-2
632.993	1	0
633.332	1	10
633.671	1	2
634.010	1	3
634.349	1	3
634.689	1	10
635.028	1	1
635.367	1	8
635.706	1	-3
636.045	1	5
636.384	1	7
636.724	1	2
637.063	1	4
637.402	1	15
637.741	1	12
638.080	1	-1
638.419	1	15
638.759	1	8
639.098	1	2
639.437	1	1
639.776	1	8
640.115	1	9
640.454	1	18
640.793	1	10
641.132	1	7
641.472	1	3
641.811	1	6
642.150	1	8
642.489	1	-1
642.828	1	5
643.167	1	17
643.506	1	-3
643.845	1	9
644.184	1	-3
644.524	1	-7
644.863	1	-8
645.202	1	12
645.541	1	-7
645.880	1	8
646.219	1	-4
646.558	1	6
646.897	1	0
647.236	1	1
647.575	1	5
647.914	1	0
648.253	1	8
648.592	1	5
648.931	1	9
649.270	1	8
649.610	1	14
649.949	1	0
650.288	1	-4
650.627	1	3
650.966	1	0
651.305	1	-11
651.644	1	6
651.983	1	12
652.322	1	15
652.661	1	0
653.000	1	5
653.339	1	4
653.678	1	7
654.017	1	5
654.356	1	3
654.695	1	10
655.034	1	-1
655.373	1	7
655.712	1	-2
656.051	1	12
656.390	1	11
656.729	1	-1
657.068	1	0
657.406	1	4
657.745	1	-5
658.084	1	14
658.423	1	1
658.762	1	-4
659.101	1	0
659.440	1	5
659.779	1	2
660.118	1	15
660.457	1	-2
660.796	1	3
661.135	1	10
661.474	1	-2
661.813	1	4
662.152	1	7
662.491	1	-2
662.829	1	-3
663.168	1	-7
663.507	1	2
663.846	1	14
664.185	1	1
664.524	1	-7
664.863	1	-2
665.202	1	-5
665.541	1	-2
665.879	1	11
666.218	1	0
666.557	1	1
666.896	1	-3
667.235	1	6
667.574	1	15
667.913	1	3
668.251	1	-3
668.590	1	-3
668.929	1	16
669.268	1	2
669.607	1	-12
669.946	1	10
670.285	1	8
670.623	1	10
670.962	1	-3
671.301	1	0
671.640	1	-14
671.979	1	14
672.317	1	-1
672.656	1	9
672.995	1	4
673.334	1	8
673.673	1	7
674.011	1	3
674.350	1	-8
674.689	1	3
675.028	1	3
675.367	1	6
675.705	1	-10
676.044	1	3
676.383	1	-9
676.722	1	8
677.060	1	2
677.399	1	-1
677.738	1	-1
678.077	1	6
678.416	1	1
678.754	1	5
679.093	1	11
679.432	1	-9
679.771	1	-1
680.109	1	5
680.448	1	5
680.787	1	15
681.125	1	7
681.464	1	2
681.803	1	-12
682.142	1	11
682.480	1	-3
682.819	1	2
683.158	1	6
683.496	1	-5
683.835	1	12
684.174	1	1
684.512	1	6
684.851	1	-1
685.190	1	4
685.529	1	7
685.867	1	9
686.206	1	8
686.545	1	13
686.883	1	-5
687.222	1	3
687.561	1	2
687.899	1	-2
688.238	1	-1
688.577	1	-8
688.746	1	4