File: Analysis/GaN_68K_200ms/GaN_sample E_spot4_UVVIS_68 K_200um_200 ms 2x2mm1_390.txt
340.368	1	-1
340.710	1	-4
341.052	1	6
341.394	1	-6
341.737	1	15
342.079	1	-3
342.421	1	-5
342.763	1	0
343.105	1	11
343.447	1	8
343.789	1	-2
344.131	1	1
344.473	1	-6
344.815	1	3
345.157	1	13
345.499	1	2
345.841	1	8
346.183	1	-4
346.526	1	12
346.868	1	9
347.210	1	-1
347.552	1	-1
347.894	1	-2
348.236	1	3
348.578	1	2
348.920	1	4
349.262	1	0
349.604	1	13
349.946	1	5
350.288	1	2
350.630	1	-9
350.972	1	6
351.314	1	-4
351.656	1	2
351.998	1	2
352.340	1	-4
352.682	1	3
353.024	1	-2
353.366	1	8
353.708	1	4
354.050	1	1
354.392	1	5
354.734	1	2
355.076	1	-7
355.418	1	-5
355.760	1	8
356.102	1	-5
356.444	1	-2
356.785	1	16
357.127	1	9
357.469	1	3
357.811	1	9
358.153	1	1
358.495	1	3
358.837	1	-4
359.179	1	0
359.521	1	-1
359.863	1	2
360.205	1	-5
360.547	1	3
360.889	1	5
361.231	1	0
361.572	1	-4
361.914	1	-3
362.256	1	21
362.598	1	1
362.940	1	0
363.282	1	7
363.624	1	1
363.966	1	3
364.308	1	-5
364.649	1	2
364.991	1	22
365.333	1	7
365.675	1	4
366.017	1	2
366.359	1	8
366.701	1	-3
367.042	1	9
367.384	1	10
367.726	1	17
368.068	1	0
368.410	1	4
368.752	1	-3
369.093	1	5
369.435	1	5
369.777	1	4
370.119	1	5
370.461	1	4
370.803	1	3
371.144	1	5
371.486	1	14
371.828	1	3
372.170	1	14
372.512	1	-4
372.853	1	5
373.195	1	-2
373.537	1	4
373.879	1	10
374.220	1	-2
374.562	1	5
374.904	1	0
375.246	1	-2
375.588	1	4
375.929	1	2
376.271	1	4
376.613	1	16
376.955	1	0
377.296	1	6
377.638	1	-6
377.980	1	5
378.321	1	3
378.663	1	-6
379.005	1	16
379.347	1	9
379.688	1	7
380.030	1	-8
380.372	1	5
380.714	1	4
381.055	1	1
381.397	1	-3
381.739	1	5
382.080	1	-5
382.422	1	1
382.764	1	-3
383.105	1	7
383.447	1	14
383.789	1	15
384.130	1	-8
384.472	1	9
384.814	1	8
385.156	1	20
385.497	1	16
385.839	1	8
386.180	1	5
386.522	1	12
386.864	1	1
387.205	1	1
387.547	1	-1
387.889	1	17
388.230	1	10
388.572	1	7
388.914	1	15
389.255	1	9
389.597	1	11
389.939	1	15
390.280	1	22
390.622	1	-7
390.963	1	13
391.305	1	9
391.647	1	4
391.988	1	1
392.330	1	7
392.671	1	16
393.013	1	16
393.355	1	16
393.696	1	-3
394.038	1	-7
394.379	1	9
394.721	1	11
395.062	1	0
395.404	1	11
395.746	1	3
396.087	1	10
396.429	1	15
396.770	1	13
397.112	1	2
397.453	1	0
397.795	1	10
398.136	1	10
398.478	1	9
398.819	1	10
399.161	1	9
399.503	1	8
399.844	1	5
400.186	1	10
400.527	1	14
400.869	1	16
401.210	1	10
401.552	1	9
401.893	1	2
402.235	1	5
402.576	1	14
402.918	1	-4
403.259	1	5
403.601	1	-4
403.942	1	17
404.284	1	5
404.625	1	10
404.967	1	11
405.308	1	2
405.649	1	4
405.991	1	17
406.332	1	0
406.674	1	3
407.015	1	-1
407.357	1	3
407.698	1	4
408.040	1	-3
408.381	1	5
408.722	1	3
409.064	1	13
409.405	1	4
409.747	1	12
410.088	1	13
410.430	1	9
410.771	1	-1
411.112	1	12
411.454	1	16
411.795	1	10
412.137	1	8
412.478	1	12
412.819	1	0
413.161	1	9
413.502	1	9
413.844	1	4
414.185	1	4
414.526	1	5
414.868	1	16
415.209	1	6
415.550	1	0
415.892	1	-3
416.233	1	-6
416.575	1	5
416.916	1	7
417.257	1	6
417.599	1	-7
417.940	1	3
418.281	1	2
418.623	1	2
418.964	1	6
419.305	1	-6
419.647	1	14
419.988	1	6
420.329	1	8
420.671	1	6
421.012	1	16
421.353	1	4
421.695	1	4
422.036	1	5
422.377	1	1
422.718	1	5
423.060	1	-1
423.401	1	3
423.742	1	5
424.084	1	3
424.425	1	3
424.766	1	9
425.107	1	-1
425.449	1	3
425.790	1	2
426.131	1	-4
426.472	1	-1
426.814	1	10
427.155	1	-1
427.496	1	9
427.837	1	3
428.179	1	0
428.520	1	-2
428.861	1	3
429.202	1	11
429.544	1	3
429.885	1	-7
430.226	1	2
430.567	1	20
430.909	1	-4
431.250	1	-5
431.591	1	9
431.932	1	13
432.273	1	-5
432.615	1	9
432.956	1	-10
433.297	1	11
433.638	1	-1
433.979	1	4
434.320	1	0
434.662	1	-5
435.003	1	8
435.344	1	11
435.685	1	7
436.026	1	5
436.368	1	-8
436.709	1	-2
437.050	1	-1
437.391	1	-2
437.732	1	0
438.073	1	10
438.414	1	11
438.756	1	1
439.097	1	9
439.438	1	3
439.779	1	-14
440.120	1	3
440.461	1	-2
440.802	1	2
441.143	1	15
441.485	1	1
441.826	1	-3
442.167	1	-4
442.508	1	2
442.849	1	-3
443.190	1	-10
443.531	1	5
443.872	1	-6
444.213	1	-7
444.554	1	-6
444.895	1	-5
445.237	1	-5
445.578	1	8
445.919	1	5
446.260	1	0
446.601	1	5
446.942	1	5
447.283	1	-2
447.624	1	6
447.965	1	-7
448.306	1	0
448.647	1	11
448.988	1	-6
449.329	1	1
449.670	1	10
450.011	1	6
450.352	1	9
450.693	1	0
451.034	1	3
451.375	1	4
451.716	1	8
452.057	1	2
452.398	1	9
452.739	1	-3
453.080	1	6
453.421	1	6
453.762	1	10
454.103	1	0
454.444	1	7
454.785	1	-6
455.126	1	7
455.467	1	4
455.808	1	-2
456.149	1	-4
456.490	1	0
456.831	1	11
457.172	1	3
457.513	1	14
457.854	1	2
458.195	1	4
458.536	1	5
458.877	1	1
459.218	1	2
459.559	1	1
459.899	1	15
460.240	1	-7
460.581	1	20
460.922	1	2
461.263	1	11
461.604	1	0
461.945	1	10
462.286	1	6
462.627	1	2
462.968	1	-1
463.309	1	1
463.649	1	-4
463.990	1	1
464.331	1	-9
464.672	1	7
465.013	1	-4
465.354	1	3
465.695	1	6
466.036	1	2
466.376	1	-5
466.717	1	4
467.058	1	10
467.399	1	1
467.740	1	-1
468.081	1	6
468.422	1	7
468.762	1	-8
469.103	1	6
469.444	1	-2
469.785	1	12
470.126	1	-1
470.467	1	3
470.807	1	-5
471.148	1	-9
471.489	1	-4
471.830	1	8
472.171	1	6
472.511	1	0
472.852	1	-1
473.193	1	-4
473.534	1	-2
473.875	1	-5
474.215	1	-3
474.556	1	-4
474.897	1	-1
475.238	1	-5
475.578	1	-6
475.919	1	-2
476.260	1	-2
476.601	1	-3
476.942	1	6
477.282	1	-7
477.623	1	5
477.964	1	12
478.305	1	11
478.645	1	-3
478.986	1	7
479.327	1	-6
479.667	1	1
480.008	1	2
480.349	1	1
480.690	1	-8
481.030	1	-2
481.371	1	-1
481.712	1	2
482.053	1	10
482.393	1	-10
482.734	1	6
483.075	1	7
483.415	1	0
483.756	1	4
484.097	1	-7
484.437	1	-7
484.778	1	3
485.119	1	10
485.459	1	1
485.800	1	2
486.141	1	-5
486.481	1	-1
486.822	1	9
487.163	1	3
487.503	1	-14
487.844	1	8
488.185	1	-11
488.525	1	2
488.866	1	4
489.207	1	10
489.547	1	-4
489.888	1	5
490.228	1	-13
490.569	1	13
490.910	1	-3
491.250	1	16
491.591	1	8
491.932	1	9
492.272	1	10
492.613	1	5
492.953	1	5
493.294	1	11
493.635	1	-5
493.975	1	5
494.316	1	3
494.656	1	-2
494.997	1	2
495.337	1	5
495.678	1	16
496.019	1	-5
496.359	1	13
496.700	1	3
497.040	1	3
497.381	1	-19
497.721	1	2
498.062	1	-4
498.403	1	0
498.743	1	2
499.084	1	-9
499.424	1	16
499.765	1	10
500.105	1	6
500.446	1	8
500.786	1	8
501.127	1	5
501.467	1	1
501.808	1	-11
502.148	1	8
502.489	1	8
502.829	1	1
503.170	1	-2
503.510	1	0
503.851	1	-7
504.191	1	7
504.532	1	3
504.872	1	-5
505.213	1	0
505.553	1	3
505.894	1	10
506.234	1	4
506.575	1	5
506.915	1	6
507.256	1	-2
507.596	1	13
507.936	1	1
508.277	1	5
508.617	1	17
508.958	1	16
509.298	1	16
509.639	1	15
509.979	1	6
510.319	1	5
510.660	1	5
511.000	1	16
511.341	1	0
511.681	1	0
512.022	1	-2
512.362	1	5
512.702	1	-9
513.043	1	6
513.383	1	-2
513.724	1	16
514.064	1	11
514.404	1	-9
514.745	1	6
515.085	1	2
515.425	1	-2
515.766	1	7
516.106	1	-7
516.447	1	-3
516.787	1	-3
517.127	1	0
517.468	1	-6
517.808	1	1
518.148	1	7
518.489	1	5
518.829	1	6
519.169	1	12
519.510	1	4
519.850	1	1
520.190	1	1
520.531	1	11
520.871	1	-11
521.211	1	-3
521.552	1	1
521.892	1	1
522.232	1	-2
522.573	1	8
522.913	1	13
523.253	1	6
523.593	1	-7
523.934	1	9
524.274	1	-2
524.614	1	8
524.955	1	0
525.295	1	-5
525.635	1	14
525.975	1	-1
526.316	1	-2
526.656	1	5
526.996	1	12
527.337	1	1
527.677	1	9
528.017	1	-5
528.357	1	1
528.698	1	4
529.038	1	8
529.378	1	10
529.718	1	8
530.058	1	1
530.399	1	16
530.739	1	0
531.079	1	6
531.419	1	13
531.760	1	12
532.100	1	12
532.440	1	-5
532.780	1	11
533.120	1	8
533.461	1	13
533.801	1	4
534.141	1	6
534.481	1	6
534.821	1	8
535.162	1	15
535.502	1	5
535.842	1	3
536.182	1	3
536.522	1	15
536.862	1	8
537.203	1	1
537.543	1	6
537.883	1	12
538.223	1	14
538.563	1	4
538.903	1	6
539.243	1	-3
539.584	1	10
539.924	1	10
540.264	1	4
540.604	1	3
540.944	1	-10
541.284	1	-4
541.624	1	-1
541.964	1	13
542.305	1	-7
542.645	1	4
542.985	1	2
543.325	1	3
543.665	1	14
544.005	1	0
544.345	1	-1
544.685	1	4
545.025	1	-4
545.365	1	2
545.705	1	0
546.045	1	6
546.386	1	10
546.726	1	5
547.066	1	-17
547.406	1	16
547.746	1	17
548.086	1	6
548.426	1	7
548.766	1	14
549.106	1	8
549.446	1	6
549.786	1	2
550.126	1	3
550.466	1	0
550.806	1	12
551.146	1	-1
551.486	1	6
551.826	1	11
552.166	1	2
552.506	1	-1
552.846	1	6
553.186	1	6
553.526	1	-3
553.866	1	2
554.206	1	7
554.546	1	-9
554.886	1	11
555.226	1	-2
555.566	1	1
555.906	1	6
556.246	1	3
556.586	1	7
556.926	1	6
557.266	1	5
557.606	1	-7
557.946	1	4
558.286	1	9
558.626	1	12
558.966	1	1
559.306	1	-3
559.646	1	8
559.986	1	-3
560.325	1	-1
560.665	1	7
561.005	1	6
561.345	1	12
561.685	1	-2
562.025	1	-2
562.365	1	16
562.705	1	7
563.045	1	6
563.385	1	-5
563.725	1	2
564.064	1	3
564.404	1	2
564.744	1	5
565.084	1	-6
565.424	1	9
565.764	1	9
566.104	1	4
566.444	1	2
566.783	1	-1
567.123	1	18
567.463	1	-3
567.803	1	-1
568.143	1	-7
568.483	1	-8
568.823	1	0
569.162	1	7
569.502	1	6
569.842	1	-3
570.182	1	-2
570.522	1	5
570.862	1	7
571.201	1	11
571.541	1	-16
571.881	1	12
572.221	1	5
572.561	1	-4
572.900	1	5
573.240	1	-3
573.580	1	7
573.920	1	-7
574.260	1	6
574.599	1	4
574.939	1	-3
575.279	1	-12
575.619	1	2
575.959	1	1
576.298	1	-12
576.638	1	9
576.978	1	10
577.318	1	6
577.657	1	-11
577.997	1	-6
578.337	1	-2
578.677	1	8
579.016	1	9
579.356	1	-3
579.696	1	17
580.036	1	3
580.375	1	3
580.715	1	11
581.055	1	10
581.394	1	-2
581.734	1	5
582.074	1	-2
582.414	1	-3
582.753	1	10
583.093	1	-1
583.433	1	-11
583.772	1	6
584.112	1	5
584.452	1	-2
584.791	1	5
585.131	1	7
585.471	1	-5
585.811	1	-5
586.150	1	-2
586.490	1	-9
586.830	1	-3
587.169	1	-2
587.509	1	-1
587.849	1	-2
588.188	1	7
588.528	1	3
588.867	1	8
589.207	1	-5
589.547	1	1
589.886	1	-15
590.226	1	9
590.566	1	-7
590.905	1	8
591.245	1	2
591.585	1	-4
591.924	1	0
592.264	1	1
592.603	1	-1
592.943	1	-7
593.283	1	5
593.622	1	2
593.962	1	7
594.301	1	7
594.641	1	-7
594.981	1	-5
595.320	1	14
595.660	1	0
595.999	1	0
596.339	1	12
596.678	1	8
597.018	1	2
597.358	1	-3
597.697	1	0
598.037	1	7
598.376	1	6
598.716	1	2
599.055	1	0
599.395	1	8
599.734	1	-4
600.074	1	9
600.413	1	0
600.753	1	0
601.092	1	-14
601.432	1	-3
601.771	1	11
602.111	1	-3
602.451	1	2
602.790	1	-4
603.130	1	-2
603.469	1	1
603.809	1	5
604.148	1	0
604.487	1	9
604.827	1	-15
605.166	1	-10
605.506	1	6
605.845	1	2
606.185	1	-1
606.524	1	-1
606.864	1	-1
607.203	1	14
607.543	1	-4
607.882	1	1
608.222	1	5
608.561	1	5
608.901	1	1
609.240	1	4
609.579	1	5
609.919	1	5
610.258	1	9
610.598	1	0
610.937	1	-9
611.277	1	8
611.616	1	1
611.955	1	13
612.295	1	6
612.634	1	0
612.974	1	4
613.313	1	-1
613.652	1	-5
613.992	1	9
614.331	1	2
614.671	1	12
615.010	1	2
615.349	1	5
615.689	1	6
616.028	1	6
616.368	1	-5
616.707	1	1
617.046	1	5
617.386	1	-10
617.725	1	0
618.064	1	4
618.404	1	6
618.743	1	5
619.082	1	-2
619.422	1	6
619.761	1	10
620.100	1	2
620.440	1	5
620.779	1	0
621.118	1	-6
621.458	1	-1
621.797	1	4
622.136	1	2
622.476	1	12
622.815	1	1
623.154	1	6
623.494	1	1
623.833	1	1
624.172	1	4
624.511	1	4
624.851	1	-10
625.190	1	8
625.529	1	0
625.869	1	10
626.208	1	-6
626.547	1	0
626.886	1	-1
627.226	1	6
627.565	1	12
627.904	1	2
628.243	1	-4
628.583	1	3
628.922	1	-3
629.261	1	7
629.600	1	10
629.940	1	6
630.279	1	-9
630.618	1	0
630.957	1	-3
631.297	1	0
631.636	1	-4
631.975	1	3
632.314	1	10
632.653	1	-8
632.993	1	10
633.332	1	6
633.671	1	-6
634.010	1	-4
634.349	1	7
634.689	1	13
635.028	1	0
635.367	1	-5
635.706	1	-8
636.045	1	2
636.384	1	12
636.724	1	-4
637.063	1	-2
637.402	1	7
637.741	1	4
638.080	1	11
638.419	1	7
638.759	1	4
639.098	1	3
639.437	1	1
639.776	1	4
640.115	1	-2
640.454	1	11
640.793	1	8
641.132	1	12
641.472	1	-5
641.811	1	1
642.150	1	5
642.489	1	1
642.828	1	4
643.167	1	4
643.506	1	-8
643.845	1	-1
644.184	1	6
644.524	1	3
644.863	1	-7
645.202	1	3
645.541	1	-3
645.880	1	6
646.219	1	6
646.558	1	-1
646.897	1	1
647.236	1	7
647.575	1	3
647.914	1	0
648.253	1	2
648.592	1	1
648.931	1	7
649.270	1	11
649.610	1	14
649.949	1	4
650.288	1	-4
650.627	1	0
650.966	1	-3
651.305	1	8
651.644	1	1
651.983	1	4
652.322	1	4
652.661	1	2
653.000	1	2
653.339	1	6
653.678	1	-6
654.017	1	-2
654.356	1	14
654.695	1	6
655.034	1	-1
655.373	1	-4
655.712	1	-3
656.051	1	4
656.390	1	6
656.729	1	8
657.068	1	-2
657.406	1	4
657.745	1	2
658.084	1	16
658.423	1	-5
658.762	1	-4
659.101	1	4
659.440	1	10
659.779	1	-4
660.118	1	12
660.457	1	-4
660.796	1	-5
661.135	1	10
661.474	1	7
661.813	1	-1
662.152	1	5
662.491	1	1
662.829	1	4
663.168	1	-9
663.507	1	7
663.846	1	2
664.185	1	4
664.524	1	5
664.863	1	3
665.202	1	-7
665.541	1	-3
665.879	1	-4
666.218	1	-2
666.557	1	4
666.896	1	-3
667.235	1	5
667.574	1	4
667.913	1	8
668.251	1	1
668.590	1	-2
668.929	1	6
669.268	1	4
669.607	1	-8
669.946	1	7
670.285	1	4
670.623	1	2
670.962	1	3
671.301	1	-8
671.640	1	-11
671.979	1	5
672.317	1	-7
672.656	1	-5
672.995	1	-1
673.334	1	9
673.673	1	9
674.011	1	9
674.350	1	-9
674.689	1	-2
675.028	1	4
675.367	1	0
675.705	1	3
676.044	1	0
676.383	1	6
676.722	1	-4
677.060	1	4
677.399	1	-15
677.738	1	-3
678.077	1	1
678.416	1	4
678.754	1	-3
679.093	1	4
679.432	1	8
679.771	1	-10
680.109	1	15
680.448	1	3
680.787	1	2
681.125	1	15
681.464	1	2
681.803	1	-19
682.142	1	9
682.480	1	-9
682.819	1	-2
683.158	1	-3
683.496	1	0
683.835	1	8
684.174	1	-2
684.512	1	5
684.851	1	3
685.190	1	2
685.529	1	-1
685.867	1	1
686.206	1	0
686.545	1	-3
686.883	1	0
687.222	1	3
687.561	1	5
687.899	1	-7
688.238	1	-1
688.577	1	-1
688.746	1	2