File: Analysis/GaN_68K_200ms/GaN_sample E_spot4_UVVIS_68 K_200um_200 ms 2x2mm1_417.txt
340.368	1	4
340.710	1	-2
341.052	1	3
341.394	1	1
341.737	1	4
342.079	1	0
342.421	1	-3
342.763	1	3
343.105	1	9
343.447	1	2
343.789	1	3
344.131	1	-2
344.473	1	0
344.815	1	12
345.157	1	7
345.499	1	13
345.841	1	9
346.183	1	3
346.526	1	5
346.868	1	-5
347.210	1	2
347.552	1	-4
347.894	1	-2
348.236	1	6
348.578	1	0
348.920	1	3
349.262	1	-4
349.604	1	6
349.946	1	3
350.288	1	1
350.630	1	-12
350.972	1	-1
351.314	1	-1
351.656	1	-4
351.998	1	5
352.340	1	1
352.682	1	-2
353.024	1	-5
353.366	1	8
353.708	1	-3
354.050	1	9
354.392	1	8
354.734	1	-9
355.076	1	0
355.418	1	-5
355.760	1	4
356.102	1	3
356.444	1	6
356.785	1	10
357.127	1	3
357.469	1	-8
357.811	1	17
358.153	1	11
358.495	1	10
358.837	1	6
359.179	1	6
359.521	1	-1
359.863	1	-2
360.205	1	2
360.547	1	5
360.889	1	-5
361.231	1	3
361.572	1	3
361.914	1	0
362.256	1	2
362.598	1	5
362.940	1	5
363.282	1	8
363.624	1	7
363.966	1	7
364.308	1	-5
364.649	1	3
364.991	1	9
365.333	1	13
365.675	1	-4
366.017	1	8
366.359	1	8
366.701	1	1
367.042	1	14
367.384	1	10
367.726	1	20
368.068	1	6
368.410	1	-3
368.752	1	-1
369.093	1	4
369.435	1	4
369.777	1	0
370.119	1	3
370.461	1	8
370.803	1	-1
371.144	1	3
371.486	1	6
371.828	1	1
372.170	1	11
372.512	1	9
372.853	1	2
373.195	1	0
373.537	1	6
373.879	1	9
374.220	1	3
374.562	1	4
374.904	1	1
375.246	1	7
375.588	1	5
375.929	1	6
376.271	1	-5
376.613	1	-6
376.955	1	-1
377.296	1	4
377.638	1	1
377.980	1	14
378.321	1	4
378.663	1	2
379.005	1	12
379.347	1	7
379.688	1	-8
380.030	1	-2
380.372	1	0
380.714	1	6
381.055	1	2
381.397	1	1
381.739	1	2
382.080	1	-6
382.422	1	11
382.764	1	3
383.105	1	2
383.447	1	16
383.789	1	11
384.130	1	2
384.472	1	-7
384.814	1	10
385.156	1	13
385.497	1	1
385.839	1	8
386.180	1	5
386.522	1	20
386.864	1	-6
387.205	1	3
387.547	1	6
387.889	1	17
388.230	1	2
388.572	1	-3
388.914	1	17
389.255	1	11
389.597	1	-2
389.939	1	15
390.280	1	13
390.622	1	0
390.963	1	13
391.305	1	21
391.647	1	3
391.988	1	1
392.330	1	17
392.671	1	6
393.013	1	19
393.355	1	15
393.696	1	4
394.038	1	-5
394.379	1	8
394.721	1	12
395.062	1	-3
395.404	1	9
395.746	1	7
396.087	1	4
396.429	1	11
396.770	1	12
397.112	1	-5
397.453	1	-2
397.795	1	10
398.136	1	5
398.478	1	4
398.819	1	7
399.161	1	13
399.503	1	11
399.844	1	-2
400.186	1	9
400.527	1	4
400.869	1	13
401.210	1	-4
401.552	1	12
401.893	1	5
402.235	1	15
402.576	1	4
402.918	1	-2
403.259	1	-7
403.601	1	6
403.942	1	8
404.284	1	-7
404.625	1	5
404.967	1	7
405.308	1	-3
405.649	1	1
405.991	1	12
406.332	1	3
406.674	1	9
407.015	1	0
407.357	1	9
407.698	1	3
408.040	1	-3
408.381	1	3
408.722	1	3
409.064	1	8
409.405	1	2
409.747	1	-7
410.088	1	5
410.430	1	11
410.771	1	10
411.112	1	8
411.454	1	3
411.795	1	5
412.137	1	14
412.478	1	9
412.819	1	-6
413.161	1	2
413.502	1	-5
413.844	1	1
414.185	1	14
414.526	1	1
414.868	1	17
415.209	1	3
415.550	1	-2
415.892	1	4
416.233	1	1
416.575	1	4
416.916	1	0
417.257	1	1
417.599	1	6
417.940	1	0
418.281	1	2
418.623	1	-4
418.964	1	5
419.305	1	0
419.647	1	7
419.988	1	0
420.329	1	5
420.671	1	11
421.012	1	6
421.353	1	10
421.695	1	2
422.036	1	-1
422.377	1	-1
422.718	1	-2
423.060	1	8
423.401	1	16
423.742	1	4
424.084	1	-3
424.425	1	3
424.766	1	3
425.107	1	0
425.449	1	10
425.790	1	3
426.131	1	5
426.472	1	1
426.814	1	13
427.155	1	-11
427.496	1	12
427.837	1	-6
428.179	1	-7
428.520	1	1
428.861	1	1
429.202	1	4
429.544	1	-2
429.885	1	6
430.226	1	-8
430.567	1	12
430.909	1	-5
431.250	1	3
431.591	1	8
431.932	1	8
432.273	1	5
432.615	1	3
432.956	1	-7
433.297	1	6
433.638	1	-8
433.979	1	4
434.320	1	6
434.662	1	-6
435.003	1	13
435.344	1	-2
435.685	1	8
436.026	1	3
436.368	1	6
436.709	1	-5
437.050	1	7
437.391	1	12
437.732	1	8
438.073	1	12
438.414	1	5
438.756	1	6
439.097	1	6
439.438	1	5
439.779	1	-5
440.120	1	5
440.461	1	4
440.802	1	10
441.143	1	9
441.485	1	-3
441.826	1	-8
442.167	1	-1
442.508	1	2
442.849	1	5
443.190	1	-8
443.531	1	-1
443.872	1	4
444.213	1	-9
444.554	1	3
444.895	1	-10
445.237	1	-10
445.578	1	10
445.919	1	2
446.260	1	12
446.601	1	-9
446.942	1	9
447.283	1	4
447.624	1	0
447.965	1	-4
448.306	1	6
448.647	1	9
448.988	1	-8
449.329	1	6
449.670	1	10
450.011	1	2
450.352	1	4
450.693	1	10
451.034	1	0
451.375	1	12
451.716	1	1
452.057	1	8
452.398	1	7
452.739	1	3
453.080	1	20
453.421	1	2
453.762	1	10
454.103	1	-7
454.444	1	7
454.785	1	-1
455.126	1	2
455.467	1	1
455.808	1	1
456.149	1	-7
456.490	1	8
456.831	1	12
457.172	1	1
457.513	1	13
457.854	1	-6
458.195	1	-5
458.536	1	0
458.877	1	3
459.218	1	7
459.559	1	7
459.899	1	8
460.240	1	8
460.581	1	12
460.922	1	-6
461.263	1	7
461.604	1	-1
461.945	1	8
462.286	1	12
462.627	1	2
462.968	1	0
463.309	1	1
463.649	1	-6
463.990	1	3
464.331	1	12
464.672	1	-5
465.013	1	-9
465.354	1	6
465.695	1	5
466.036	1	5
466.376	1	1
466.717	1	-5
467.058	1	10
467.399	1	2
467.740	1	0
468.081	1	0
468.422	1	6
468.762	1	-1
469.103	1	-9
469.444	1	-7
469.785	1	13
470.126	1	4
470.467	1	6
470.807	1	2
471.148	1	4
471.489	1	-10
471.830	1	10
472.171	1	6
472.511	1	8
472.852	1	4
473.193	1	-2
473.534	1	2
473.875	1	-8
474.215	1	-8
474.556	1	-16
474.897	1	11
475.238	1	8
475.578	1	-1
475.919	1	4
476.260	1	2
476.601	1	1
476.942	1	-4
477.282	1	-4
477.623	1	7
477.964	1	7
478.305	1	17
478.645	1	-2
478.986	1	2
479.327	1	-9
479.667	1	1
480.008	1	2
480.349	1	0
480.690	1	6
481.030	1	1
481.371	1	7
481.712	1	4
482.053	1	4
482.393	1	-15
482.734	1	-6
483.075	1	0
483.415	1	5
483.756	1	4
484.097	1	-7
484.437	1	-10
484.778	1	-1
485.119	1	10
485.459	1	7
485.800	1	-2
486.141	1	-10
486.481	1	5
486.822	1	15
487.163	1	-8
487.503	1	-11
487.844	1	4
488.185	1	-1
488.525	1	-2
488.866	1	6
489.207	1	3
489.547	1	-1
489.888	1	8
490.228	1	-3
490.569	1	9
490.910	1	-4
491.250	1	-1
491.591	1	-4
491.932	1	10
492.272	1	1
492.613	1	6
492.953	1	3
493.294	1	2
493.635	1	0
493.975	1	6
494.316	1	-2
494.656	1	4
494.997	1	-5
495.337	1	8
495.678	1	10
496.019	1	4
496.359	1	6
496.700	1	7
497.040	1	7
497.381	1	-21
497.721	1	0
498.062	1	-3
498.403	1	13
498.743	1	-3
499.084	1	-6
499.424	1	10
499.765	1	6
500.105	1	2
500.446	1	5
500.786	1	9
501.127	1	15
501.467	1	2
501.808	1	-11
502.148	1	7
502.489	1	7
502.829	1	3
503.170	1	11
503.510	1	4
503.851	1	-8
504.191	1	8
504.532	1	4
504.872	1	-3
505.213	1	-2
505.553	1	7
505.894	1	4
506.234	1	12
506.575	1	3
506.915	1	7
507.256	1	-1
507.596	1	18
507.936	1	3
508.277	1	-2
508.617	1	-3
508.958	1	13
509.298	1	15
509.639	1	10
509.979	1	5
510.319	1	1
510.660	1	10
511.000	1	5
511.341	1	3
511.681	1	6
512.022	1	3
512.362	1	8
512.702	1	0
513.043	1	8
513.383	1	0
513.724	1	13
514.064	1	-3
514.404	1	-3
514.745	1	5
515.085	1	3
515.425	1	-2
515.766	1	10
516.106	1	-10
516.447	1	5
516.787	1	-4
517.127	1	10
517.468	1	0
517.808	1	14
518.148	1	-2
518.489	1	1
518.829	1	-3
519.169	1	13
519.510	1	5
519.850	1	-2
520.190	1	1
520.531	1	10
520.871	1	3
521.211	1	4
521.552	1	7
521.892	1	-6
522.232	1	-4
522.573	1	10
522.913	1	5
523.253	1	7
523.593	1	-5
523.934	1	-2
524.274	1	-5
524.614	1	1
524.955	1	-8
525.295	1	0
525.635	1	21
525.975	1	-1
526.316	1	3
526.656	1	8
526.996	1	15
527.337	1	-3
527.677	1	6
528.017	1	-1
528.357	1	10
528.698	1	7
529.038	1	8
529.378	1	11
529.718	1	5
530.058	1	-4
530.399	1	7
530.739	1	8
531.079	1	8
531.419	1	17
531.760	1	4
532.100	1	14
532.440	1	4
532.780	1	3
533.120	1	-2
533.461	1	10
533.801	1	1
534.141	1	16
534.481	1	7
534.821	1	9
535.162	1	6
535.502	1	7
535.842	1	3
536.182	1	6
536.522	1	8
536.862	1	2
537.203	1	11
537.543	1	8
537.883	1	8
538.223	1	4
538.563	1	1
538.903	1	-2
539.243	1	12
539.584	1	5
539.924	1	11
540.264	1	2
540.604	1	9
540.944	1	-1
541.284	1	-2
541.624	1	4
541.964	1	7
542.305	1	-4
542.645	1	3
542.985	1	-1
543.325	1	-1
543.665	1	9
544.005	1	6
544.345	1	-7
544.685	1	6
545.025	1	8
545.365	1	6
545.705	1	5
546.045	1	13
546.386	1	6
546.726	1	4
547.066	1	6
547.406	1	11
547.746	1	6
548.086	1	5
548.426	1	3
548.766	1	11
549.106	1	17
549.446	1	4
549.786	1	10
550.126	1	9
550.466	1	5
550.806	1	5
551.146	1	-2
551.486	1	5
551.826	1	14
552.166	1	11
552.506	1	-3
552.846	1	7
553.186	1	7
553.526	1	-1
553.866	1	12
554.206	1	6
554.546	1	-9
554.886	1	-2
555.226	1	-1
555.566	1	16
555.906	1	6
556.246	1	1
556.586	1	3
556.926	1	2
557.266	1	11
557.606	1	-6
557.946	1	2
558.286	1	4
558.626	1	9
558.966	1	4
559.306	1	9
559.646	1	4
559.986	1	-1
560.325	1	-10
560.665	1	10
561.005	1	6
561.345	1	6
561.685	1	5
562.025	1	-7
562.365	1	5
562.705	1	6
563.045	1	5
563.385	1	1
563.725	1	-5
564.064	1	8
564.404	1	4
564.744	1	11
565.084	1	-3
565.424	1	-6
565.764	1	11
566.104	1	-3
566.444	1	3
566.783	1	14
567.123	1	12
567.463	1	-2
567.803	1	-1
568.143	1	-3
568.483	1	0
568.823	1	4
569.162	1	9
569.502	1	19
569.842	1	0
570.182	1	-6
570.522	1	3
570.862	1	12
571.201	1	12
571.541	1	-6
571.881	1	4
572.221	1	2
572.561	1	-1
572.900	1	11
573.240	1	-1
573.580	1	4
573.920	1	6
574.260	1	-1
574.599	1	0
574.939	1	3
575.279	1	3
575.619	1	4
575.959	1	-5
576.298	1	-4
576.638	1	4
576.978	1	-5
577.318	1	6
577.657	1	-7
577.997	1	-4
578.337	1	6
578.677	1	4
579.016	1	7
579.356	1	-4
579.696	1	6
580.036	1	3
580.375	1	1
580.715	1	5
581.055	1	1
581.394	1	-3
581.734	1	10
582.074	1	3
582.414	1	-2
582.753	1	8
583.093	1	-7
583.433	1	-3
583.772	1	1
584.112	1	8
584.452	1	1
584.791	1	1
585.131	1	-1
585.471	1	-2
585.811	1	-1
586.150	1	0
586.490	1	0
586.830	1	-6
587.169	1	-3
587.509	1	1
587.849	1	10
588.188	1	0
588.528	1	8
588.867	1	12
589.207	1	-15
589.547	1	2
589.886	1	-7
590.226	1	4
590.566	1	-2
590.905	1	9
591.245	1	3
591.585	1	-3
591.924	1	3
592.264	1	2
592.603	1	0
592.943	1	-11
593.283	1	12
593.622	1	3
593.962	1	8
594.301	1	13
594.641	1	-8
594.981	1	7
595.320	1	8
595.660	1	1
595.999	1	0
596.339	1	2
596.678	1	4
597.018	1	3
597.358	1	5
597.697	1	2
598.037	1	3
598.376	1	8
598.716	1	-10
599.055	1	-1
599.395	1	9
599.734	1	3
600.074	1	-1
600.413	1	3
600.753	1	-3
601.092	1	-11
601.432	1	-2
601.771	1	11
602.111	1	-8
602.451	1	-1
602.790	1	-1
603.130	1	9
603.469	1	-1
603.809	1	5
604.148	1	-3
604.487	1	11
604.827	1	-9
605.166	1	-1
605.506	1	7
605.845	1	1
606.185	1	-1
606.524	1	-1
606.864	1	-3
607.203	1	5
607.543	1	0
607.882	1	1
608.222	1	0
608.561	1	-3
608.901	1	0
609.240	1	4
609.579	1	-2
609.919	1	-9
610.258	1	5
610.598	1	8
610.937	1	0
611.277	1	4
611.616	1	-3
611.955	1	6
612.295	1	8
612.634	1	-3
612.974	1	9
613.313	1	6
613.652	1	-8
613.992	1	3
614.331	1	5
614.671	1	4
615.010	1	3
615.349	1	2
615.689	1	0
616.028	1	5
616.368	1	-1
616.707	1	3
617.046	1	6
617.386	1	3
617.725	1	14
618.064	1	6
618.404	1	9
618.743	1	0
619.082	1	6
619.422	1	1
619.761	1	4
620.100	1	5
620.440	1	-2
620.779	1	-4
621.118	1	7
621.458	1	-1
621.797	1	-1
622.136	1	-1
622.476	1	3
622.815	1	2
623.154	1	3
623.494	1	4
623.833	1	-3
624.172	1	13
624.511	1	1
624.851	1	-6
625.190	1	4
625.529	1	0
625.869	1	-1
626.208	1	2
626.547	1	6
626.886	1	-5
627.226	1	-1
627.565	1	6
627.904	1	3
628.243	1	-5
628.583	1	-8
628.922	1	0
629.261	1	3
629.600	1	8
629.940	1	5
630.279	1	-10
630.618	1	0
630.957	1	-1
631.297	1	4
631.636	1	11
631.975	1	1
632.314	1	8
632.653	1	-9
632.993	1	16
633.332	1	7
633.671	1	3
634.010	1	3
634.349	1	-2
634.689	1	4
635.028	1	6
635.367	1	-2
635.706	1	-4
636.045	1	1
636.384	1	6
636.724	1	3
637.063	1	-9
637.402	1	6
637.741	1	15
638.080	1	2
638.419	1	9
638.759	1	2
639.098	1	-1
639.437	1	-7
639.776	1	4
640.115	1	6
640.454	1	14
640.793	1	2
641.132	1	6
641.472	1	-9
641.811	1	1
642.150	1	8
642.489	1	4
642.828	1	1
643.167	1	0
643.506	1	-6
643.845	1	2
644.184	1	4
644.524	1	-5
644.863	1	-9
645.202	1	-2
645.541	1	-7
645.880	1	7
646.219	1	-1
646.558	1	3
646.897	1	-5
647.236	1	1
647.575	1	2
647.914	1	-6
648.253	1	2
648.592	1	4
648.931	1	11
649.270	1	9
649.610	1	20
649.949	1	-2
650.288	1	5
650.627	1	-4
650.966	1	-7
651.305	1	-5
651.644	1	7
651.983	1	5
652.322	1	7
652.661	1	1
653.000	1	-6
653.339	1	6
653.678	1	2
654.017	1	2
654.356	1	2
654.695	1	7
655.034	1	-4
655.373	1	-1
655.712	1	1
656.051	1	13
656.390	1	0
656.729	1	10
657.068	1	2
657.406	1	-6
657.745	1	-6
658.084	1	9
658.423	1	-5
658.762	1	2
659.101	1	-6
659.440	1	13
659.779	1	2
660.118	1	4
660.457	1	1
660.796	1	-3
661.135	1	-2
661.474	1	3
661.813	1	-1
662.152	1	-1
662.491	1	1
662.829	1	-7
663.168	1	-7
663.507	1	3
663.846	1	8
664.185	1	-3
664.524	1	-11
664.863	1	3
665.202	1	-8
665.541	1	-4
665.879	1	5
666.218	1	-6
666.557	1	4
666.896	1	0
667.235	1	-2
667.574	1	0
667.913	1	-5
668.251	1	-3
668.590	1	-1
668.929	1	6
669.268	1	-5
669.607	1	-4
669.946	1	14
670.285	1	-1
670.623	1	-1
670.962	1	1
671.301	1	2
671.640	1	-9
671.979	1	16
672.317	1	-7
672.656	1	-2
672.995	1	3
673.334	1	9
673.673	1	15
674.011	1	11
674.350	1	-6
674.689	1	-4
675.028	1	6
675.367	1	10
675.705	1	-9
676.044	1	-4
676.383	1	1
676.722	1	4
677.060	1	11
677.399	1	8
677.738	1	-8
678.077	1	0
678.416	1	3
678.754	1	7
679.093	1	7
679.432	1	-12
679.771	1	6
680.109	1	-2
680.448	1	2
680.787	1	1
681.125	1	7
681.464	1	3
681.803	1	-4
682.142	1	18
682.480	1	-6
682.819	1	-7
683.158	1	4
683.496	1	0
683.835	1	11
684.174	1	-1
684.512	1	1
684.851	1	-3
685.190	1	10
685.529	1	0
685.867	1	4
686.206	1	5
686.545	1	7
686.883	1	-1
687.222	1	-8
687.561	1	2
687.899	1	1
688.238	1	-3
688.577	1	-7
688.746	1	0