File: Analysis/GaN_68K_200ms/GaN_sample E_spot4_UVVIS_68 K_200um_200 ms 2x2mm1_427.txt
340.368	1	10
340.710	1	-4
341.052	1	11
341.394	1	-1
341.737	1	11
342.079	1	-2
342.421	1	-11
342.763	1	-3
343.105	1	9
343.447	1	8
343.789	1	0
344.131	1	-8
344.473	1	0
344.815	1	-2
345.157	1	15
345.499	1	8
345.841	1	3
346.183	1	-5
346.526	1	9
346.868	1	-1
347.210	1	5
347.552	1	-1
347.894	1	1
348.236	1	-1
348.578	1	4
348.920	1	10
349.262	1	-1
349.604	1	11
349.946	1	10
350.288	1	1
350.630	1	-6
350.972	1	-1
351.314	1	-2
351.656	1	-3
351.998	1	2
352.340	1	-1
352.682	1	-5
353.024	1	0
353.366	1	10
353.708	1	2
354.050	1	5
354.392	1	3
354.734	1	3
355.076	1	6
355.418	1	-7
355.760	1	1
356.102	1	-7
356.444	1	4
356.785	1	11
357.127	1	7
357.469	1	9
357.811	1	12
358.153	1	4
358.495	1	7
358.837	1	9
359.179	1	9
359.521	1	-1
359.863	1	2
360.205	1	-2
360.547	1	7
360.889	1	0
361.231	1	3
361.572	1	3
361.914	1	-5
362.256	1	5
362.598	1	1
362.940	1	6
363.282	1	4
363.624	1	7
363.966	1	6
364.308	1	-4
364.649	1	-2
364.991	1	1
365.333	1	5
365.675	1	-5
366.017	1	7
366.359	1	-3
366.701	1	-4
367.042	1	8
367.384	1	13
367.726	1	12
368.068	1	5
368.410	1	-3
368.752	1	1
369.093	1	-3
369.435	1	0
369.777	1	4
370.119	1	8
370.461	1	7
370.803	1	1
371.144	1	9
371.486	1	3
371.828	1	6
372.170	1	16
372.512	1	-9
372.853	1	2
373.195	1	-7
373.537	1	3
373.879	1	13
374.220	1	6
374.562	1	1
374.904	1	-2
375.246	1	-1
375.588	1	4
375.929	1	9
376.271	1	-1
376.613	1	-1
376.955	1	1
377.296	1	2
377.638	1	-5
377.980	1	2
378.321	1	8
378.663	1	-1
379.005	1	10
379.347	1	0
379.688	1	-1
380.030	1	3
380.372	1	-7
380.714	1	-2
381.055	1	0
381.397	1	-5
381.739	1	0
382.080	1	-12
382.422	1	7
382.764	1	-2
383.105	1	4
383.447	1	17
383.789	1	0
384.130	1	-5
384.472	1	-3
384.814	1	11
385.156	1	11
385.497	1	4
385.839	1	2
386.180	1	3
386.522	1	4
386.864	1	-5
387.205	1	7
387.547	1	-8
387.889	1	11
388.230	1	1
388.572	1	5
388.914	1	11
389.255	1	11
389.597	1	3
389.939	1	14
390.280	1	6
390.622	1	0
390.963	1	1
391.305	1	7
391.647	1	8
391.988	1	0
392.330	1	13
392.671	1	7
393.013	1	11
393.355	1	12
393.696	1	0
394.038	1	4
394.379	1	-3
394.721	1	6
395.062	1	-7
395.404	1	15
395.746	1	-2
396.087	1	9
396.429	1	-3
396.770	1	7
397.112	1	3
397.453	1	-3
397.795	1	14
398.136	1	10
398.478	1	-1
398.819	1	10
399.161	1	8
399.503	1	4
399.844	1	5
400.186	1	8
400.527	1	5
400.869	1	9
401.210	1	-2
401.552	1	12
401.893	1	8
402.235	1	6
402.576	1	-1
402.918	1	1
403.259	1	-5
403.601	1	2
403.942	1	12
404.284	1	5
404.625	1	7
404.967	1	-1
405.308	1	10
405.649	1	8
405.991	1	7
406.332	1	0
406.674	1	8
407.015	1	-5
407.357	1	9
407.698	1	4
408.040	1	-4
408.381	1	2
408.722	1	1
409.064	1	8
409.405	1	6
409.747	1	-3
410.088	1	8
410.430	1	7
410.771	1	2
411.112	1	0
411.454	1	6
411.795	1	1
412.137	1	7
412.478	1	-1
412.819	1	-1
413.161	1	-6
413.502	1	3
413.844	1	2
414.185	1	9
414.526	1	6
414.868	1	11
415.209	1	0
415.550	1	3
415.892	1	-6
416.233	1	-5
416.575	1	4
416.916	1	2
417.257	1	9
417.599	1	9
417.940	1	5
418.281	1	4
418.623	1	-3
418.964	1	7
419.305	1	7
419.647	1	8
419.988	1	0
420.329	1	2
420.671	1	0
421.012	1	6
421.353	1	4
421.695	1	10
422.036	1	-7
422.377	1	2
422.718	1	-2
423.060	1	-9
423.401	1	5
423.742	1	-6
424.084	1	2
424.425	1	2
424.766	1	2
425.107	1	1
425.449	1	2
425.790	1	4
426.131	1	4
426.472	1	-7
426.814	1	1
427.155	1	0
427.496	1	5
427.837	1	-4
428.179	1	-2
428.520	1	0
428.861	1	0
429.202	1	9
429.544	1	1
429.885	1	0
430.226	1	5
430.567	1	10
430.909	1	-2
431.250	1	-8
431.591	1	-2
431.932	1	0
432.273	1	-1
432.615	1	6
432.956	1	-2
433.297	1	15
433.638	1	-4
433.979	1	-1
434.320	1	1
434.662	1	2
435.003	1	4
435.344	1	-2
435.685	1	9
436.026	1	6
436.368	1	2
436.709	1	-6
437.050	1	0
437.391	1	-2
437.732	1	1
438.073	1	6
438.414	1	3
438.756	1	15
439.097	1	4
439.438	1	8
439.779	1	2
440.120	1	3
440.461	1	-6
440.802	1	10
441.143	1	18
441.485	1	-4
441.826	1	-2
442.167	1	0
442.508	1	1
442.849	1	8
443.190	1	-1
443.531	1	8
443.872	1	-3
444.213	1	-11
444.554	1	-5
444.895	1	-2
445.237	1	-5
445.578	1	13
445.919	1	-4
446.260	1	3
446.601	1	1
446.942	1	-1
447.283	1	0
447.624	1	5
447.965	1	-8
448.306	1	3
448.647	1	10
448.988	1	-6
449.329	1	7
449.670	1	10
450.011	1	3
450.352	1	10
450.693	1	5
451.034	1	-1
451.375	1	5
451.716	1	9
452.057	1	6
452.398	1	2
452.739	1	8
453.080	1	11
453.421	1	0
453.762	1	4
454.103	1	-2
454.444	1	8
454.785	1	1
455.126	1	-4
455.467	1	-2
455.808	1	-5
456.149	1	-7
456.490	1	6
456.831	1	17
457.172	1	4
457.513	1	10
457.854	1	0
458.195	1	-5
458.536	1	0
458.877	1	0
459.218	1	11
459.559	1	-1
459.899	1	12
460.240	1	4
460.581	1	8
460.922	1	5
461.263	1	7
461.604	1	-2
461.945	1	7
462.286	1	5
462.627	1	7
462.968	1	0
463.309	1	1
463.649	1	-3
463.990	1	6
464.331	1	10
464.672	1	-1
465.013	1	3
465.354	1	7
465.695	1	12
466.036	1	6
466.376	1	-3
466.717	1	-5
467.058	1	10
467.399	1	1
467.740	1	6
468.081	1	3
468.422	1	5
468.762	1	-11
469.103	1	4
469.444	1	1
469.785	1	8
470.126	1	5
470.467	1	-1
470.807	1	-5
471.148	1	-8
471.489	1	-5
471.830	1	12
472.171	1	3
472.511	1	9
472.852	1	-11
473.193	1	-2
473.534	1	2
473.875	1	-3
474.215	1	-2
474.556	1	-13
474.897	1	2
475.238	1	8
475.578	1	0
475.919	1	7
476.260	1	2
476.601	1	-5
476.942	1	7
477.282	1	0
477.623	1	9
477.964	1	-5
478.305	1	-2
478.645	1	-6
478.986	1	4
479.327	1	-2
479.667	1	5
480.008	1	10
480.349	1	2
480.690	1	7
481.030	1	2
481.371	1	-2
481.712	1	6
482.053	1	9
482.393	1	-9
482.734	1	3
483.075	1	1
483.415	1	12
483.756	1	9
484.097	1	-2
484.437	1	-4
484.778	1	-4
485.119	1	0
485.459	1	4
485.800	1	2
486.141	1	-4
486.481	1	6
486.822	1	0
487.163	1	-1
487.503	1	-6
487.844	1	3
488.185	1	3
488.525	1	2
488.866	1	7
489.207	1	7
489.547	1	-3
489.888	1	3
490.228	1	-6
490.569	1	8
490.910	1	-2
491.250	1	3
491.591	1	0
491.932	1	6
492.272	1	4
492.613	1	1
492.953	1	3
493.294	1	10
493.635	1	-5
493.975	1	-3
494.316	1	14
494.656	1	-4
494.997	1	0
495.337	1	3
495.678	1	10
496.019	1	-3
496.359	1	5
496.700	1	13
497.040	1	10
497.381	1	-18
497.721	1	3
498.062	1	0
498.403	1	8
498.743	1	1
499.084	1	-8
499.424	1	14
499.765	1	-3
500.105	1	-1
500.446	1	11
500.786	1	5
501.127	1	8
501.467	1	3
501.808	1	-6
502.148	1	4
502.489	1	14
502.829	1	-1
503.170	1	-2
503.510	1	-5
503.851	1	-6
504.191	1	2
504.532	1	4
504.872	1	1
505.213	1	-1
505.553	1	0
505.894	1	3
506.234	1	4
506.575	1	1
506.915	1	0
507.256	1	-4
507.596	1	7
507.936	1	8
508.277	1	-14
508.617	1	6
508.958	1	3
509.298	1	10
509.639	1	11
509.979	1	-5
510.319	1	-8
510.660	1	2
511.000	1	9
511.341	1	-9
511.681	1	4
512.022	1	-10
512.362	1	8
512.702	1	-3
513.043	1	2
513.383	1	-7
513.724	1	13
514.064	1	9
514.404	1	5
514.745	1	4
515.085	1	-2
515.425	1	1
515.766	1	2
516.106	1	0
516.447	1	7
516.787	1	-3
517.127	1	0
517.468	1	1
517.808	1	7
518.148	1	-5
518.489	1	-1
518.829	1	-5
519.169	1	9
519.510	1	3
519.850	1	5
520.190	1	9
520.531	1	2
520.871	1	4
521.211	1	7
521.552	1	8
521.892	1	-3
522.232	1	-10
522.573	1	-2
522.913	1	6
523.253	1	-1
523.593	1	-5
523.934	1	15
524.274	1	-4
524.614	1	1
524.955	1	0
525.295	1	-3
525.635	1	10
525.975	1	-4
526.316	1	2
526.656	1	23
526.996	1	10
527.337	1	6
527.677	1	4
528.017	1	-4
528.357	1	2
528.698	1	-7
529.038	1	5
529.378	1	8
529.718	1	2
530.058	1	-4
530.399	1	11
530.739	1	2
531.079	1	12
531.419	1	14
531.760	1	4
532.100	1	15
532.440	1	1
532.780	1	5
533.120	1	-9
533.461	1	17
533.801	1	9
534.141	1	10
534.481	1	4
534.821	1	2
535.162	1	7
535.502	1	6
535.842	1	1
536.182	1	6
536.522	1	8
536.862	1	-3
537.203	1	7
537.543	1	4
537.883	1	5
538.223	1	7
538.563	1	6
538.903	1	3
539.243	1	-3
539.584	1	0
539.924	1	16
540.264	1	12
540.604	1	6
540.944	1	5
541.284	1	-7
541.624	1	-2
541.964	1	0
542.305	1	-9
542.645	1	2
542.985	1	-4
543.325	1	4
543.665	1	12
544.005	1	-7
544.345	1	-6
544.685	1	8
545.025	1	2
545.365	1	8
545.705	1	7
546.045	1	12
546.386	1	4
546.726	1	1
547.066	1	-3
547.406	1	10
547.746	1	3
548.086	1	8
548.426	1	3
548.766	1	14
549.106	1	6
549.446	1	5
549.786	1	9
550.126	1	5
550.466	1	-5
550.806	1	4
551.146	1	-7
551.486	1	-2
551.826	1	6
552.166	1	-6
552.506	1	-2
552.846	1	9
553.186	1	-6
553.526	1	1
553.866	1	1
554.206	1	1
554.546	1	-4
554.886	1	8
555.226	1	-8
555.566	1	12
555.906	1	7
556.246	1	2
556.586	1	5
556.926	1	18
557.266	1	6
557.606	1	-7
557.946	1	4
558.286	1	10
558.626	1	4
558.966	1	1
559.306	1	5
559.646	1	-10
559.986	1	-8
560.325	1	-11
560.665	1	9
561.005	1	1
561.345	1	4
561.685	1	-8
562.025	1	5
562.365	1	0
562.705	1	5
563.045	1	8
563.385	1	-3
563.725	1	1
564.064	1	0
564.404	1	4
564.744	1	7
565.084	1	-10
565.424	1	-1
565.764	1	6
566.104	1	-8
566.444	1	5
566.783	1	-2
567.123	1	22
567.463	1	3
567.803	1	-5
568.143	1	-7
568.483	1	-7
568.823	1	3
569.162	1	2
569.502	1	7
569.842	1	2
570.182	1	-2
570.522	1	8
570.862	1	-1
571.201	1	0
571.541	1	-6
571.881	1	11
572.221	1	4
572.561	1	-1
572.900	1	7
573.240	1	-4
573.580	1	6
573.920	1	2
574.260	1	2
574.599	1	-6
574.939	1	0
575.279	1	8
575.619	1	-2
575.959	1	1
576.298	1	-11
576.638	1	-2
576.978	1	1
577.318	1	9
577.657	1	-6
577.997	1	-6
578.337	1	-5
578.677	1	-8
579.016	1	11
579.356	1	1
579.696	1	9
580.036	1	-1
580.375	1	-10
580.715	1	5
581.055	1	2
581.394	1	-8
581.734	1	9
582.074	1	0
582.414	1	6
582.753	1	5
583.093	1	-6
583.433	1	1
583.772	1	-8
584.112	1	8
584.452	1	-6
584.791	1	6
585.131	1	-10
585.471	1	5
585.811	1	2
586.150	1	7
586.490	1	-6
586.830	1	0
587.169	1	7
587.509	1	11
587.849	1	3
588.188	1	0
588.528	1	3
588.867	1	8
589.207	1	-11
589.547	1	6
589.886	1	1
590.226	1	-5
590.566	1	-2
590.905	1	8
591.245	1	0
591.585	1	-7
591.924	1	9
592.264	1	-8
592.603	1	-5
592.943	1	-3
593.283	1	14
593.622	1	3
593.962	1	3
594.301	1	7
594.641	1	-7
594.981	1	0
595.320	1	5
595.660	1	3
595.999	1	1
596.339	1	11
596.678	1	7
597.018	1	5
597.358	1	8
597.697	1	2
598.037	1	5
598.376	1	10
598.716	1	-7
599.055	1	3
599.395	1	13
599.734	1	0
600.074	1	1
600.413	1	-5
600.753	1	12
601.092	1	-12
601.432	1	3
601.771	1	11
602.111	1	-1
602.451	1	8
602.790	1	3
603.130	1	11
603.469	1	0
603.809	1	5
604.148	1	-2
604.487	1	8
604.827	1	-5
605.166	1	4
605.506	1	4
605.845	1	3
606.185	1	6
606.524	1	-2
606.864	1	-5
607.203	1	4
607.543	1	-12
607.882	1	-7
608.222	1	7
608.561	1	10
608.901	1	2
609.240	1	5
609.579	1	5
609.919	1	-10
610.258	1	10
610.598	1	-8
610.937	1	-5
611.277	1	10
611.616	1	2
611.955	1	3
612.295	1	-2
612.634	1	6
612.974	1	5
613.313	1	5
613.652	1	-3
613.992	1	7
614.331	1	1
614.671	1	-1
615.010	1	7
615.349	1	8
615.689	1	11
616.028	1	1
616.368	1	0
616.707	1	1
617.046	1	10
617.386	1	0
617.725	1	6
618.064	1	2
618.404	1	9
618.743	1	0
619.082	1	-4
619.422	1	-1
619.761	1	-2
620.100	1	0
620.440	1	2
620.779	1	-5
621.118	1	-1
621.458	1	7
621.797	1	2
622.136	1	9
622.476	1	-4
622.815	1	1
623.154	1	-5
623.494	1	0
623.833	1	-7
624.172	1	14
624.511	1	0
624.851	1	-5
625.190	1	-3
625.529	1	5
625.869	1	2
626.208	1	-4
626.547	1	-1
626.886	1	-4
627.226	1	5
627.565	1	17
627.904	1	7
628.243	1	2
628.583	1	4
628.922	1	4
629.261	1	0
629.600	1	11
629.940	1	-2
630.279	1	-3
630.618	1	2
630.957	1	-8
631.297	1	-2
631.636	1	0
631.975	1	-3
632.314	1	7
632.653	1	-9
632.993	1	5
633.332	1	-2
633.671	1	4
634.010	1	-5
634.349	1	8
634.689	1	5
635.028	1	1
635.367	1	7
635.706	1	-1
636.045	1	8
636.384	1	2
636.724	1	8
637.063	1	4
637.402	1	9
637.741	1	1
638.080	1	3
638.419	1	6
638.759	1	7
639.098	1	2
639.437	1	-2
639.776	1	2
640.115	1	-2
640.454	1	17
640.793	1	8
641.132	1	10
641.472	1	1
641.811	1	7
642.150	1	1
642.489	1	-11
642.828	1	1
643.167	1	11
643.506	1	-2
643.845	1	2
644.184	1	-3
644.524	1	-5
644.863	1	-11
645.202	1	3
645.541	1	-7
645.880	1	1
646.219	1	3
646.558	1	6
646.897	1	-2
647.236	1	8
647.575	1	-2
647.914	1	4
648.253	1	10
648.592	1	1
648.931	1	-1
649.270	1	4
649.610	1	15
649.949	1	7
650.288	1	-2
650.627	1	0
650.966	1	5
651.305	1	-3
651.644	1	2
651.983	1	12
652.322	1	5
652.661	1	0
653.000	1	3
653.339	1	11
653.678	1	4
654.017	1	1
654.356	1	2
654.695	1	0
655.034	1	6
655.373	1	2
655.712	1	-4
656.051	1	11
656.390	1	-5
656.729	1	11
657.068	1	4
657.406	1	7
657.745	1	0
658.084	1	3
658.423	1	-10
658.762	1	-10
659.101	1	-5
659.440	1	11
659.779	1	1
660.118	1	10
660.457	1	-1
660.796	1	0
661.135	1	3
661.474	1	10
661.813	1	7
662.152	1	6
662.491	1	9
662.829	1	-4
663.168	1	1
663.507	1	0
663.846	1	1
664.185	1	-8
664.524	1	-8
664.863	1	5
665.202	1	4
665.541	1	4
665.879	1	3
666.218	1	-10
666.557	1	2
666.896	1	-5
667.235	1	2
667.574	1	3
667.913	1	7
668.251	1	0
668.590	1	-5
668.929	1	2
669.268	1	4
669.607	1	-11
669.946	1	-2
670.285	1	12
670.623	1	5
670.962	1	-1
671.301	1	6
671.640	1	-16
671.979	1	16
672.317	1	-8
672.656	1	-2
672.995	1	-6
673.334	1	0
673.673	1	19
674.011	1	12
674.350	1	0
674.689	1	1
675.028	1	5
675.367	1	-1
675.705	1	-1
676.044	1	-1
676.383	1	-6
676.722	1	0
677.060	1	0
677.399	1	5
677.738	1	-9
678.077	1	16
678.416	1	0
678.754	1	-4
679.093	1	4
679.432	1	-5
679.771	1	-4
680.109	1	-1
680.448	1	1
680.787	1	11
681.125	1	9
681.464	1	-7
681.803	1	-14
682.142	1	9
682.480	1	0
682.819	1	-3
683.158	1	2
683.496	1	-7
683.835	1	4
684.174	1	-1
684.512	1	1
684.851	1	-8
685.190	1	7
685.529	1	6
685.867	1	2
686.206	1	0
686.545	1	8
686.883	1	-1
687.222	1	-2
687.561	1	1
687.899	1	-3
688.238	1	3
688.577	1	-6
688.746	1	6