File: Analysis/GaN_68K_200ms/GaN_sample E_spot4_UVVIS_68 K_200um_200 ms 2x2mm1_208.txt
340.368	1	8
340.710	1	4
341.052	1	2
341.394	1	9
341.737	1	9
342.079	1	-11
342.421	1	-3
342.763	1	4
343.105	1	14
343.447	1	6
343.789	1	0
344.131	1	-4
344.473	1	3
344.815	1	-3
345.157	1	11
345.499	1	8
345.841	1	0
346.183	1	4
346.526	1	11
346.868	1	9
347.210	1	7
347.552	1	2
347.894	1	8
348.236	1	-1
348.578	1	3
348.920	1	12
349.262	1	-6
349.604	1	8
349.946	1	16
350.288	1	5
350.630	1	-6
350.972	1	-1
351.314	1	3
351.656	1	1
351.998	1	3
352.340	1	3
352.682	1	-1
353.024	1	5
353.366	1	6
353.708	1	7
354.050	1	5
354.392	1	0
354.734	1	-6
355.076	1	8
355.418	1	-1
355.760	1	10
356.102	1	-3
356.444	1	5
356.785	1	13
357.127	1	2
357.469	1	3
357.811	1	20
358.153	1	6
358.495	1	14
358.837	1	6
359.179	1	7
359.521	1	-2
359.863	1	7
360.205	1	4
360.547	1	12
360.889	1	5
361.231	1	0
361.572	1	2
361.914	1	6
362.256	1	10
362.598	1	5
362.940	1	9
363.282	1	2
363.624	1	12
363.966	1	17
364.308	1	12
364.649	1	20
364.991	1	12
365.333	1	12
365.675	1	17
366.017	1	25
366.359	1	25
366.701	1	12
367.042	1	23
367.384	1	23
367.726	1	33
368.068	1	13
368.410	1	19
368.752	1	7
369.093	1	25
369.435	1	19
369.777	1	19
370.119	1	11
370.461	1	16
370.803	1	8
371.144	1	25
371.486	1	13
371.828	1	16
372.170	1	22
372.512	1	5
372.853	1	13
373.195	1	5
373.537	1	20
373.879	1	11
374.220	1	12
374.562	1	11
374.904	1	16
375.246	1	11
375.588	1	22
375.929	1	2
376.271	1	12
376.613	1	15
376.955	1	12
377.296	1	17
377.638	1	6
377.980	1	14
378.321	1	11
378.663	1	2
379.005	1	14
379.347	1	9
379.688	1	3
380.030	1	9
380.372	1	8
380.714	1	9
381.055	1	13
381.397	1	6
381.739	1	21
382.080	1	-1
382.422	1	13
382.764	1	9
383.105	1	9
383.447	1	20
383.789	1	20
384.130	1	12
384.472	1	11
384.814	1	16
385.156	1	25
385.497	1	25
385.839	1	18
386.180	1	25
386.522	1	19
386.864	1	24
387.205	1	13
387.547	1	5
387.889	1	32
388.230	1	22
388.572	1	29
388.914	1	33
389.255	1	20
389.597	1	7
389.939	1	29
390.280	1	32
390.622	1	11
390.963	1	26
391.305	1	28
391.647	1	19
391.988	1	13
392.330	1	22
392.671	1	23
393.013	1	14
393.355	1	31
393.696	1	21
394.038	1	13
394.379	1	16
394.721	1	15
395.062	1	8
395.404	1	28
395.746	1	11
396.087	1	18
396.429	1	20
396.770	1	22
397.112	1	18
397.453	1	18
397.795	1	21
398.136	1	26
398.478	1	15
398.819	1	20
399.161	1	20
399.503	1	23
399.844	1	17
400.186	1	28
400.527	1	19
400.869	1	27
401.210	1	10
401.552	1	28
401.893	1	15
402.235	1	13
402.576	1	24
402.918	1	10
403.259	1	9
403.601	1	7
403.942	1	14
404.284	1	16
404.625	1	20
404.967	1	16
405.308	1	13
405.649	1	13
405.991	1	17
406.332	1	17
406.674	1	14
407.015	1	11
407.357	1	14
407.698	1	10
408.040	1	11
408.381	1	17
408.722	1	15
409.064	1	14
409.405	1	5
409.747	1	2
410.088	1	10
410.430	1	30
410.771	1	20
411.112	1	14
411.454	1	18
411.795	1	22
412.137	1	22
412.478	1	15
412.819	1	6
413.161	1	13
413.502	1	16
413.844	1	7
414.185	1	12
414.526	1	20
414.868	1	12
415.209	1	11
415.550	1	1
415.892	1	5
416.233	1	7
416.575	1	14
416.916	1	4
417.257	1	21
417.599	1	14
417.940	1	4
418.281	1	16
418.623	1	9
418.964	1	4
419.305	1	14
419.647	1	15
419.988	1	6
420.329	1	20
420.671	1	18
421.012	1	10
421.353	1	14
421.695	1	11
422.036	1	5
422.377	1	12
422.718	1	16
423.060	1	15
423.401	1	12
423.742	1	12
424.084	1	15
424.425	1	17
424.766	1	11
425.107	1	11
425.449	1	15
425.790	1	7
426.131	1	17
426.472	1	12
426.814	1	14
427.155	1	8
427.496	1	14
427.837	1	2
428.179	1	2
428.520	1	8
428.861	1	8
429.202	1	18
429.544	1	10
429.885	1	4
430.226	1	7
430.567	1	15
430.909	1	-1
431.250	1	-6
431.591	1	8
431.932	1	10
432.273	1	4
432.615	1	9
432.956	1	8
433.297	1	15
433.638	1	4
433.979	1	9
434.320	1	-1
434.662	1	3
435.003	1	13
435.344	1	10
435.685	1	16
436.026	1	15
436.368	1	10
436.709	1	2
437.050	1	9
437.391	1	16
437.732	1	3
438.073	1	16
438.414	1	12
438.756	1	10
439.097	1	22
439.438	1	19
439.779	1	-1
440.120	1	10
440.461	1	7
440.802	1	5
441.143	1	14
441.485	1	4
441.826	1	8
442.167	1	3
442.508	1	11
442.849	1	12
443.190	1	0
443.531	1	1
443.872	1	11
444.213	1	-6
444.554	1	4
444.895	1	6
445.237	1	4
445.578	1	10
445.919	1	6
446.260	1	7
446.601	1	4
446.942	1	15
447.283	1	10
447.624	1	13
447.965	1	2
448.306	1	10
448.647	1	13
448.988	1	-5
449.329	1	8
449.670	1	8
450.011	1	7
450.352	1	7
450.693	1	8
451.034	1	8
451.375	1	11
451.716	1	10
452.057	1	4
452.398	1	2
452.739	1	7
453.080	1	19
453.421	1	11
453.762	1	12
454.103	1	9
454.444	1	19
454.785	1	8
455.126	1	9
455.467	1	14
455.808	1	1
456.149	1	-2
456.490	1	5
456.831	1	13
457.172	1	8
457.513	1	12
457.854	1	5
458.195	1	6
458.536	1	17
458.877	1	-1
459.218	1	14
459.559	1	3
459.899	1	18
460.240	1	6
460.581	1	16
460.922	1	13
461.263	1	1
461.604	1	4
461.945	1	9
462.286	1	18
462.627	1	-6
462.968	1	-3
463.309	1	0
463.649	1	10
463.990	1	4
464.331	1	8
464.672	1	2
465.013	1	1
465.354	1	11
465.695	1	12
466.036	1	4
466.376	1	-11
466.717	1	-2
467.058	1	11
467.399	1	11
467.740	1	3
468.081	1	7
468.422	1	14
468.762	1	3
469.103	1	3
469.444	1	12
469.785	1	15
470.126	1	6
470.467	1	0
470.807	1	6
471.148	1	4
471.489	1	4
471.830	1	21
472.171	1	9
472.511	1	20
472.852	1	3
473.193	1	-5
473.534	1	1
473.875	1	10
474.215	1	-1
474.556	1	-3
474.897	1	7
475.238	1	10
475.578	1	-2
475.919	1	7
476.260	1	2
476.601	1	4
476.942	1	2
477.282	1	-1
477.623	1	7
477.964	1	15
478.305	1	15
478.645	1	-6
478.986	1	-3
479.327	1	-2
479.667	1	3
480.008	1	4
480.349	1	4
480.690	1	12
481.030	1	8
481.371	1	5
481.712	1	5
482.053	1	13
482.393	1	5
482.734	1	7
483.075	1	10
483.415	1	8
483.756	1	17
484.097	1	1
484.437	1	-5
484.778	1	3
485.119	1	-2
485.459	1	14
485.800	1	1
486.141	1	2
486.481	1	5
486.822	1	2
487.163	1	-9
487.503	1	-4
487.844	1	4
488.185	1	0
488.525	1	7
488.866	1	14
489.207	1	16
489.547	1	1
489.888	1	5
490.228	1	5
490.569	1	24
490.910	1	6
491.250	1	2
491.591	1	0
491.932	1	16
492.272	1	6
492.613	1	9
492.953	1	7
493.294	1	11
493.635	1	-2
493.975	1	5
494.316	1	15
494.656	1	4
494.997	1	7
495.337	1	9
495.678	1	14
496.019	1	5
496.359	1	19
496.700	1	1
497.040	1	8
497.381	1	-16
497.721	1	-1
498.062	1	6
498.403	1	10
498.743	1	7
499.084	1	-6
499.424	1	23
499.765	1	2
500.105	1	12
500.446	1	20
500.786	1	7
501.127	1	21
501.467	1	12
501.808	1	-1
502.148	1	10
502.489	1	13
502.829	1	6
503.170	1	14
503.510	1	9
503.851	1	-6
504.191	1	14
504.532	1	3
504.872	1	5
505.213	1	1
505.553	1	7
505.894	1	14
506.234	1	14
506.575	1	14
506.915	1	11
507.256	1	7
507.596	1	14
507.936	1	18
508.277	1	4
508.617	1	20
508.958	1	18
509.298	1	14
509.639	1	16
509.979	1	12
510.319	1	10
510.660	1	17
511.000	1	17
511.341	1	8
511.681	1	8
512.022	1	3
512.362	1	9
512.702	1	8
513.043	1	10
513.383	1	9
513.724	1	20
514.064	1	14
514.404	1	9
514.745	1	10
515.085	1	10
515.425	1	6
515.766	1	12
516.106	1	14
516.447	1	16
516.787	1	4
517.127	1	10
517.468	1	9
517.808	1	21
518.148	1	7
518.489	1	14
518.829	1	5
519.169	1	18
519.510	1	14
519.850	1	4
520.190	1	18
520.531	1	12
520.871	1	7
521.211	1	12
521.552	1	13
521.892	1	3
522.232	1	5
522.573	1	13
522.913	1	17
523.253	1	16
523.593	1	5
523.934	1	19
524.274	1	15
524.614	1	8
524.955	1	13
525.295	1	5
525.635	1	16
525.975	1	0
526.316	1	13
526.656	1	33
526.996	1	16
527.337	1	19
527.677	1	18
528.017	1	15
528.357	1	19
528.698	1	17
529.038	1	10
529.378	1	14
529.718	1	16
530.058	1	15
530.399	1	28
530.739	1	15
531.079	1	25
531.419	1	16
531.760	1	18
532.100	1	22
532.440	1	6
532.780	1	13
533.120	1	24
533.461	1	29
533.801	1	13
534.141	1	19
534.481	1	10
534.821	1	17
535.162	1	16
535.502	1	11
535.842	1	16
536.182	1	14
536.522	1	28
536.862	1	13
537.203	1	27
537.543	1	16
537.883	1	15
538.223	1	25
538.563	1	14
538.903	1	12
539.243	1	10
539.584	1	15
539.924	1	14
540.264	1	15
540.604	1	24
540.944	1	13
541.284	1	18
541.624	1	14
541.964	1	11
542.305	1	6
542.645	1	7
542.985	1	9
543.325	1	5
543.665	1	20
544.005	1	8
544.345	1	7
544.685	1	13
545.025	1	8
545.365	1	19
545.705	1	17
546.045	1	17
546.386	1	18
546.726	1	14
547.066	1	4
547.406	1	15
547.746	1	22
548.086	1	17
548.426	1	14
548.766	1	20
549.106	1	19
549.446	1	11
549.786	1	10
550.126	1	7
550.466	1	9
550.806	1	19
551.146	1	15
551.486	1	11
551.826	1	16
552.166	1	13
552.506	1	1
552.846	1	21
553.186	1	14
553.526	1	9
553.866	1	26
554.206	1	17
554.546	1	1
554.886	1	10
555.226	1	3
555.566	1	12
555.906	1	14
556.246	1	8
556.586	1	22
556.926	1	17
557.266	1	22
557.606	1	12
557.946	1	15
558.286	1	11
558.626	1	16
558.966	1	12
559.306	1	7
559.646	1	8
559.986	1	2
560.325	1	-6
560.665	1	13
561.005	1	11
561.345	1	3
561.685	1	1
562.025	1	3
562.365	1	13
562.705	1	18
563.045	1	15
563.385	1	5
563.725	1	7
564.064	1	17
564.404	1	5
564.744	1	14
565.084	1	-4
565.424	1	5
565.764	1	13
566.104	1	10
566.444	1	18
566.783	1	9
567.123	1	24
567.463	1	18
567.803	1	6
568.143	1	-2
568.483	1	4
568.823	1	12
569.162	1	12
569.502	1	12
569.842	1	5
570.182	1	-4
570.522	1	15
570.862	1	13
571.201	1	11
571.541	1	3
571.881	1	14
572.221	1	14
572.561	1	8
572.900	1	29
573.240	1	4
573.580	1	18
573.920	1	13
574.260	1	5
574.599	1	7
574.939	1	6
575.279	1	12
575.619	1	14
575.959	1	4
576.298	1	-4
576.638	1	9
576.978	1	5
577.318	1	6
577.657	1	-8
577.997	1	-5
578.337	1	3
578.677	1	-2
579.016	1	16
579.356	1	6
579.696	1	7
580.036	1	10
580.375	1	10
580.715	1	18
581.055	1	12
581.394	1	0
581.734	1	7
582.074	1	10
582.414	1	6
582.753	1	12
583.093	1	6
583.433	1	3
583.772	1	7
584.112	1	14
584.452	1	3
584.791	1	13
585.131	1	5
585.471	1	0
585.811	1	7
586.150	1	0
586.490	1	6
586.830	1	-2
587.169	1	8
587.509	1	8
587.849	1	8
588.188	1	5
588.528	1	-1
588.867	1	15
589.207	1	-9
589.547	1	3
589.886	1	-1
590.226	1	6
590.566	1	8
590.905	1	10
591.245	1	-6
591.585	1	7
591.924	1	10
592.264	1	7
592.603	1	4
592.943	1	-1
593.283	1	15
593.622	1	11
593.962	1	10
594.301	1	7
594.641	1	10
594.981	1	6
595.320	1	15
595.660	1	2
595.999	1	11
596.339	1	11
596.678	1	6
597.018	1	7
597.358	1	11
597.697	1	1
598.037	1	5
598.376	1	12
598.716	1	-5
599.055	1	6
599.395	1	5
599.734	1	4
600.074	1	10
600.413	1	0
600.753	1	13
601.092	1	-7
601.432	1	-2
601.771	1	14
602.111	1	0
602.451	1	3
602.790	1	3
603.130	1	3
603.469	1	4
603.809	1	21
604.148	1	9
604.487	1	8
604.827	1	-5
605.166	1	-6
605.506	1	12
605.845	1	3
606.185	1	7
606.524	1	4
606.864	1	11
607.203	1	14
607.543	1	4
607.882	1	-3
608.222	1	11
608.561	1	15
608.901	1	9
609.240	1	6
609.579	1	5
609.919	1	-4
610.258	1	13
610.598	1	3
610.937	1	9
611.277	1	8
611.616	1	-7
611.955	1	4
612.295	1	10
612.634	1	0
612.974	1	8
613.313	1	4
613.652	1	-4
613.992	1	-1
614.331	1	11
614.671	1	6
615.010	1	-2
615.349	1	6
615.689	1	7
616.028	1	2
616.368	1	-4
616.707	1	0
617.046	1	9
617.386	1	4
617.725	1	14
618.064	1	15
618.404	1	15
618.743	1	3
619.082	1	10
619.422	1	5
619.761	1	3
620.100	1	15
620.440	1	4
620.779	1	-5
621.118	1	8
621.458	1	9
621.797	1	6
622.136	1	6
622.476	1	6
622.815	1	8
623.154	1	3
623.494	1	7
623.833	1	-2
624.172	1	8
624.511	1	2
624.851	1	1
625.190	1	6
625.529	1	7
625.869	1	10
626.208	1	10
626.547	1	8
626.886	1	2
627.226	1	5
627.565	1	10
627.904	1	10
628.243	1	-7
628.583	1	8
628.922	1	9
629.261	1	9
629.600	1	9
629.940	1	10
630.279	1	0
630.618	1	-4
630.957	1	0
631.297	1	-1
631.636	1	2
631.975	1	8
632.314	1	3
632.653	1	1
632.993	1	10
633.332	1	11
633.671	1	4
634.010	1	9
634.349	1	11
634.689	1	4
635.028	1	10
635.367	1	-4
635.706	1	-3
636.045	1	0
636.384	1	4
636.724	1	7
637.063	1	7
637.402	1	16
637.741	1	10
638.080	1	10
638.419	1	7
638.759	1	5
639.098	1	2
639.437	1	-2
639.776	1	6
640.115	1	3
640.454	1	15
640.793	1	7
641.132	1	4
641.472	1	-8
641.811	1	1
642.150	1	-1
642.489	1	-7
642.828	1	14
643.167	1	8
643.506	1	-1
643.845	1	10
644.184	1	9
644.524	1	-1
644.863	1	-9
645.202	1	0
645.541	1	-2
645.880	1	20
646.219	1	13
646.558	1	-4
646.897	1	-3
647.236	1	4
647.575	1	3
647.914	1	5
648.253	1	5
648.592	1	8
648.931	1	7
649.270	1	6
649.610	1	19
649.949	1	3
650.288	1	1
650.627	1	7
650.966	1	-4
651.305	1	3
651.644	1	6
651.983	1	5
652.322	1	6
652.661	1	-3
653.000	1	5
653.339	1	16
653.678	1	8
654.017	1	2
654.356	1	10
654.695	1	9
655.034	1	3
655.373	1	10
655.712	1	4
656.051	1	12
656.390	1	-2
656.729	1	13
657.068	1	1
657.406	1	3
657.745	1	2
658.084	1	15
658.423	1	-2
658.762	1	-2
659.101	1	1
659.440	1	17
659.779	1	6
660.118	1	13
660.457	1	3
660.796	1	4
661.135	1	4
661.474	1	6
661.813	1	5
662.152	1	2
662.491	1	0
662.829	1	-2
663.168	1	0
663.507	1	2
663.846	1	5
664.185	1	-4
664.524	1	-4
664.863	1	3
665.202	1	-3
665.541	1	1
665.879	1	3
666.218	1	-6
666.557	1	12
666.896	1	2
667.235	1	5
667.574	1	18
667.913	1	0
668.251	1	3
668.590	1	0
668.929	1	7
669.268	1	1
669.607	1	2
669.946	1	12
670.285	1	8
670.623	1	0
670.962	1	1
671.301	1	-2
671.640	1	-13
671.979	1	10
672.317	1	-5
672.656	1	-1
672.995	1	6
673.334	1	3
673.673	1	12
674.011	1	1
674.350	1	6
674.689	1	-12
675.028	1	6
675.367	1	6
675.705	1	-6
676.044	1	-3
676.383	1	10
676.722	1	-1
677.060	1	4
677.399	1	3
677.738	1	2
678.077	1	0
678.416	1	1
678.754	1	8
679.093	1	9
679.432	1	1
679.771	1	-2
680.109	1	9
680.448	1	3
680.787	1	-4
681.125	1	13
681.464	1	3
681.803	1	-5
682.142	1	21
682.480	1	1
682.819	1	4
683.158	1	-3
683.496	1	5
683.835	1	5
684.174	1	1
684.512	1	-1
684.851	1	7
685.190	1	13
685.529	1	5
685.867	1	8
686.206	1	16
686.545	1	15
686.883	1	-7
687.222	1	7
687.561	1	-1
687.899	1	3
688.238	1	-1
688.577	1	-1
688.746	1	9