File: Analysis/GaN_68K_200ms/GaN_sample E_spot4_UVVIS_68 K_200um_200 ms 2x2mm1_189.txt
340.368	1	6
340.710	1	2
341.052	1	2
341.394	1	-5
341.737	1	15
342.079	1	4
342.421	1	1
342.763	1	11
343.105	1	8
343.447	1	15
343.789	1	4
344.131	1	3
344.473	1	10
344.815	1	9
345.157	1	7
345.499	1	5
345.841	1	7
346.183	1	3
346.526	1	3
346.868	1	11
347.210	1	2
347.552	1	11
347.894	1	2
348.236	1	3
348.578	1	4
348.920	1	8
349.262	1	6
349.604	1	14
349.946	1	14
350.288	1	1
350.630	1	-12
350.972	1	15
351.314	1	7
351.656	1	4
351.998	1	0
352.340	1	6
352.682	1	-1
353.024	1	2
353.366	1	1
353.708	1	6
354.050	1	2
354.392	1	13
354.734	1	14
355.076	1	8
355.418	1	-2
355.760	1	2
356.102	1	0
356.444	1	9
356.785	1	15
357.127	1	10
357.469	1	5
357.811	1	21
358.153	1	7
358.495	1	15
358.837	1	10
359.179	1	7
359.521	1	4
359.863	1	3
360.205	1	3
360.547	1	3
360.889	1	4
361.231	1	16
361.572	1	7
361.914	1	11
362.256	1	7
362.598	1	9
362.940	1	11
363.282	1	15
363.624	1	20
363.966	1	19
364.308	1	10
364.649	1	11
364.991	1	25
365.333	1	27
365.675	1	12
366.017	1	27
366.359	1	14
366.701	1	17
367.042	1	24
367.384	1	21
367.726	1	43
368.068	1	19
368.410	1	20
368.752	1	10
369.093	1	16
369.435	1	16
369.777	1	17
370.119	1	25
370.461	1	21
370.803	1	13
371.144	1	10
371.486	1	15
371.828	1	32
372.170	1	28
372.512	1	13
372.853	1	21
373.195	1	11
373.537	1	20
373.879	1	19
374.220	1	24
374.562	1	12
374.904	1	20
375.246	1	20
375.588	1	14
375.929	1	7
376.271	1	9
376.613	1	11
376.955	1	2
377.296	1	17
377.638	1	9
377.980	1	7
378.321	1	12
378.663	1	4
379.005	1	17
379.347	1	15
379.688	1	6
380.030	1	6
380.372	1	10
380.714	1	5
381.055	1	9
381.397	1	6
381.739	1	21
382.080	1	6
382.422	1	24
382.764	1	13
383.105	1	4
383.447	1	31
383.789	1	27
384.130	1	12
384.472	1	22
384.814	1	26
385.156	1	29
385.497	1	25
385.839	1	30
386.180	1	27
386.522	1	27
386.864	1	20
387.205	1	29
387.547	1	22
387.889	1	38
388.230	1	23
388.572	1	41
388.914	1	24
389.255	1	35
389.597	1	18
389.939	1	27
390.280	1	32
390.622	1	20
390.963	1	27
391.305	1	32
391.647	1	30
391.988	1	15
392.330	1	28
392.671	1	24
393.013	1	31
393.355	1	31
393.696	1	19
394.038	1	13
394.379	1	7
394.721	1	20
395.062	1	16
395.404	1	21
395.746	1	10
396.087	1	24
396.429	1	31
396.770	1	22
397.112	1	15
397.453	1	19
397.795	1	33
398.136	1	37
398.478	1	23
398.819	1	41
399.161	1	20
399.503	1	22
399.844	1	22
400.186	1	29
400.527	1	33
400.869	1	22
401.210	1	16
401.552	1	41
401.893	1	24
402.235	1	29
402.576	1	27
402.918	1	8
403.259	1	12
403.601	1	11
403.942	1	26
404.284	1	13
404.625	1	22
404.967	1	24
405.308	1	23
405.649	1	19
405.991	1	24
406.332	1	9
406.674	1	18
407.015	1	15
407.357	1	26
407.698	1	9
408.040	1	12
408.381	1	22
408.722	1	22
409.064	1	19
409.405	1	24
409.747	1	17
410.088	1	14
410.430	1	23
410.771	1	12
411.112	1	13
411.454	1	25
411.795	1	14
412.137	1	27
412.478	1	27
412.819	1	15
413.161	1	11
413.502	1	12
413.844	1	16
414.185	1	24
414.526	1	10
414.868	1	22
415.209	1	9
415.550	1	5
415.892	1	9
416.233	1	13
416.575	1	9
416.916	1	14
417.257	1	25
417.599	1	11
417.940	1	7
418.281	1	13
418.623	1	10
418.964	1	13
419.305	1	8
419.647	1	24
419.988	1	5
420.329	1	17
420.671	1	8
421.012	1	24
421.353	1	17
421.695	1	12
422.036	1	10
422.377	1	18
422.718	1	9
423.060	1	13
423.401	1	3
423.742	1	11
424.084	1	11
424.425	1	9
424.766	1	20
425.107	1	15
425.449	1	12
425.790	1	8
426.131	1	12
426.472	1	8
426.814	1	26
427.155	1	8
427.496	1	19
427.837	1	7
428.179	1	5
428.520	1	8
428.861	1	9
429.202	1	17
429.544	1	13
429.885	1	6
430.226	1	14
430.567	1	10
430.909	1	4
431.250	1	3
431.591	1	13
431.932	1	17
432.273	1	6
432.615	1	12
432.956	1	8
433.297	1	15
433.638	1	2
433.979	1	12
434.320	1	14
434.662	1	-4
435.003	1	15
435.344	1	15
435.685	1	19
436.026	1	7
436.368	1	2
436.709	1	-1
437.050	1	17
437.391	1	6
437.732	1	12
438.073	1	14
438.414	1	8
438.756	1	14
439.097	1	18
439.438	1	12
439.779	1	0
440.120	1	-2
440.461	1	5
440.802	1	12
441.143	1	19
441.485	1	2
441.826	1	-2
442.167	1	12
442.508	1	0
442.849	1	13
443.190	1	-6
443.531	1	9
443.872	1	5
444.213	1	5
444.554	1	-4
444.895	1	3
445.237	1	-3
445.578	1	13
445.919	1	5
446.260	1	8
446.601	1	6
446.942	1	11
447.283	1	2
447.624	1	13
447.965	1	5
448.306	1	9
448.647	1	13
448.988	1	-5
449.329	1	9
449.670	1	12
450.011	1	14
450.352	1	12
450.693	1	2
451.034	1	12
451.375	1	15
451.716	1	11
452.057	1	10
452.398	1	3
452.739	1	6
453.080	1	18
453.421	1	6
453.762	1	13
454.103	1	6
454.444	1	20
454.785	1	-6
455.126	1	11
455.467	1	14
455.808	1	9
456.149	1	6
456.490	1	2
456.831	1	14
457.172	1	1
457.513	1	6
457.854	1	-2
458.195	1	5
458.536	1	12
458.877	1	3
459.218	1	9
459.559	1	1
459.899	1	11
460.240	1	5
460.581	1	8
460.922	1	10
461.263	1	6
461.604	1	3
461.945	1	14
462.286	1	19
462.627	1	5
462.968	1	7
463.309	1	-4
463.649	1	7
463.990	1	10
464.331	1	20
464.672	1	8
465.013	1	5
465.354	1	9
465.695	1	5
466.036	1	9
466.376	1	6
466.717	1	2
467.058	1	13
467.399	1	6
467.740	1	-1
468.081	1	0
468.422	1	4
468.762	1	5
469.103	1	9
469.444	1	3
469.785	1	8
470.126	1	13
470.467	1	-2
470.807	1	6
471.148	1	-7
471.489	1	7
471.830	1	21
472.171	1	7
472.511	1	15
472.852	1	2
473.193	1	-3
473.534	1	15
473.875	1	19
474.215	1	5
474.556	1	0
474.897	1	12
475.238	1	1
475.578	1	4
475.919	1	12
476.260	1	8
476.601	1	11
476.942	1	7
477.282	1	-18
477.623	1	7
477.964	1	13
478.305	1	6
478.645	1	-1
478.986	1	4
479.327	1	-2
479.667	1	3
480.008	1	12
480.349	1	7
480.690	1	4
481.030	1	1
481.371	1	8
481.712	1	-1
482.053	1	15
482.393	1	-7
482.734	1	5
483.075	1	13
483.415	1	5
483.756	1	15
484.097	1	5
484.437	1	-1
484.778	1	5
485.119	1	13
485.459	1	16
485.800	1	4
486.141	1	-2
486.481	1	14
486.822	1	8
487.163	1	-2
487.503	1	-6
487.844	1	-1
488.185	1	3
488.525	1	2
488.866	1	7
489.207	1	11
489.547	1	-2
489.888	1	-2
490.228	1	3
490.569	1	12
490.910	1	1
491.250	1	13
491.591	1	2
491.932	1	16
492.272	1	14
492.613	1	11
492.953	1	11
493.294	1	7
493.635	1	1
493.975	1	3
494.316	1	5
494.656	1	3
494.997	1	9
495.337	1	14
495.678	1	14
496.019	1	2
496.359	1	9
496.700	1	3
497.040	1	8
497.381	1	-4
497.721	1	7
498.062	1	6
498.403	1	11
498.743	1	11
499.084	1	-7
499.424	1	23
499.765	1	15
500.105	1	18
500.446	1	19
500.786	1	19
501.127	1	22
501.467	1	15
501.808	1	-3
502.148	1	16
502.489	1	6
502.829	1	13
503.170	1	12
503.510	1	11
503.851	1	-4
504.191	1	14
504.532	1	1
504.872	1	-5
505.213	1	2
505.553	1	18
505.894	1	16
506.234	1	15
506.575	1	13
506.915	1	10
507.256	1	8
507.596	1	25
507.936	1	22
508.277	1	8
508.617	1	18
508.958	1	19
509.298	1	21
509.639	1	16
509.979	1	14
510.319	1	16
510.660	1	15
511.000	1	26
511.341	1	8
511.681	1	14
512.022	1	9
512.362	1	12
512.702	1	-1
513.043	1	16
513.383	1	12
513.724	1	22
514.064	1	18
514.404	1	13
514.745	1	16
515.085	1	19
515.425	1	7
515.766	1	12
516.106	1	13
516.447	1	14
516.787	1	10
517.127	1	16
517.468	1	7
517.808	1	15
518.148	1	11
518.489	1	20
518.829	1	8
519.169	1	18
519.510	1	14
519.850	1	8
520.190	1	22
520.531	1	24
520.871	1	13
521.211	1	17
521.552	1	22
521.892	1	12
522.232	1	17
522.573	1	25
522.913	1	20
523.253	1	24
523.593	1	8
523.934	1	25
524.274	1	16
524.614	1	25
524.955	1	14
525.295	1	5
525.635	1	22
525.975	1	11
526.316	1	9
526.656	1	32
526.996	1	23
527.337	1	14
527.677	1	22
528.017	1	5
528.357	1	26
528.698	1	14
529.038	1	23
529.378	1	7
529.718	1	23
530.058	1	24
530.399	1	28
530.739	1	13
531.079	1	23
531.419	1	33
531.760	1	22
532.100	1	19
532.440	1	21
532.780	1	16
533.120	1	13
533.461	1	27
533.801	1	18
534.141	1	18
534.481	1	28
534.821	1	22
535.162	1	32
535.502	1	20
535.842	1	23
536.182	1	13
536.522	1	28
536.862	1	29
537.203	1	22
537.543	1	17
537.883	1	16
538.223	1	22
538.563	1	18
538.903	1	12
539.243	1	8
539.584	1	20
539.924	1	14
540.264	1	19
540.604	1	31
540.944	1	13
541.284	1	12
541.624	1	14
541.964	1	29
542.305	1	6
542.645	1	11
542.985	1	6
543.325	1	15
543.665	1	19
544.005	1	16
544.345	1	7
544.685	1	22
545.025	1	11
545.365	1	22
545.705	1	24
546.045	1	22
546.386	1	22
546.726	1	13
547.066	1	5
547.406	1	25
547.746	1	28
548.086	1	18
548.426	1	16
548.766	1	16
549.106	1	18
549.446	1	27
549.786	1	21
550.126	1	11
550.466	1	12
550.806	1	24
551.146	1	15
551.486	1	19
551.826	1	26
552.166	1	13
552.506	1	12
552.846	1	19
553.186	1	22
553.526	1	14
553.866	1	16
554.206	1	15
554.546	1	1
554.886	1	18
555.226	1	5
555.566	1	27
555.906	1	21
556.246	1	15
556.586	1	23
556.926	1	19
557.266	1	25
557.606	1	4
557.946	1	20
558.286	1	21
558.626	1	16
558.966	1	10
559.306	1	11
559.646	1	13
559.986	1	5
560.325	1	-3
560.665	1	18
561.005	1	1
561.345	1	10
561.685	1	11
562.025	1	12
562.365	1	16
562.705	1	3
563.045	1	14
563.385	1	11
563.725	1	9
564.064	1	24
564.404	1	5
564.744	1	18
565.084	1	8
565.424	1	11
565.764	1	23
566.104	1	7
566.444	1	5
566.783	1	13
567.123	1	21
567.463	1	13
567.803	1	4
568.143	1	3
568.483	1	12
568.823	1	19
569.162	1	18
569.502	1	7
569.842	1	4
570.182	1	4
570.522	1	23
570.862	1	11
571.201	1	15
571.541	1	-1
571.881	1	14
572.221	1	22
572.561	1	10
572.900	1	26
573.240	1	4
573.580	1	17
573.920	1	6
574.260	1	9
574.599	1	2
574.939	1	6
575.279	1	10
575.619	1	10
575.959	1	10
576.298	1	-1
576.638	1	7
576.978	1	4
577.318	1	15
577.657	1	-4
577.997	1	5
578.337	1	6
578.677	1	5
579.016	1	20
579.356	1	6
579.696	1	18
580.036	1	-1
580.375	1	-2
580.715	1	17
581.055	1	6
581.394	1	10
581.734	1	6
582.074	1	4
582.414	1	7
582.753	1	10
583.093	1	6
583.433	1	5
583.772	1	11
584.112	1	13
584.452	1	7
584.791	1	15
585.131	1	-1
585.471	1	3
585.811	1	4
586.150	1	8
586.490	1	4
586.830	1	2
587.169	1	5
587.509	1	6
587.849	1	9
588.188	1	-1
588.528	1	11
588.867	1	7
589.207	1	5
589.547	1	6
589.886	1	-7
590.226	1	4
590.566	1	4
590.905	1	10
591.245	1	4
591.585	1	2
591.924	1	8
592.264	1	0
592.603	1	-3
592.943	1	0
593.283	1	4
593.622	1	2
593.962	1	11
594.301	1	22
594.641	1	4
594.981	1	4
595.320	1	14
595.660	1	6
595.999	1	10
596.339	1	6
596.678	1	0
597.018	1	11
597.358	1	13
597.697	1	-5
598.037	1	15
598.376	1	17
598.716	1	-4
599.055	1	3
599.395	1	15
599.734	1	2
600.074	1	5
600.413	1	4
600.753	1	7
601.092	1	-2
601.432	1	-2
601.771	1	14
602.111	1	6
602.451	1	-2
602.790	1	5
603.130	1	11
603.469	1	11
603.809	1	14
604.148	1	5
604.487	1	13
604.827	1	-11
605.166	1	-6
605.506	1	11
605.845	1	-5
606.185	1	3
606.524	1	3
606.864	1	6
607.203	1	10
607.543	1	1
607.882	1	1
608.222	1	2
608.561	1	4
608.901	1	13
609.240	1	10
609.579	1	0
609.919	1	3
610.258	1	14
610.598	1	12
610.937	1	-3
611.277	1	3
611.616	1	-1
611.955	1	7
612.295	1	6
612.634	1	-8
612.974	1	9
613.313	1	11
613.652	1	4
613.992	1	2
614.331	1	9
614.671	1	8
615.010	1	0
615.349	1	4
615.689	1	12
616.028	1	7
616.368	1	4
616.707	1	0
617.046	1	12
617.386	1	6
617.725	1	15
618.064	1	1
618.404	1	16
618.743	1	8
619.082	1	11
619.422	1	3
619.761	1	4
620.100	1	15
620.440	1	10
620.779	1	0
621.118	1	8
621.458	1	4
621.797	1	8
622.136	1	6
622.476	1	2
622.815	1	3
623.154	1	0
623.494	1	4
623.833	1	-4
624.172	1	9
624.511	1	5
624.851	1	-8
625.190	1	11
625.529	1	12
625.869	1	14
626.208	1	5
626.547	1	5
626.886	1	6
627.226	1	3
627.565	1	11
627.904	1	7
628.243	1	-9
628.583	1	-1
628.922	1	10
629.261	1	10
629.600	1	10
629.940	1	8
630.279	1	-8
630.618	1	6
630.957	1	1
631.297	1	-3
631.636	1	5
631.975	1	16
632.314	1	21
632.653	1	-6
632.993	1	9
633.332	1	9
633.671	1	4
634.010	1	-5
634.349	1	8
634.689	1	6
635.028	1	2
635.367	1	2
635.706	1	3
636.045	1	4
636.384	1	17
636.724	1	7
637.063	1	10
637.402	1	6
637.741	1	15
638.080	1	5
638.419	1	7
638.759	1	13
639.098	1	5
639.437	1	-4
639.776	1	7
640.115	1	1
640.454	1	18
640.793	1	12
641.132	1	10
641.472	1	-2
641.811	1	3
642.150	1	7
642.489	1	1
642.828	1	3
643.167	1	16
643.506	1	-6
643.845	1	7
644.184	1	9
644.524	1	-2
644.863	1	-5
645.202	1	6
645.541	1	0
645.880	1	3
646.219	1	5
646.558	1	5
646.897	1	-2
647.236	1	7
647.575	1	4
647.914	1	2
648.253	1	10
648.592	1	1
648.931	1	19
649.270	1	12
649.610	1	16
649.949	1	4
650.288	1	-1
650.627	1	9
650.966	1	3
651.305	1	3
651.644	1	-7
651.983	1	5
652.322	1	4
652.661	1	7
653.000	1	1
653.339	1	5
653.678	1	-1
654.017	1	0
654.356	1	21
654.695	1	6
655.034	1	-2
655.373	1	-5
655.712	1	-1
656.051	1	15
656.390	1	4
656.729	1	5
657.068	1	6
657.406	1	10
657.745	1	1
658.084	1	11
658.423	1	-1
658.762	1	-4
659.101	1	-7
659.440	1	13
659.779	1	-4
660.118	1	3
660.457	1	1
660.796	1	-2
661.135	1	4
661.474	1	6
661.813	1	0
662.152	1	2
662.491	1	1
662.829	1	-7
663.168	1	-4
663.507	1	7
663.846	1	8
664.185	1	-1
664.524	1	-1
664.863	1	4
665.202	1	-4
665.541	1	5
665.879	1	0
666.218	1	1
666.557	1	3
666.896	1	4
667.235	1	10
667.574	1	14
667.913	1	4
668.251	1	10
668.590	1	-3
668.929	1	10
669.268	1	9
669.607	1	-3
669.946	1	14
670.285	1	-1
670.623	1	3
670.962	1	-1
671.301	1	3
671.640	1	0
671.979	1	16
672.317	1	1
672.656	1	7
672.995	1	12
673.334	1	10
673.673	1	26
674.011	1	11
674.350	1	-2
674.689	1	3
675.028	1	9
675.367	1	8
675.705	1	-6
676.044	1	-5
676.383	1	3
676.722	1	0
677.060	1	6
677.399	1	8
677.738	1	-3
678.077	1	-1
678.416	1	1
678.754	1	-1
679.093	1	6
679.432	1	-5
679.771	1	1
680.109	1	16
680.448	1	1
680.787	1	2
681.125	1	7
681.464	1	5
681.803	1	-8
682.142	1	15
682.480	1	0
682.819	1	0
683.158	1	8
683.496	1	-8
683.835	1	5
684.174	1	0
684.512	1	1
684.851	1	-1
685.190	1	13
685.529	1	4
685.867	1	3
686.206	1	10
686.545	1	3
686.883	1	-6
687.222	1	3
687.561	1	8
687.899	1	-9
688.238	1	3
688.577	1	6
688.746	1	11