File: Analysis/GaN_68K_200ms/GaN_sample E_spot4_UVVIS_68 K_200um_200 ms 2x2mm1_515.txt
340.368	1	0
340.710	1	-5
341.052	1	1
341.394	1	-5
341.737	1	8
342.079	1	-6
342.421	1	2
342.763	1	2
343.105	1	10
343.447	1	-3
343.789	1	-3
344.131	1	8
344.473	1	0
344.815	1	7
345.157	1	7
345.499	1	4
345.841	1	5
346.183	1	0
346.526	1	4
346.868	1	4
347.210	1	-1
347.552	1	-5
347.894	1	8
348.236	1	1
348.578	1	1
348.920	1	2
349.262	1	-5
349.604	1	10
349.946	1	15
350.288	1	7
350.630	1	1
350.972	1	-5
351.314	1	-1
351.656	1	-5
351.998	1	-7
352.340	1	0
352.682	1	-5
353.024	1	-3
353.366	1	6
353.708	1	6
354.050	1	3
354.392	1	8
354.734	1	2
355.076	1	3
355.418	1	3
355.760	1	4
356.102	1	0
356.444	1	-1
356.785	1	4
357.127	1	3
357.469	1	-2
357.811	1	13
358.153	1	7
358.495	1	6
358.837	1	3
359.179	1	6
359.521	1	4
359.863	1	-2
360.205	1	-2
360.547	1	10
360.889	1	3
361.231	1	0
361.572	1	1
361.914	1	2
362.256	1	-3
362.598	1	3
362.940	1	3
363.282	1	4
363.624	1	0
363.966	1	-3
364.308	1	-2
364.649	1	9
364.991	1	0
365.333	1	6
365.675	1	1
366.017	1	9
366.359	1	4
366.701	1	-6
367.042	1	9
367.384	1	7
367.726	1	13
368.068	1	1
368.410	1	-3
368.752	1	-11
369.093	1	7
369.435	1	-3
369.777	1	-1
370.119	1	6
370.461	1	7
370.803	1	-4
371.144	1	9
371.486	1	0
371.828	1	-1
372.170	1	14
372.512	1	-6
372.853	1	12
373.195	1	-10
373.537	1	-9
373.879	1	13
374.220	1	-2
374.562	1	0
374.904	1	6
375.246	1	9
375.588	1	1
375.929	1	-2
376.271	1	-9
376.613	1	7
376.955	1	4
377.296	1	2
377.638	1	-5
377.980	1	2
378.321	1	2
378.663	1	2
379.005	1	2
379.347	1	4
379.688	1	-1
380.030	1	0
380.372	1	-1
380.714	1	10
381.055	1	8
381.397	1	-1
381.739	1	6
382.080	1	-6
382.422	1	15
382.764	1	1
383.105	1	5
383.447	1	9
383.789	1	8
384.130	1	-8
384.472	1	-10
384.814	1	6
385.156	1	7
385.497	1	6
385.839	1	10
386.180	1	5
386.522	1	9
386.864	1	4
387.205	1	7
387.547	1	0
387.889	1	16
388.230	1	-1
388.572	1	6
388.914	1	10
389.255	1	8
389.597	1	-8
389.939	1	8
390.280	1	12
390.622	1	2
390.963	1	8
391.305	1	1
391.647	1	11
391.988	1	-4
392.330	1	13
392.671	1	6
393.013	1	10
393.355	1	17
393.696	1	2
394.038	1	-9
394.379	1	-12
394.721	1	9
395.062	1	-6
395.404	1	7
395.746	1	7
396.087	1	-4
396.429	1	5
396.770	1	2
397.112	1	0
397.453	1	1
397.795	1	3
398.136	1	9
398.478	1	7
398.819	1	12
399.161	1	8
399.503	1	6
399.844	1	-5
400.186	1	11
400.527	1	9
400.869	1	9
401.210	1	-3
401.552	1	15
401.893	1	-7
402.235	1	7
402.576	1	12
402.918	1	4
403.259	1	-7
403.601	1	-3
403.942	1	-3
404.284	1	-7
404.625	1	8
404.967	1	6
405.308	1	3
405.649	1	0
405.991	1	10
406.332	1	-1
406.674	1	9
407.015	1	0
407.357	1	2
407.698	1	5
408.040	1	-6
408.381	1	-4
408.722	1	6
409.064	1	-2
409.405	1	4
409.747	1	0
410.088	1	0
410.430	1	11
410.771	1	13
411.112	1	11
411.454	1	6
411.795	1	6
412.137	1	6
412.478	1	2
412.819	1	2
413.161	1	0
413.502	1	-6
413.844	1	-4
414.185	1	8
414.526	1	5
414.868	1	-6
415.209	1	1
415.550	1	-6
415.892	1	2
416.233	1	-1
416.575	1	-1
416.916	1	-9
417.257	1	7
417.599	1	3
417.940	1	4
418.281	1	0
418.623	1	9
418.964	1	2
419.305	1	3
419.647	1	5
419.988	1	-4
420.329	1	5
420.671	1	-1
421.012	1	14
421.353	1	0
421.695	1	-2
422.036	1	4
422.377	1	2
422.718	1	1
423.060	1	0
423.401	1	6
423.742	1	1
424.084	1	-2
424.425	1	1
424.766	1	-1
425.107	1	5
425.449	1	-3
425.790	1	-4
426.131	1	3
426.472	1	-2
426.814	1	2
427.155	1	2
427.496	1	4
427.837	1	0
428.179	1	-7
428.520	1	0
428.861	1	5
429.202	1	6
429.544	1	2
429.885	1	-3
430.226	1	-3
430.567	1	8
430.909	1	-6
431.250	1	-6
431.591	1	1
431.932	1	0
432.273	1	-8
432.615	1	6
432.956	1	-1
433.297	1	11
433.638	1	1
433.979	1	4
434.320	1	3
434.662	1	-15
435.003	1	13
435.344	1	-1
435.685	1	10
436.026	1	0
436.368	1	-5
436.709	1	-7
437.050	1	4
437.391	1	5
437.732	1	2
438.073	1	-1
438.414	1	0
438.756	1	2
439.097	1	7
439.438	1	6
439.779	1	2
440.120	1	8
440.461	1	-4
440.802	1	4
441.143	1	7
441.485	1	-2
441.826	1	-7
442.167	1	0
442.508	1	3
442.849	1	5
443.190	1	-14
443.531	1	-3
443.872	1	1
444.213	1	-3
444.554	1	-8
444.895	1	-2
445.237	1	-6
445.578	1	11
445.919	1	-6
446.260	1	8
446.601	1	-6
446.942	1	4
447.283	1	9
447.624	1	11
447.965	1	-7
448.306	1	-1
448.647	1	6
448.988	1	-5
449.329	1	0
449.670	1	4
450.011	1	12
450.352	1	-5
450.693	1	2
451.034	1	9
451.375	1	10
451.716	1	9
452.057	1	-4
452.398	1	3
452.739	1	8
453.080	1	22
453.421	1	-5
453.762	1	5
454.103	1	7
454.444	1	7
454.785	1	-12
455.126	1	-8
455.467	1	5
455.808	1	-4
456.149	1	-9
456.490	1	-1
456.831	1	16
457.172	1	-3
457.513	1	6
457.854	1	5
458.195	1	-7
458.536	1	4
458.877	1	-3
459.218	1	-3
459.559	1	1
459.899	1	6
460.240	1	2
460.581	1	7
460.922	1	1
461.263	1	9
461.604	1	1
461.945	1	7
462.286	1	14
462.627	1	3
462.968	1	-1
463.309	1	4
463.649	1	4
463.990	1	5
464.331	1	6
464.672	1	-2
465.013	1	-4
465.354	1	1
465.695	1	-3
466.036	1	3
466.376	1	-4
466.717	1	3
467.058	1	14
467.399	1	-3
467.740	1	9
468.081	1	-1
468.422	1	11
468.762	1	-8
469.103	1	-4
469.444	1	5
469.785	1	2
470.126	1	7
470.467	1	-4
470.807	1	-12
471.148	1	-5
471.489	1	4
471.830	1	15
472.171	1	1
472.511	1	20
472.852	1	-4
473.193	1	1
473.534	1	-2
473.875	1	-1
474.215	1	-2
474.556	1	-7
474.897	1	0
475.238	1	-3
475.578	1	3
475.919	1	3
476.260	1	-9
476.601	1	1
476.942	1	-1
477.282	1	-1
477.623	1	5
477.964	1	8
478.305	1	2
478.645	1	2
478.986	1	-1
479.327	1	-3
479.667	1	-6
480.008	1	5
480.349	1	6
480.690	1	9
481.030	1	-3
481.371	1	8
481.712	1	3
482.053	1	7
482.393	1	-14
482.734	1	-1
483.075	1	5
483.415	1	12
483.756	1	8
484.097	1	-5
484.437	1	-6
484.778	1	-5
485.119	1	7
485.459	1	2
485.800	1	-2
486.141	1	-14
486.481	1	4
486.822	1	9
487.163	1	-1
487.503	1	-5
487.844	1	1
488.185	1	-3
488.525	1	-4
488.866	1	10
489.207	1	-5
489.547	1	-2
489.888	1	-3
490.228	1	-10
490.569	1	11
490.910	1	-4
491.250	1	2
491.591	1	-12
491.932	1	6
492.272	1	12
492.613	1	3
492.953	1	4
493.294	1	3
493.635	1	-7
493.975	1	-5
494.316	1	3
494.656	1	-2
494.997	1	0
495.337	1	9
495.678	1	9
496.019	1	-2
496.359	1	-5
496.700	1	3
497.040	1	-1
497.381	1	-13
497.721	1	3
498.062	1	0
498.403	1	7
498.743	1	4
499.084	1	-8
499.424	1	9
499.765	1	-9
500.105	1	13
500.446	1	2
500.786	1	5
501.127	1	9
501.467	1	2
501.808	1	-2
502.148	1	4
502.489	1	4
502.829	1	-4
503.170	1	9
503.510	1	-7
503.851	1	-9
504.191	1	-5
504.532	1	-3
504.872	1	-2
505.213	1	5
505.553	1	6
505.894	1	-1
506.234	1	9
506.575	1	-2
506.915	1	3
507.256	1	-7
507.596	1	5
507.936	1	2
508.277	1	-2
508.617	1	9
508.958	1	9
509.298	1	16
509.639	1	5
509.979	1	5
510.319	1	-2
510.660	1	3
511.000	1	8
511.341	1	-7
511.681	1	7
512.022	1	1
512.362	1	2
512.702	1	-3
513.043	1	5
513.383	1	-8
513.724	1	12
514.064	1	2
514.404	1	-1
514.745	1	-2
515.085	1	-2
515.425	1	-5
515.766	1	9
516.106	1	5
516.447	1	4
516.787	1	-6
517.127	1	6
517.468	1	0
517.808	1	-6
518.148	1	1
518.489	1	4
518.829	1	-12
519.169	1	10
519.510	1	-1
519.850	1	-4
520.190	1	2
520.531	1	1
520.871	1	-8
521.211	1	4
521.552	1	12
521.892	1	-7
522.232	1	-6
522.573	1	3
522.913	1	2
523.253	1	3
523.593	1	-9
523.934	1	7
524.274	1	-9
524.614	1	3
524.955	1	0
525.295	1	2
525.635	1	14
525.975	1	-11
526.316	1	1
526.656	1	18
526.996	1	10
527.337	1	1
527.677	1	10
528.017	1	-4
528.357	1	8
528.698	1	-1
529.038	1	6
529.378	1	6
529.718	1	6
530.058	1	2
530.399	1	11
530.739	1	-3
531.079	1	15
531.419	1	5
531.760	1	9
532.100	1	9
532.440	1	-3
532.780	1	4
533.120	1	5
533.461	1	8
533.801	1	-1
534.141	1	0
534.481	1	8
534.821	1	5
535.162	1	-2
535.502	1	5
535.842	1	7
536.182	1	2
536.522	1	6
536.862	1	4
537.203	1	6
537.543	1	5
537.883	1	7
538.223	1	8
538.563	1	11
538.903	1	3
539.243	1	-1
539.584	1	4
539.924	1	9
540.264	1	7
540.604	1	7
540.944	1	-3
541.284	1	0
541.624	1	0
541.964	1	13
542.305	1	-5
542.645	1	6
542.985	1	-5
543.325	1	-1
543.665	1	10
544.005	1	9
544.345	1	-4
544.685	1	3
545.025	1	-4
545.365	1	6
545.705	1	8
546.045	1	17
546.386	1	-4
546.726	1	6
547.066	1	-14
547.406	1	16
547.746	1	2
548.086	1	10
548.426	1	-7
548.766	1	7
549.106	1	9
549.446	1	-4
549.786	1	5
550.126	1	2
550.466	1	-9
550.806	1	16
551.146	1	-1
551.486	1	3
551.826	1	5
552.166	1	4
552.506	1	-11
552.846	1	13
553.186	1	6
553.526	1	-5
553.866	1	3
554.206	1	9
554.546	1	-4
554.886	1	6
555.226	1	0
555.566	1	4
555.906	1	6
556.246	1	-1
556.586	1	6
556.926	1	11
557.266	1	11
557.606	1	-8
557.946	1	-2
558.286	1	9
558.626	1	9
558.966	1	4
559.306	1	-6
559.646	1	1
559.986	1	1
560.325	1	-3
560.665	1	8
561.005	1	1
561.345	1	5
561.685	1	0
562.025	1	-10
562.365	1	9
562.705	1	1
563.045	1	10
563.385	1	-11
563.725	1	-1
564.064	1	7
564.404	1	-3
564.744	1	-1
565.084	1	-7
565.424	1	-4
565.764	1	10
566.104	1	-3
566.444	1	9
566.783	1	3
567.123	1	14
567.463	1	-1
567.803	1	-11
568.143	1	-5
568.483	1	-8
568.823	1	12
569.162	1	3
569.502	1	-1
569.842	1	-8
570.182	1	-1
570.522	1	11
570.862	1	5
571.201	1	8
571.541	1	-9
571.881	1	6
572.221	1	-5
572.561	1	-6
572.900	1	12
573.240	1	-6
573.580	1	3
573.920	1	2
574.260	1	-7
574.599	1	-2
574.939	1	-5
575.279	1	3
575.619	1	1
575.959	1	-13
576.298	1	0
576.638	1	-3
576.978	1	8
577.318	1	5
577.657	1	-8
577.997	1	-2
578.337	1	-2
578.677	1	-5
579.016	1	12
579.356	1	-8
579.696	1	0
580.036	1	-6
580.375	1	-2
580.715	1	10
581.055	1	3
581.394	1	1
581.734	1	4
582.074	1	1
582.414	1	2
582.753	1	6
583.093	1	-6
583.433	1	-7
583.772	1	-4
584.112	1	6
584.452	1	4
584.791	1	-2
585.131	1	-2
585.471	1	2
585.811	1	-8
586.150	1	5
586.490	1	-4
586.830	1	-10
587.169	1	-6
587.509	1	0
587.849	1	7
588.188	1	7
588.528	1	4
588.867	1	1
589.207	1	-9
589.547	1	3
589.886	1	-4
590.226	1	7
590.566	1	5
590.905	1	6
591.245	1	0
591.585	1	-4
591.924	1	-1
592.264	1	-5
592.603	1	0
592.943	1	-4
593.283	1	7
593.622	1	5
593.962	1	0
594.301	1	13
594.641	1	4
594.981	1	8
595.320	1	9
595.660	1	-1
595.999	1	2
596.339	1	7
596.678	1	2
597.018	1	-3
597.358	1	6
597.697	1	-7
598.037	1	0
598.376	1	7
598.716	1	-8
599.055	1	6
599.395	1	6
599.734	1	0
600.074	1	9
600.413	1	4
600.753	1	2
601.092	1	-15
601.432	1	-4
601.771	1	4
602.111	1	2
602.451	1	7
602.790	1	1
603.130	1	9
603.469	1	-11
603.809	1	13
604.148	1	6
604.487	1	8
604.827	1	-11
605.166	1	-2
605.506	1	4
605.845	1	4
606.185	1	14
606.524	1	-3
606.864	1	-10
607.203	1	10
607.543	1	-4
607.882	1	0
608.222	1	-3
608.561	1	0
608.901	1	-1
609.240	1	11
609.579	1	-1
609.919	1	-4
610.258	1	9
610.598	1	0
610.937	1	2
611.277	1	9
611.616	1	-5
611.955	1	8
612.295	1	3
612.634	1	-13
612.974	1	6
613.313	1	4
613.652	1	1
613.992	1	6
614.331	1	1
614.671	1	-6
615.010	1	-2
615.349	1	1
615.689	1	5
616.028	1	-3
616.368	1	2
616.707	1	-1
617.046	1	4
617.386	1	-6
617.725	1	5
618.064	1	7
618.404	1	10
618.743	1	-5
619.082	1	1
619.422	1	-3
619.761	1	2
620.100	1	4
620.440	1	4
620.779	1	-3
621.118	1	1
621.458	1	18
621.797	1	2
622.136	1	0
622.476	1	4
622.815	1	-1
623.154	1	6
623.494	1	4
623.833	1	0
624.172	1	19
624.511	1	-5
624.851	1	-11
625.190	1	2
625.529	1	17
625.869	1	0
626.208	1	-7
626.547	1	2
626.886	1	-5
627.226	1	4
627.565	1	9
627.904	1	-1
628.243	1	-4
628.583	1	1
628.922	1	-1
629.261	1	10
629.600	1	5
629.940	1	2
630.279	1	-2
630.618	1	3
630.957	1	-5
631.297	1	-1
631.636	1	-5
631.975	1	4
632.314	1	7
632.653	1	-3
632.993	1	6
633.332	1	5
633.671	1	3
634.010	1	1
634.349	1	-5
634.689	1	10
635.028	1	-1
635.367	1	-1
635.706	1	-4
636.045	1	4
636.384	1	1
636.724	1	0
637.063	1	5
637.402	1	3
637.741	1	8
638.080	1	15
638.419	1	3
638.759	1	9
639.098	1	-3
639.437	1	-7
639.776	1	6
640.115	1	-5
640.454	1	6
640.793	1	3
641.132	1	3
641.472	1	-4
641.811	1	5
642.150	1	-10
642.489	1	-9
642.828	1	5
643.167	1	15
643.506	1	-2
643.845	1	1
644.184	1	8
644.524	1	-6
644.863	1	-5
645.202	1	4
645.541	1	-6
645.880	1	9
646.219	1	3
646.558	1	-4
646.897	1	-5
647.236	1	0
647.575	1	2
647.914	1	-7
648.253	1	3
648.592	1	3
648.931	1	-2
649.270	1	10
649.610	1	11
649.949	1	2
650.288	1	-10
650.627	1	-2
650.966	1	1
651.305	1	-1
651.644	1	0
651.983	1	3
652.322	1	-1
652.661	1	0
653.000	1	-6
653.339	1	12
653.678	1	-1
654.017	1	-5
654.356	1	2
654.695	1	7
655.034	1	2
655.373	1	-1
655.712	1	4
656.051	1	9
656.390	1	0
656.729	1	4
657.068	1	-1
657.406	1	0
657.745	1	-4
658.084	1	3
658.423	1	-1
658.762	1	-7
659.101	1	2
659.440	1	11
659.779	1	-2
660.118	1	5
660.457	1	-5
660.796	1	-1
661.135	1	3
661.474	1	0
661.813	1	0
662.152	1	2
662.491	1	7
662.829	1	-12
663.168	1	-4
663.507	1	-1
663.846	1	6
664.185	1	-4
664.524	1	-4
664.863	1	5
665.202	1	-14
665.541	1	-2
665.879	1	-1
666.218	1	-6
666.557	1	-5
666.896	1	-8
667.235	1	1
667.574	1	15
667.913	1	9
668.251	1	-4
668.590	1	1
668.929	1	1
669.268	1	4
669.607	1	-6
669.946	1	9
670.285	1	0
670.623	1	9
670.962	1	-1
671.301	1	3
671.640	1	-10
671.979	1	10
672.317	1	-7
672.656	1	3
672.995	1	7
673.334	1	8
673.673	1	13
674.011	1	11
674.350	1	-7
674.689	1	-6
675.028	1	-3
675.367	1	-3
675.705	1	-4
676.044	1	-2
676.383	1	-3
676.722	1	-8
677.060	1	3
677.399	1	1
677.738	1	0
678.077	1	8
678.416	1	8
678.754	1	-5
679.093	1	2
679.432	1	-7
679.771	1	-6
680.109	1	0
680.448	1	4
680.787	1	-5
681.125	1	-4
681.464	1	2
681.803	1	-5
682.142	1	-2
682.480	1	3
682.819	1	-5
683.158	1	-2
683.496	1	-11
683.835	1	6
684.174	1	-5
684.512	1	1
684.851	1	0
685.190	1	3
685.529	1	-5
685.867	1	-3
686.206	1	3
686.545	1	11
686.883	1	1
687.222	1	-7
687.561	1	14
687.899	1	0
688.238	1	7
688.577	1	-2
688.746	1	1