File: Analysis/GaN_68K_200ms/GaN_sample E_spot4_UVVIS_68 K_200um_200 ms 2x2mm1_664.txt
340.368	1	-9
340.710	1	-11
341.052	1	1
341.394	1	-8
341.737	1	5
342.079	1	-10
342.421	1	-3
342.763	1	-3
343.105	1	4
343.447	1	7
343.789	1	-11
344.131	1	-2
344.473	1	-2
344.815	1	-2
345.157	1	7
345.499	1	7
345.841	1	1
346.183	1	1
346.526	1	7
346.868	1	-4
347.210	1	-14
347.552	1	-2
347.894	1	2
348.236	1	2
348.578	1	8
348.920	1	5
349.262	1	6
349.604	1	9
349.946	1	16
350.288	1	3
350.630	1	-9
350.972	1	-1
351.314	1	-8
351.656	1	-2
351.998	1	-3
352.340	1	3
352.682	1	-2
353.024	1	-5
353.366	1	11
353.708	1	5
354.050	1	-1
354.392	1	6
354.734	1	-6
355.076	1	-1
355.418	1	-3
355.760	1	5
356.102	1	-6
356.444	1	6
356.785	1	14
357.127	1	1
357.469	1	-5
357.811	1	9
358.153	1	1
358.495	1	6
358.837	1	0
359.179	1	-4
359.521	1	3
359.863	1	-4
360.205	1	3
360.547	1	-1
360.889	1	2
361.231	1	3
361.572	1	-7
361.914	1	-8
362.256	1	6
362.598	1	4
362.940	1	4
363.282	1	2
363.624	1	0
363.966	1	3
364.308	1	-3
364.649	1	-6
364.991	1	-5
365.333	1	1
365.675	1	-5
366.017	1	1
366.359	1	-3
366.701	1	-6
367.042	1	9
367.384	1	9
367.726	1	4
368.068	1	3
368.410	1	-3
368.752	1	-9
369.093	1	1
369.435	1	-3
369.777	1	-7
370.119	1	0
370.461	1	-2
370.803	1	-11
371.144	1	5
371.486	1	12
371.828	1	5
372.170	1	5
372.512	1	-3
372.853	1	15
373.195	1	-6
373.537	1	7
373.879	1	1
374.220	1	-6
374.562	1	-3
374.904	1	6
375.246	1	-6
375.588	1	3
375.929	1	9
376.271	1	-1
376.613	1	-5
376.955	1	-6
377.296	1	0
377.638	1	0
377.980	1	3
378.321	1	3
378.663	1	-2
379.005	1	-2
379.347	1	-7
379.688	1	-3
380.030	1	1
380.372	1	9
380.714	1	-2
381.055	1	5
381.397	1	0
381.739	1	11
382.080	1	-14
382.422	1	12
382.764	1	-2
383.105	1	3
383.447	1	16
383.789	1	3
384.130	1	-7
384.472	1	-3
384.814	1	2
385.156	1	7
385.497	1	11
385.839	1	1
386.180	1	3
386.522	1	8
386.864	1	0
387.205	1	1
387.547	1	-1
387.889	1	16
388.230	1	-3
388.572	1	-1
388.914	1	12
389.255	1	5
389.597	1	-4
389.939	1	10
390.280	1	8
390.622	1	-6
390.963	1	11
391.305	1	3
391.647	1	-1
391.988	1	-3
392.330	1	-1
392.671	1	2
393.013	1	3
393.355	1	17
393.696	1	1
394.038	1	0
394.379	1	-11
394.721	1	3
395.062	1	-2
395.404	1	15
395.746	1	-4
396.087	1	-2
396.429	1	0
396.770	1	0
397.112	1	-6
397.453	1	-5
397.795	1	9
398.136	1	-2
398.478	1	-2
398.819	1	5
399.161	1	3
399.503	1	-3
399.844	1	0
400.186	1	11
400.527	1	1
400.869	1	6
401.210	1	1
401.552	1	9
401.893	1	4
402.235	1	15
402.576	1	9
402.918	1	-10
403.259	1	-9
403.601	1	2
403.942	1	7
404.284	1	5
404.625	1	2
404.967	1	-2
405.308	1	4
405.649	1	2
405.991	1	9
406.332	1	-5
406.674	1	4
407.015	1	-14
407.357	1	2
407.698	1	-7
408.040	1	-9
408.381	1	3
408.722	1	-4
409.064	1	8
409.405	1	-6
409.747	1	-1
410.088	1	-11
410.430	1	6
410.771	1	8
411.112	1	1
411.454	1	5
411.795	1	3
412.137	1	5
412.478	1	4
412.819	1	-3
413.161	1	6
413.502	1	-3
413.844	1	-3
414.185	1	8
414.526	1	4
414.868	1	4
415.209	1	-4
415.550	1	-4
415.892	1	3
416.233	1	-6
416.575	1	1
416.916	1	1
417.257	1	5
417.599	1	11
417.940	1	3
418.281	1	-3
418.623	1	-4
418.964	1	8
419.305	1	-10
419.647	1	6
419.988	1	-7
420.329	1	-1
420.671	1	5
421.012	1	7
421.353	1	3
421.695	1	9
422.036	1	4
422.377	1	13
422.718	1	-1
423.060	1	-2
423.401	1	4
423.742	1	1
424.084	1	1
424.425	1	-5
424.766	1	5
425.107	1	5
425.449	1	14
425.790	1	-4
426.131	1	-5
426.472	1	-5
426.814	1	1
427.155	1	-12
427.496	1	10
427.837	1	-5
428.179	1	1
428.520	1	-5
428.861	1	-6
429.202	1	0
429.544	1	-1
429.885	1	5
430.226	1	-3
430.567	1	9
430.909	1	-1
431.250	1	-13
431.591	1	-2
431.932	1	3
432.273	1	1
432.615	1	6
432.956	1	-8
433.297	1	-2
433.638	1	5
433.979	1	-6
434.320	1	-1
434.662	1	-7
435.003	1	5
435.344	1	3
435.685	1	1
436.026	1	2
436.368	1	-4
436.709	1	-3
437.050	1	0
437.391	1	-10
437.732	1	-6
438.073	1	2
438.414	1	1
438.756	1	6
439.097	1	7
439.438	1	3
439.779	1	-2
440.120	1	1
440.461	1	-7
440.802	1	1
441.143	1	1
441.485	1	1
441.826	1	-6
442.167	1	-6
442.508	1	-1
442.849	1	9
443.190	1	-8
443.531	1	1
443.872	1	7
444.213	1	-5
444.554	1	-3
444.895	1	-7
445.237	1	0
445.578	1	14
445.919	1	2
446.260	1	5
446.601	1	-9
446.942	1	3
447.283	1	-1
447.624	1	8
447.965	1	-5
448.306	1	12
448.647	1	9
448.988	1	-9
449.329	1	7
449.670	1	-2
450.011	1	0
450.352	1	12
450.693	1	5
451.034	1	5
451.375	1	10
451.716	1	3
452.057	1	10
452.398	1	0
452.739	1	-4
453.080	1	8
453.421	1	-5
453.762	1	1
454.103	1	5
454.444	1	5
454.785	1	-1
455.126	1	4
455.467	1	-2
455.808	1	4
456.149	1	1
456.490	1	-3
456.831	1	12
457.172	1	1
457.513	1	8
457.854	1	-12
458.195	1	-7
458.536	1	9
458.877	1	0
459.218	1	-2
459.559	1	1
459.899	1	12
460.240	1	2
460.581	1	10
460.922	1	3
461.263	1	-2
461.604	1	1
461.945	1	12
462.286	1	12
462.627	1	-5
462.968	1	-10
463.309	1	-5
463.649	1	-3
463.990	1	-1
464.331	1	5
464.672	1	1
465.013	1	-2
465.354	1	-3
465.695	1	13
466.036	1	6
466.376	1	-2
466.717	1	-6
467.058	1	6
467.399	1	4
467.740	1	0
468.081	1	7
468.422	1	-1
468.762	1	-4
469.103	1	-4
469.444	1	3
469.785	1	-3
470.126	1	0
470.467	1	-2
470.807	1	-1
471.148	1	-4
471.489	1	-7
471.830	1	14
472.171	1	0
472.511	1	11
472.852	1	-2
473.193	1	-8
473.534	1	6
473.875	1	10
474.215	1	1
474.556	1	-6
474.897	1	-7
475.238	1	-17
475.578	1	-4
475.919	1	-1
476.260	1	-3
476.601	1	-4
476.942	1	1
477.282	1	-12
477.623	1	-6
477.964	1	13
478.305	1	-2
478.645	1	-2
478.986	1	3
479.327	1	-11
479.667	1	6
480.008	1	-1
480.349	1	0
480.690	1	-3
481.030	1	-13
481.371	1	5
481.712	1	5
482.053	1	11
482.393	1	-13
482.734	1	4
483.075	1	2
483.415	1	1
483.756	1	3
484.097	1	-7
484.437	1	-4
484.778	1	6
485.119	1	3
485.459	1	7
485.800	1	-6
486.141	1	-6
486.481	1	10
486.822	1	1
487.163	1	3
487.503	1	-18
487.844	1	7
488.185	1	-7
488.525	1	0
488.866	1	3
489.207	1	6
489.547	1	-6
489.888	1	-2
490.228	1	1
490.569	1	5
490.910	1	-2
491.250	1	-6
491.591	1	-5
491.932	1	10
492.272	1	7
492.613	1	3
492.953	1	3
493.294	1	3
493.635	1	-4
493.975	1	-7
494.316	1	6
494.656	1	1
494.997	1	-3
495.337	1	2
495.678	1	0
496.019	1	-10
496.359	1	6
496.700	1	0
497.040	1	3
497.381	1	-5
497.721	1	-8
498.062	1	4
498.403	1	4
498.743	1	8
499.084	1	-11
499.424	1	8
499.765	1	1
500.105	1	2
500.446	1	11
500.786	1	-1
501.127	1	3
501.467	1	2
501.808	1	-3
502.148	1	1
502.489	1	9
502.829	1	-1
503.170	1	4
503.510	1	2
503.851	1	-13
504.191	1	5
504.532	1	-6
504.872	1	-8
505.213	1	-2
505.553	1	10
505.894	1	8
506.234	1	1
506.575	1	8
506.915	1	-5
507.256	1	5
507.596	1	0
507.936	1	-1
508.277	1	0
508.617	1	6
508.958	1	5
509.298	1	14
509.639	1	-1
509.979	1	-11
510.319	1	-2
510.660	1	-2
511.000	1	-1
511.341	1	-4
511.681	1	-7
512.022	1	-5
512.362	1	-5
512.702	1	-8
513.043	1	4
513.383	1	-11
513.724	1	8
514.064	1	5
514.404	1	4
514.745	1	-3
515.085	1	8
515.425	1	-4
515.766	1	4
516.106	1	-5
516.447	1	3
516.787	1	4
517.127	1	-5
517.468	1	3
517.808	1	4
518.148	1	-4
518.489	1	-6
518.829	1	-6
519.169	1	7
519.510	1	-1
519.850	1	-7
520.190	1	-9
520.531	1	1
520.871	1	-6
521.211	1	-2
521.552	1	0
521.892	1	-18
522.232	1	-6
522.573	1	4
522.913	1	-10
523.253	1	-10
523.593	1	-8
523.934	1	1
524.274	1	-7
524.614	1	5
524.955	1	-2
525.295	1	-9
525.635	1	14
525.975	1	3
526.316	1	3
526.656	1	7
526.996	1	7
527.337	1	1
527.677	1	12
528.017	1	-10
528.357	1	8
528.698	1	-5
529.038	1	1
529.378	1	6
529.718	1	6
530.058	1	-6
530.399	1	2
530.739	1	4
531.079	1	-4
531.419	1	10
531.760	1	5
532.100	1	7
532.440	1	-2
532.780	1	0
533.120	1	-4
533.461	1	10
533.801	1	1
534.141	1	6
534.481	1	2
534.821	1	5
535.162	1	0
535.502	1	1
535.842	1	-10
536.182	1	3
536.522	1	-1
536.862	1	10
537.203	1	-2
537.543	1	1
537.883	1	7
538.223	1	-3
538.563	1	8
538.903	1	-9
539.243	1	0
539.584	1	-8
539.924	1	7
540.264	1	4
540.604	1	4
540.944	1	0
541.284	1	0
541.624	1	2
541.964	1	6
542.305	1	-8
542.645	1	-7
542.985	1	-4
543.325	1	-4
543.665	1	12
544.005	1	1
544.345	1	-8
544.685	1	8
545.025	1	-11
545.365	1	1
545.705	1	1
546.045	1	8
546.386	1	-5
546.726	1	-2
547.066	1	-4
547.406	1	7
547.746	1	8
548.086	1	0
548.426	1	-4
548.766	1	1
549.106	1	5
549.446	1	-1
549.786	1	5
550.126	1	5
550.466	1	-13
550.806	1	6
551.146	1	-4
551.486	1	-1
551.826	1	3
552.166	1	-3
552.506	1	-5
552.846	1	5
553.186	1	6
553.526	1	2
553.866	1	3
554.206	1	0
554.546	1	-4
554.886	1	7
555.226	1	-11
555.566	1	-6
555.906	1	1
556.246	1	-11
556.586	1	15
556.926	1	3
557.266	1	7
557.606	1	-10
557.946	1	7
558.286	1	5
558.626	1	-3
558.966	1	-5
559.306	1	-1
559.646	1	1
559.986	1	0
560.325	1	-10
560.665	1	5
561.005	1	3
561.345	1	-5
561.685	1	-1
562.025	1	-5
562.365	1	2
562.705	1	8
563.045	1	10
563.385	1	-5
563.725	1	8
564.064	1	3
564.404	1	-9
564.744	1	7
565.084	1	-7
565.424	1	-1
565.764	1	6
566.104	1	-5
566.444	1	5
566.783	1	-4
567.123	1	10
567.463	1	1
567.803	1	-2
568.143	1	-4
568.483	1	-4
568.823	1	5
569.162	1	3
569.502	1	5
569.842	1	-8
570.182	1	4
570.522	1	8
570.862	1	2
571.201	1	4
571.541	1	-13
571.881	1	-2
572.221	1	6
572.561	1	-9
572.900	1	7
573.240	1	-4
573.580	1	1
573.920	1	0
574.260	1	-7
574.599	1	-5
574.939	1	11
575.279	1	11
575.619	1	-2
575.959	1	-10
576.298	1	-3
576.638	1	-4
576.978	1	2
577.318	1	1
577.657	1	-11
577.997	1	-9
578.337	1	-7
578.677	1	-4
579.016	1	14
579.356	1	0
579.696	1	2
580.036	1	-8
580.375	1	-5
580.715	1	13
581.055	1	3
581.394	1	-3
581.734	1	0
582.074	1	-5
582.414	1	-2
582.753	1	1
583.093	1	-4
583.433	1	-8
583.772	1	10
584.112	1	-6
584.452	1	3
584.791	1	7
585.131	1	-9
585.471	1	-5
585.811	1	-9
586.150	1	-3
586.490	1	-5
586.830	1	-16
587.169	1	1
587.509	1	-3
587.849	1	9
588.188	1	-10
588.528	1	2
588.867	1	9
589.207	1	-10
589.547	1	-10
589.886	1	-4
590.226	1	-3
590.566	1	2
590.905	1	-1
591.245	1	-1
591.585	1	-6
591.924	1	-5
592.264	1	-4
592.603	1	5
592.943	1	-7
593.283	1	11
593.622	1	-8
593.962	1	6
594.301	1	6
594.641	1	-2
594.981	1	3
595.320	1	7
595.660	1	-4
595.999	1	-8
596.339	1	0
596.678	1	-5
597.018	1	1
597.358	1	4
597.697	1	-7
598.037	1	1
598.376	1	-4
598.716	1	-6
599.055	1	1
599.395	1	7
599.734	1	1
600.074	1	-4
600.413	1	-5
600.753	1	3
601.092	1	-4
601.432	1	1
601.771	1	0
602.111	1	-11
602.451	1	10
602.790	1	-4
603.130	1	2
603.469	1	4
603.809	1	13
604.148	1	2
604.487	1	-2
604.827	1	-8
605.166	1	-9
605.506	1	-3
605.845	1	-3
606.185	1	3
606.524	1	-7
606.864	1	-4
607.203	1	2
607.543	1	-10
607.882	1	2
608.222	1	7
608.561	1	9
608.901	1	4
609.240	1	3
609.579	1	-2
609.919	1	-7
610.258	1	7
610.598	1	0
610.937	1	-1
611.277	1	5
611.616	1	-5
611.955	1	0
612.295	1	2
612.634	1	5
612.974	1	-1
613.313	1	5
613.652	1	-9
613.992	1	0
614.331	1	3
614.671	1	2
615.010	1	11
615.349	1	0
615.689	1	-2
616.028	1	-1
616.368	1	-2
616.707	1	-4
617.046	1	10
617.386	1	-5
617.725	1	11
618.064	1	1
618.404	1	11
618.743	1	0
619.082	1	0
619.422	1	1
619.761	1	3
620.100	1	1
620.440	1	1
620.779	1	-2
621.118	1	2
621.458	1	7
621.797	1	-2
622.136	1	2
622.476	1	3
622.815	1	5
623.154	1	10
623.494	1	2
623.833	1	-7
624.172	1	4
624.511	1	-2
624.851	1	-9
625.190	1	1
625.529	1	7
625.869	1	3
626.208	1	-4
626.547	1	-2
626.886	1	-5
627.226	1	-1
627.565	1	11
627.904	1	4
628.243	1	-8
628.583	1	-5
628.922	1	-12
629.261	1	9
629.600	1	1
629.940	1	-4
630.279	1	-7
630.618	1	3
630.957	1	1
631.297	1	-18
631.636	1	-4
631.975	1	5
632.314	1	2
632.653	1	-9
632.993	1	4
633.332	1	-3
633.671	1	1
634.010	1	3
634.349	1	4
634.689	1	7
635.028	1	-1
635.367	1	0
635.706	1	-5
636.045	1	2
636.384	1	7
636.724	1	6
637.063	1	3
637.402	1	12
637.741	1	11
638.080	1	-2
638.419	1	2
638.759	1	0
639.098	1	-2
639.437	1	-2
639.776	1	-5
640.115	1	0
640.454	1	11
640.793	1	4
641.132	1	7
641.472	1	7
641.811	1	8
642.150	1	1
642.489	1	10
642.828	1	2
643.167	1	-6
643.506	1	-3
643.845	1	4
644.184	1	14
644.524	1	-4
644.863	1	-7
645.202	1	-3
645.541	1	-11
645.880	1	-1
646.219	1	9
646.558	1	-5
646.897	1	-8
647.236	1	7
647.575	1	-1
647.914	1	-8
648.253	1	0
648.592	1	-1
648.931	1	8
649.270	1	10
649.610	1	2
649.949	1	-1
650.288	1	-4
650.627	1	-5
650.966	1	-5
651.305	1	-4
651.644	1	-3
651.983	1	9
652.322	1	4
652.661	1	-5
653.000	1	-9
653.339	1	6
653.678	1	1
654.017	1	5
654.356	1	2
654.695	1	4
655.034	1	5
655.373	1	-5
655.712	1	-5
656.051	1	8
656.390	1	2
656.729	1	8
657.068	1	-5
657.406	1	-1
657.745	1	-13
658.084	1	9
658.423	1	-8
658.762	1	-1
659.101	1	-4
659.440	1	5
659.779	1	2
660.118	1	5
660.457	1	-9
660.796	1	-3
661.135	1	-6
661.474	1	0
661.813	1	7
662.152	1	1
662.491	1	-1
662.829	1	-8
663.168	1	-8
663.507	1	-1
663.846	1	-4
664.185	1	3
664.524	1	-11
664.863	1	1
665.202	1	-10
665.541	1	-3
665.879	1	2
666.218	1	-9
666.557	1	-3
666.896	1	-2
667.235	1	4
667.574	1	-4
667.913	1	3
668.251	1	4
668.590	1	0
668.929	1	6
669.268	1	2
669.607	1	-11
669.946	1	5
670.285	1	9
670.623	1	5
670.962	1	5
671.301	1	-9
671.640	1	-6
671.979	1	11
672.317	1	-1
672.656	1	4
672.995	1	1
673.334	1	-1
673.673	1	12
674.011	1	3
674.350	1	1
674.689	1	2
675.028	1	-8
675.367	1	-4
675.705	1	-4
676.044	1	-9
676.383	1	-1
676.722	1	5
677.060	1	3
677.399	1	-3
677.738	1	-7
678.077	1	-1
678.416	1	-6
678.754	1	-2
679.093	1	-6
679.432	1	-8
679.771	1	2
680.109	1	4
680.448	1	0
680.787	1	5
681.125	1	8
681.464	1	-16
681.803	1	-16
682.142	1	8
682.480	1	-10
682.819	1	5
683.158	1	-9
683.496	1	-15
683.835	1	6
684.174	1	4
684.512	1	-5
684.851	1	-4
685.190	1	2
685.529	1	-4
685.867	1	4
686.206	1	9
686.545	1	7
686.883	1	-9
687.222	1	-8
687.561	1	2
687.899	1	2
688.238	1	-4
688.577	1	-9
688.746	1	-4