File: Analysis/GaN_68K_200ms/GaN_sample E_spot4_UVVIS_68 K_200um_200 ms 2x2mm1_760.txt
340.368	1	6
340.710	1	-11
341.052	1	1
341.394	1	-6
341.737	1	9
342.079	1	1
342.421	1	-8
342.763	1	10
343.105	1	10
343.447	1	-7
343.789	1	2
344.131	1	-1
344.473	1	-1
344.815	1	8
345.157	1	7
345.499	1	-3
345.841	1	6
346.183	1	-4
346.526	1	3
346.868	1	-6
347.210	1	-7
347.552	1	8
347.894	1	-10
348.236	1	5
348.578	1	8
348.920	1	4
349.262	1	-2
349.604	1	9
349.946	1	0
350.288	1	0
350.630	1	-10
350.972	1	-6
351.314	1	1
351.656	1	-3
351.998	1	-1
352.340	1	-1
352.682	1	1
353.024	1	-2
353.366	1	7
353.708	1	-3
354.050	1	8
354.392	1	6
354.734	1	5
355.076	1	2
355.418	1	-2
355.760	1	-2
356.102	1	-12
356.444	1	6
356.785	1	10
357.127	1	7
357.469	1	-6
357.811	1	16
358.153	1	0
358.495	1	12
358.837	1	-6
359.179	1	1
359.521	1	-3
359.863	1	-9
360.205	1	1
360.547	1	1
360.889	1	6
361.231	1	1
361.572	1	-8
361.914	1	0
362.256	1	0
362.598	1	1
362.940	1	-6
363.282	1	5
363.624	1	-7
363.966	1	-3
364.308	1	-4
364.649	1	0
364.991	1	-4
365.333	1	4
365.675	1	-5
366.017	1	7
366.359	1	0
366.701	1	-8
367.042	1	7
367.384	1	3
367.726	1	5
368.068	1	-3
368.410	1	5
368.752	1	-7
369.093	1	6
369.435	1	-1
369.777	1	-5
370.119	1	-1
370.461	1	4
370.803	1	-2
371.144	1	-3
371.486	1	8
371.828	1	-5
372.170	1	2
372.512	1	-9
372.853	1	11
373.195	1	-2
373.537	1	1
373.879	1	8
374.220	1	-7
374.562	1	2
374.904	1	-1
375.246	1	-4
375.588	1	4
375.929	1	-1
376.271	1	-3
376.613	1	5
376.955	1	0
377.296	1	9
377.638	1	0
377.980	1	5
378.321	1	-2
378.663	1	-7
379.005	1	7
379.347	1	9
379.688	1	-3
380.030	1	-7
380.372	1	3
380.714	1	1
381.055	1	-9
381.397	1	-7
381.739	1	-3
382.080	1	-13
382.422	1	8
382.764	1	2
383.105	1	8
383.447	1	9
383.789	1	10
384.130	1	-2
384.472	1	-14
384.814	1	7
385.156	1	3
385.497	1	6
385.839	1	1
386.180	1	2
386.522	1	3
386.864	1	-10
387.205	1	-3
387.547	1	-7
387.889	1	9
388.230	1	-1
388.572	1	-2
388.914	1	14
389.255	1	8
389.597	1	-11
389.939	1	5
390.280	1	8
390.622	1	-4
390.963	1	1
391.305	1	9
391.647	1	2
391.988	1	0
392.330	1	6
392.671	1	11
393.013	1	2
393.355	1	0
393.696	1	-4
394.038	1	1
394.379	1	-7
394.721	1	9
395.062	1	-4
395.404	1	-2
395.746	1	-8
396.087	1	-2
396.429	1	3
396.770	1	10
397.112	1	-2
397.453	1	-7
397.795	1	4
398.136	1	-2
398.478	1	-4
398.819	1	7
399.161	1	-6
399.503	1	1
399.844	1	-2
400.186	1	5
400.527	1	-2
400.869	1	7
401.210	1	2
401.552	1	13
401.893	1	-4
402.235	1	10
402.576	1	1
402.918	1	-1
403.259	1	-1
403.601	1	-18
403.942	1	3
404.284	1	1
404.625	1	7
404.967	1	2
405.308	1	1
405.649	1	0
405.991	1	7
406.332	1	-6
406.674	1	-3
407.015	1	-5
407.357	1	-1
407.698	1	-9
408.040	1	-5
408.381	1	2
408.722	1	-7
409.064	1	0
409.405	1	-1
409.747	1	-5
410.088	1	10
410.430	1	1
410.771	1	-2
411.112	1	2
411.454	1	5
411.795	1	-1
412.137	1	2
412.478	1	6
412.819	1	-10
413.161	1	-6
413.502	1	-1
413.844	1	-5
414.185	1	0
414.526	1	6
414.868	1	1
415.209	1	-2
415.550	1	-7
415.892	1	-4
416.233	1	12
416.575	1	-2
416.916	1	-4
417.257	1	5
417.599	1	8
417.940	1	-5
418.281	1	0
418.623	1	1
418.964	1	4
419.305	1	-1
419.647	1	9
419.988	1	-9
420.329	1	3
420.671	1	2
421.012	1	12
421.353	1	6
421.695	1	-1
422.036	1	-8
422.377	1	5
422.718	1	0
423.060	1	0
423.401	1	-1
423.742	1	8
424.084	1	-1
424.425	1	0
424.766	1	0
425.107	1	4
425.449	1	-1
425.790	1	-3
426.131	1	-1
426.472	1	-15
426.814	1	0
427.155	1	3
427.496	1	5
427.837	1	-3
428.179	1	-5
428.520	1	-3
428.861	1	-2
429.202	1	2
429.544	1	3
429.885	1	0
430.226	1	-11
430.567	1	10
430.909	1	-5
431.250	1	-9
431.591	1	4
431.932	1	-1
432.273	1	-3
432.615	1	5
432.956	1	0
433.297	1	1
433.638	1	3
433.979	1	5
434.320	1	-3
434.662	1	0
435.003	1	5
435.344	1	2
435.685	1	9
436.026	1	6
436.368	1	-3
436.709	1	-13
437.050	1	5
437.391	1	1
437.732	1	-2
438.073	1	-1
438.414	1	-2
438.756	1	3
439.097	1	8
439.438	1	3
439.779	1	-9
440.120	1	3
440.461	1	-8
440.802	1	-4
441.143	1	-2
441.485	1	-5
441.826	1	-8
442.167	1	2
442.508	1	1
442.849	1	3
443.190	1	-10
443.531	1	3
443.872	1	5
444.213	1	-2
444.554	1	-5
444.895	1	0
445.237	1	2
445.578	1	-3
445.919	1	-2
446.260	1	3
446.601	1	-5
446.942	1	-1
447.283	1	-3
447.624	1	9
447.965	1	-4
448.306	1	7
448.647	1	7
448.988	1	-8
449.329	1	-1
449.670	1	10
450.011	1	-7
450.352	1	6
450.693	1	10
451.034	1	-3
451.375	1	6
451.716	1	4
452.057	1	10
452.398	1	-9
452.739	1	11
453.080	1	10
453.421	1	1
453.762	1	4
454.103	1	6
454.444	1	11
454.785	1	-5
455.126	1	0
455.467	1	-1
455.808	1	5
456.149	1	-5
456.490	1	-5
456.831	1	7
457.172	1	-1
457.513	1	1
457.854	1	-6
458.195	1	-6
458.536	1	6
458.877	1	-1
459.218	1	1
459.559	1	-3
459.899	1	7
460.240	1	5
460.581	1	3
460.922	1	2
461.263	1	2
461.604	1	-6
461.945	1	1
462.286	1	-1
462.627	1	-6
462.968	1	-3
463.309	1	2
463.649	1	-5
463.990	1	1
464.331	1	5
464.672	1	-5
465.013	1	-12
465.354	1	1
465.695	1	-1
466.036	1	1
466.376	1	-4
466.717	1	-10
467.058	1	7
467.399	1	1
467.740	1	-5
468.081	1	-1
468.422	1	-5
468.762	1	-8
469.103	1	-2
469.444	1	-1
469.785	1	-5
470.126	1	-3
470.467	1	-2
470.807	1	7
471.148	1	-13
471.489	1	-17
471.830	1	19
472.171	1	0
472.511	1	12
472.852	1	-4
473.193	1	-6
473.534	1	-1
473.875	1	3
474.215	1	0
474.556	1	-4
474.897	1	5
475.238	1	-6
475.578	1	-1
475.919	1	-6
476.260	1	-6
476.601	1	5
476.942	1	3
477.282	1	-7
477.623	1	7
477.964	1	9
478.305	1	0
478.645	1	-13
478.986	1	-6
479.327	1	-8
479.667	1	-2
480.008	1	0
480.349	1	9
480.690	1	-7
481.030	1	-9
481.371	1	3
481.712	1	0
482.053	1	0
482.393	1	-7
482.734	1	2
483.075	1	10
483.415	1	0
483.756	1	10
484.097	1	-8
484.437	1	-12
484.778	1	1
485.119	1	-2
485.459	1	4
485.800	1	-7
486.141	1	-5
486.481	1	-2
486.822	1	10
487.163	1	-11
487.503	1	-5
487.844	1	3
488.185	1	-4
488.525	1	-10
488.866	1	11
489.207	1	10
489.547	1	4
489.888	1	-3
490.228	1	-4
490.569	1	11
490.910	1	-3
491.250	1	-2
491.591	1	-5
491.932	1	1
492.272	1	7
492.613	1	7
492.953	1	-5
493.294	1	9
493.635	1	-4
493.975	1	-2
494.316	1	14
494.656	1	-4
494.997	1	-13
495.337	1	5
495.678	1	1
496.019	1	-7
496.359	1	6
496.700	1	-1
497.040	1	4
497.381	1	-15
497.721	1	-6
498.062	1	-8
498.403	1	-7
498.743	1	-3
499.084	1	-16
499.424	1	15
499.765	1	3
500.105	1	2
500.446	1	4
500.786	1	3
501.127	1	11
501.467	1	-6
501.808	1	-9
502.148	1	-2
502.489	1	1
502.829	1	2
503.170	1	5
503.510	1	-10
503.851	1	-14
504.191	1	6
504.532	1	-4
504.872	1	-9
505.213	1	-9
505.553	1	2
505.894	1	3
506.234	1	3
506.575	1	-2
506.915	1	4
507.256	1	-3
507.596	1	5
507.936	1	-2
508.277	1	-7
508.617	1	-2
508.958	1	3
509.298	1	19
509.639	1	8
509.979	1	3
510.319	1	-6
510.660	1	-2
511.000	1	8
511.341	1	-4
511.681	1	-2
512.022	1	-5
512.362	1	10
512.702	1	-6
513.043	1	0
513.383	1	-9
513.724	1	10
514.064	1	-1
514.404	1	-2
514.745	1	0
515.085	1	1
515.425	1	-6
515.766	1	-5
516.106	1	1
516.447	1	3
516.787	1	1
517.127	1	-5
517.468	1	0
517.808	1	-3
518.148	1	-4
518.489	1	-1
518.829	1	-13
519.169	1	4
519.510	1	-2
519.850	1	-12
520.190	1	4
520.531	1	2
520.871	1	-6
521.211	1	8
521.552	1	4
521.892	1	-8
522.232	1	-9
522.573	1	-8
522.913	1	2
523.253	1	-7
523.593	1	-20
523.934	1	1
524.274	1	-1
524.614	1	7
524.955	1	4
525.295	1	-10
525.635	1	2
525.975	1	5
526.316	1	-4
526.656	1	10
526.996	1	9
527.337	1	-4
527.677	1	18
528.017	1	-8
528.357	1	6
528.698	1	-10
529.038	1	4
529.378	1	8
529.718	1	0
530.058	1	-2
530.399	1	1
530.739	1	0
531.079	1	1
531.419	1	13
531.760	1	4
532.100	1	13
532.440	1	-5
532.780	1	-1
533.120	1	2
533.461	1	7
533.801	1	4
534.141	1	12
534.481	1	-2
534.821	1	5
535.162	1	7
535.502	1	3
535.842	1	5
536.182	1	0
536.522	1	-1
536.862	1	7
537.203	1	4
537.543	1	-2
537.883	1	0
538.223	1	-1
538.563	1	-9
538.903	1	2
539.243	1	0
539.584	1	2
539.924	1	4
540.264	1	-2
540.604	1	1
540.944	1	1
541.284	1	-2
541.624	1	1
541.964	1	6
542.305	1	-2
542.645	1	-5
542.985	1	-3
543.325	1	1
543.665	1	9
544.005	1	2
544.345	1	-9
544.685	1	-2
545.025	1	-8
545.365	1	0
545.705	1	9
546.045	1	6
546.386	1	-4
546.726	1	4
547.066	1	-17
547.406	1	2
547.746	1	0
548.086	1	0
548.426	1	2
548.766	1	7
549.106	1	0
549.446	1	3
549.786	1	-1
550.126	1	-2
550.466	1	-2
550.806	1	5
551.146	1	-9
551.486	1	5
551.826	1	6
552.166	1	-4
552.506	1	-13
552.846	1	-4
553.186	1	-1
553.526	1	0
553.866	1	2
554.206	1	2
554.546	1	-11
554.886	1	0
555.226	1	-12
555.566	1	6
555.906	1	5
556.246	1	-7
556.586	1	6
556.926	1	12
557.266	1	12
557.606	1	-15
557.946	1	-2
558.286	1	4
558.626	1	2
558.966	1	2
559.306	1	-6
559.646	1	6
559.986	1	-3
560.325	1	-7
560.665	1	5
561.005	1	0
561.345	1	-5
561.685	1	-1
562.025	1	-5
562.365	1	9
562.705	1	14
563.045	1	-1
563.385	1	6
563.725	1	2
564.064	1	5
564.404	1	-1
564.744	1	3
565.084	1	-11
565.424	1	0
565.764	1	5
566.104	1	-3
566.444	1	8
566.783	1	-1
567.123	1	11
567.463	1	12
567.803	1	0
568.143	1	-13
568.483	1	-13
568.823	1	10
569.162	1	-6
569.502	1	5
569.842	1	-11
570.182	1	-3
570.522	1	0
570.862	1	5
571.201	1	4
571.541	1	-12
571.881	1	3
572.221	1	5
572.561	1	-5
572.900	1	0
573.240	1	-8
573.580	1	5
573.920	1	-14
574.260	1	-5
574.599	1	-6
574.939	1	-6
575.279	1	2
575.619	1	6
575.959	1	-8
576.298	1	-5
576.638	1	-2
576.978	1	0
577.318	1	8
577.657	1	-16
577.997	1	-7
578.337	1	-5
578.677	1	-3
579.016	1	12
579.356	1	-2
579.696	1	6
580.036	1	-3
580.375	1	-3
580.715	1	2
581.055	1	-3
581.394	1	-6
581.734	1	6
582.074	1	3
582.414	1	-3
582.753	1	-6
583.093	1	-5
583.433	1	1
583.772	1	-2
584.112	1	3
584.452	1	-4
584.791	1	5
585.131	1	-5
585.471	1	-1
585.811	1	-3
586.150	1	-1
586.490	1	0
586.830	1	-6
587.169	1	-4
587.509	1	4
587.849	1	3
588.188	1	0
588.528	1	-4
588.867	1	4
589.207	1	-11
589.547	1	-3
589.886	1	-2
590.226	1	-1
590.566	1	-8
590.905	1	2
591.245	1	-3
591.585	1	0
591.924	1	-1
592.264	1	0
592.603	1	-8
592.943	1	-7
593.283	1	0
593.622	1	3
593.962	1	3
594.301	1	12
594.641	1	-7
594.981	1	2
595.320	1	-1
595.660	1	-8
595.999	1	0
596.339	1	6
596.678	1	-1
597.018	1	-3
597.358	1	2
597.697	1	3
598.037	1	-1
598.376	1	11
598.716	1	-7
599.055	1	6
599.395	1	6
599.734	1	4
600.074	1	-6
600.413	1	4
600.753	1	-3
601.092	1	-10
601.432	1	-8
601.771	1	12
602.111	1	-7
602.451	1	-1
602.790	1	7
603.130	1	7
603.469	1	-1
603.809	1	0
604.148	1	9
604.487	1	-1
604.827	1	-12
605.166	1	-4
605.506	1	13
605.845	1	7
606.185	1	6
606.524	1	3
606.864	1	2
607.203	1	14
607.543	1	-6
607.882	1	0
608.222	1	1
608.561	1	20
608.901	1	-1
609.240	1	1
609.579	1	1
609.919	1	-3
610.258	1	1
610.598	1	9
610.937	1	-4
611.277	1	-2
611.616	1	-14
611.955	1	-1
612.295	1	2
612.634	1	-4
612.974	1	7
613.313	1	-4
613.652	1	-2
613.992	1	3
614.331	1	-1
614.671	1	-3
615.010	1	2
615.349	1	6
615.689	1	1
616.028	1	-6
616.368	1	-4
616.707	1	7
617.046	1	-1
617.386	1	-2
617.725	1	6
618.064	1	8
618.404	1	1
618.743	1	-2
619.082	1	8
619.422	1	-2
619.761	1	-11
620.100	1	3
620.440	1	9
620.779	1	-5
621.118	1	3
621.458	1	2
621.797	1	3
622.136	1	11
622.476	1	-7
622.815	1	2
623.154	1	-5
623.494	1	-2
623.833	1	2
624.172	1	10
624.511	1	4
624.851	1	-10
625.190	1	-8
625.529	1	-1
625.869	1	12
626.208	1	-6
626.547	1	2
626.886	1	-1
627.226	1	4
627.565	1	11
627.904	1	7
628.243	1	-6
628.583	1	-5
628.922	1	-5
629.261	1	7
629.600	1	1
629.940	1	-2
630.279	1	-9
630.618	1	-1
630.957	1	-2
631.297	1	-8
631.636	1	-1
631.975	1	6
632.314	1	10
632.653	1	-6
632.993	1	10
633.332	1	6
633.671	1	0
634.010	1	-1
634.349	1	1
634.689	1	10
635.028	1	-8
635.367	1	4
635.706	1	-10
636.045	1	-3
636.384	1	5
636.724	1	7
637.063	1	5
637.402	1	4
637.741	1	11
638.080	1	2
638.419	1	11
638.759	1	6
639.098	1	-4
639.437	1	-1
639.776	1	-6
640.115	1	-7
640.454	1	4
640.793	1	11
641.132	1	7
641.472	1	-7
641.811	1	-2
642.150	1	3
642.489	1	-6
642.828	1	-12
643.167	1	9
643.506	1	-14
643.845	1	-1
644.184	1	10
644.524	1	-13
644.863	1	-4
645.202	1	-3
645.541	1	-10
645.880	1	8
646.219	1	1
646.558	1	1
646.897	1	-5
647.236	1	8
647.575	1	1
647.914	1	-11
648.253	1	2
648.592	1	-2
648.931	1	8
649.270	1	5
649.610	1	9
649.949	1	-3
650.288	1	-7
650.627	1	-4
650.966	1	-1
651.305	1	0
651.644	1	0
651.983	1	-3
652.322	1	7
652.661	1	2
653.000	1	-2
653.339	1	9
653.678	1	1
654.017	1	1
654.356	1	13
654.695	1	3
655.034	1	0
655.373	1	-1
655.712	1	0
656.051	1	2
656.390	1	-7
656.729	1	0
657.068	1	-4
657.406	1	10
657.745	1	-4
658.084	1	7
658.423	1	-10
658.762	1	-9
659.101	1	-1
659.440	1	9
659.779	1	-3
660.118	1	10
660.457	1	-9
660.796	1	-2
661.135	1	0
661.474	1	-2
661.813	1	-4
662.152	1	-2
662.491	1	0
662.829	1	-3
663.168	1	-2
663.507	1	4
663.846	1	3
664.185	1	-8
664.524	1	-9
664.863	1	6
665.202	1	-6
665.541	1	4
665.879	1	1
666.218	1	-5
666.557	1	-2
666.896	1	-1
667.235	1	5
667.574	1	0
667.913	1	3
668.251	1	-3
668.590	1	-3
668.929	1	8
669.268	1	-1
669.607	1	-6
669.946	1	0
670.285	1	-3
670.623	1	2
670.962	1	1
671.301	1	-13
671.640	1	-15
671.979	1	10
672.317	1	-4
672.656	1	6
672.995	1	-3
673.334	1	0
673.673	1	11
674.011	1	9
674.350	1	-4
674.689	1	-3
675.028	1	6
675.367	1	-2
675.705	1	-9
676.044	1	-8
676.383	1	-2
676.722	1	-3
677.060	1	1
677.399	1	2
677.738	1	-6
678.077	1	7
678.416	1	-6
678.754	1	-3
679.093	1	-7
679.432	1	2
679.771	1	-8
680.109	1	5
680.448	1	2
680.787	1	4
681.125	1	7
681.464	1	4
681.803	1	-14
682.142	1	17
682.480	1	-3
682.819	1	2
683.158	1	5
683.496	1	-3
683.835	1	5
684.174	1	-6
684.512	1	-7
684.851	1	-2
685.190	1	5
685.529	1	-1
685.867	1	1
686.206	1	14
686.545	1	8
686.883	1	-10
687.222	1	-10
687.561	1	-2
687.899	1	-3
688.238	1	-3
688.577	1	-3
688.746	1	-1