File: Analysis/GaN_68K_200ms/GaN_sample E_spot4_UVVIS_68 K_200um_200 ms 2x2mm1_190.txt
340.368	1	-6
340.710	1	-1
341.052	1	12
341.394	1	-5
341.737	1	5
342.079	1	-10
342.421	1	1
342.763	1	1
343.105	1	19
343.447	1	5
343.789	1	-5
344.131	1	-3
344.473	1	5
344.815	1	4
345.157	1	-1
345.499	1	8
345.841	1	9
346.183	1	5
346.526	1	9
346.868	1	7
347.210	1	4
347.552	1	1
347.894	1	6
348.236	1	2
348.578	1	3
348.920	1	7
349.262	1	4
349.604	1	14
349.946	1	1
350.288	1	7
350.630	1	5
350.972	1	-1
351.314	1	6
351.656	1	12
351.998	1	-1
352.340	1	9
352.682	1	8
353.024	1	-5
353.366	1	14
353.708	1	11
354.050	1	4
354.392	1	11
354.734	1	-1
355.076	1	3
355.418	1	-5
355.760	1	15
356.102	1	5
356.444	1	14
356.785	1	17
357.127	1	13
357.469	1	9
357.811	1	19
358.153	1	5
358.495	1	12
358.837	1	5
359.179	1	7
359.521	1	16
359.863	1	0
360.205	1	9
360.547	1	5
360.889	1	11
361.231	1	12
361.572	1	3
361.914	1	8
362.256	1	20
362.598	1	15
362.940	1	9
363.282	1	12
363.624	1	23
363.966	1	29
364.308	1	17
364.649	1	15
364.991	1	21
365.333	1	31
365.675	1	22
366.017	1	29
366.359	1	18
366.701	1	19
367.042	1	26
367.384	1	24
367.726	1	36
368.068	1	24
368.410	1	26
368.752	1	12
369.093	1	23
369.435	1	8
369.777	1	17
370.119	1	32
370.461	1	28
370.803	1	14
371.144	1	21
371.486	1	27
371.828	1	22
372.170	1	24
372.512	1	11
372.853	1	23
373.195	1	0
373.537	1	16
373.879	1	23
374.220	1	12
374.562	1	8
374.904	1	13
375.246	1	8
375.588	1	13
375.929	1	16
376.271	1	13
376.613	1	6
376.955	1	5
377.296	1	15
377.638	1	7
377.980	1	15
378.321	1	14
378.663	1	1
379.005	1	24
379.347	1	12
379.688	1	15
380.030	1	3
380.372	1	16
380.714	1	22
381.055	1	7
381.397	1	5
381.739	1	20
382.080	1	0
382.422	1	19
382.764	1	16
383.105	1	11
383.447	1	24
383.789	1	15
384.130	1	21
384.472	1	8
384.814	1	21
385.156	1	33
385.497	1	33
385.839	1	27
386.180	1	28
386.522	1	40
386.864	1	29
387.205	1	16
387.547	1	29
387.889	1	36
388.230	1	31
388.572	1	25
388.914	1	32
389.255	1	35
389.597	1	24
389.939	1	38
390.280	1	35
390.622	1	19
390.963	1	23
391.305	1	35
391.647	1	25
391.988	1	18
392.330	1	26
392.671	1	20
393.013	1	36
393.355	1	41
393.696	1	23
394.038	1	15
394.379	1	3
394.721	1	32
395.062	1	15
395.404	1	22
395.746	1	15
396.087	1	19
396.429	1	27
396.770	1	29
397.112	1	14
397.453	1	23
397.795	1	24
398.136	1	24
398.478	1	29
398.819	1	24
399.161	1	26
399.503	1	20
399.844	1	23
400.186	1	32
400.527	1	34
400.869	1	36
401.210	1	7
401.552	1	35
401.893	1	22
402.235	1	28
402.576	1	28
402.918	1	13
403.259	1	12
403.601	1	5
403.942	1	16
404.284	1	14
404.625	1	22
404.967	1	21
405.308	1	15
405.649	1	8
405.991	1	22
406.332	1	22
406.674	1	23
407.015	1	12
407.357	1	8
407.698	1	15
408.040	1	21
408.381	1	16
408.722	1	14
409.064	1	11
409.405	1	19
409.747	1	15
410.088	1	17
410.430	1	17
410.771	1	20
411.112	1	16
411.454	1	25
411.795	1	15
412.137	1	29
412.478	1	19
412.819	1	9
413.161	1	15
413.502	1	13
413.844	1	8
414.185	1	17
414.526	1	21
414.868	1	26
415.209	1	14
415.550	1	8
415.892	1	8
416.233	1	20
416.575	1	12
416.916	1	3
417.257	1	13
417.599	1	12
417.940	1	6
418.281	1	7
418.623	1	10
418.964	1	9
419.305	1	15
419.647	1	14
419.988	1	11
420.329	1	20
420.671	1	9
421.012	1	25
421.353	1	16
421.695	1	24
422.036	1	10
422.377	1	18
422.718	1	4
423.060	1	9
423.401	1	9
423.742	1	17
424.084	1	9
424.425	1	5
424.766	1	13
425.107	1	23
425.449	1	13
425.790	1	8
426.131	1	12
426.472	1	4
426.814	1	13
427.155	1	14
427.496	1	20
427.837	1	1
428.179	1	1
428.520	1	10
428.861	1	4
429.202	1	20
429.544	1	19
429.885	1	7
430.226	1	15
430.567	1	19
430.909	1	0
431.250	1	5
431.591	1	8
431.932	1	17
432.273	1	4
432.615	1	15
432.956	1	-6
433.297	1	16
433.638	1	20
433.979	1	8
434.320	1	0
434.662	1	10
435.003	1	5
435.344	1	12
435.685	1	11
436.026	1	15
436.368	1	12
436.709	1	-2
437.050	1	13
437.391	1	13
437.732	1	16
438.073	1	4
438.414	1	16
438.756	1	16
439.097	1	17
439.438	1	22
439.779	1	0
440.120	1	12
440.461	1	2
440.802	1	16
441.143	1	20
441.485	1	7
441.826	1	-2
442.167	1	13
442.508	1	7
442.849	1	17
443.190	1	-2
443.531	1	7
443.872	1	7
444.213	1	5
444.554	1	1
444.895	1	4
445.237	1	4
445.578	1	19
445.919	1	13
446.260	1	11
446.601	1	3
446.942	1	17
447.283	1	8
447.624	1	12
447.965	1	4
448.306	1	2
448.647	1	20
448.988	1	-2
449.329	1	-1
449.670	1	10
450.011	1	6
450.352	1	8
450.693	1	15
451.034	1	14
451.375	1	15
451.716	1	12
452.057	1	15
452.398	1	14
452.739	1	6
453.080	1	16
453.421	1	7
453.762	1	10
454.103	1	10
454.444	1	13
454.785	1	-4
455.126	1	4
455.467	1	11
455.808	1	7
456.149	1	2
456.490	1	7
456.831	1	14
457.172	1	2
457.513	1	19
457.854	1	8
458.195	1	0
458.536	1	5
458.877	1	5
459.218	1	6
459.559	1	13
459.899	1	19
460.240	1	13
460.581	1	5
460.922	1	1
461.263	1	11
461.604	1	7
461.945	1	12
462.286	1	16
462.627	1	7
462.968	1	4
463.309	1	6
463.649	1	-3
463.990	1	3
464.331	1	14
464.672	1	4
465.013	1	-4
465.354	1	12
465.695	1	11
466.036	1	5
466.376	1	-3
466.717	1	-1
467.058	1	12
467.399	1	8
467.740	1	-2
468.081	1	12
468.422	1	9
468.762	1	-8
469.103	1	-2
469.444	1	4
469.785	1	9
470.126	1	14
470.467	1	10
470.807	1	8
471.148	1	-2
471.489	1	5
471.830	1	30
472.171	1	12
472.511	1	8
472.852	1	3
473.193	1	-2
473.534	1	5
473.875	1	6
474.215	1	-3
474.556	1	-6
474.897	1	13
475.238	1	3
475.578	1	-2
475.919	1	4
476.260	1	7
476.601	1	10
476.942	1	8
477.282	1	3
477.623	1	8
477.964	1	14
478.305	1	3
478.645	1	5
478.986	1	-2
479.327	1	-1
479.667	1	10
480.008	1	9
480.349	1	3
480.690	1	8
481.030	1	-2
481.371	1	-3
481.712	1	11
482.053	1	14
482.393	1	-2
482.734	1	9
483.075	1	9
483.415	1	10
483.756	1	16
484.097	1	2
484.437	1	-8
484.778	1	6
485.119	1	19
485.459	1	7
485.800	1	-6
486.141	1	-10
486.481	1	3
486.822	1	9
487.163	1	2
487.503	1	-6
487.844	1	15
488.185	1	-4
488.525	1	9
488.866	1	14
489.207	1	9
489.547	1	-2
489.888	1	9
490.228	1	-1
490.569	1	13
490.910	1	-2
491.250	1	6
491.591	1	5
491.932	1	18
492.272	1	8
492.613	1	12
492.953	1	16
493.294	1	13
493.635	1	6
493.975	1	1
494.316	1	12
494.656	1	7
494.997	1	7
495.337	1	6
495.678	1	14
496.019	1	6
496.359	1	13
496.700	1	5
497.040	1	5
497.381	1	-6
497.721	1	7
498.062	1	3
498.403	1	20
498.743	1	8
499.084	1	1
499.424	1	19
499.765	1	16
500.105	1	11
500.446	1	26
500.786	1	7
501.127	1	20
501.467	1	13
501.808	1	3
502.148	1	10
502.489	1	8
502.829	1	12
503.170	1	13
503.510	1	9
503.851	1	-5
504.191	1	18
504.532	1	-3
504.872	1	6
505.213	1	6
505.553	1	11
505.894	1	18
506.234	1	13
506.575	1	5
506.915	1	7
507.256	1	-4
507.596	1	15
507.936	1	14
508.277	1	12
508.617	1	12
508.958	1	23
509.298	1	26
509.639	1	11
509.979	1	10
510.319	1	16
510.660	1	15
511.000	1	14
511.341	1	4
511.681	1	21
512.022	1	11
512.362	1	18
512.702	1	7
513.043	1	11
513.383	1	4
513.724	1	15
514.064	1	4
514.404	1	9
514.745	1	13
515.085	1	15
515.425	1	8
515.766	1	17
516.106	1	12
516.447	1	22
516.787	1	11
517.127	1	17
517.468	1	6
517.808	1	13
518.148	1	21
518.489	1	19
518.829	1	10
519.169	1	21
519.510	1	16
519.850	1	12
520.190	1	18
520.531	1	25
520.871	1	5
521.211	1	16
521.552	1	9
521.892	1	13
522.232	1	19
522.573	1	14
522.913	1	24
523.253	1	18
523.593	1	6
523.934	1	20
524.274	1	9
524.614	1	17
524.955	1	13
525.295	1	16
525.635	1	23
525.975	1	13
526.316	1	24
526.656	1	31
526.996	1	24
527.337	1	16
527.677	1	35
528.017	1	14
528.357	1	26
528.698	1	12
529.038	1	32
529.378	1	21
529.718	1	16
530.058	1	28
530.399	1	28
530.739	1	20
531.079	1	19
531.419	1	29
531.760	1	26
532.100	1	20
532.440	1	12
532.780	1	10
533.120	1	18
533.461	1	34
533.801	1	22
534.141	1	33
534.481	1	17
534.821	1	16
535.162	1	16
535.502	1	24
535.842	1	21
536.182	1	19
536.522	1	25
536.862	1	29
537.203	1	23
537.543	1	21
537.883	1	20
538.223	1	18
538.563	1	19
538.903	1	18
539.243	1	22
539.584	1	16
539.924	1	17
540.264	1	24
540.604	1	20
540.944	1	13
541.284	1	11
541.624	1	17
541.964	1	19
542.305	1	12
542.645	1	18
542.985	1	8
543.325	1	13
543.665	1	28
544.005	1	14
544.345	1	20
544.685	1	23
545.025	1	22
545.365	1	18
545.705	1	20
546.045	1	27
546.386	1	23
546.726	1	10
547.066	1	9
547.406	1	23
547.746	1	8
548.086	1	25
548.426	1	2
548.766	1	19
549.106	1	17
549.446	1	12
549.786	1	17
550.126	1	12
550.466	1	15
550.806	1	22
551.146	1	20
551.486	1	19
551.826	1	19
552.166	1	9
552.506	1	7
552.846	1	21
553.186	1	13
553.526	1	16
553.866	1	13
554.206	1	18
554.546	1	4
554.886	1	11
555.226	1	7
555.566	1	22
555.906	1	22
556.246	1	12
556.586	1	28
556.926	1	22
557.266	1	15
557.606	1	7
557.946	1	16
558.286	1	17
558.626	1	15
558.966	1	12
559.306	1	4
559.646	1	-1
559.986	1	11
560.325	1	-5
560.665	1	18
561.005	1	18
561.345	1	16
561.685	1	15
562.025	1	3
562.365	1	9
562.705	1	23
563.045	1	21
563.385	1	7
563.725	1	14
564.064	1	12
564.404	1	9
564.744	1	15
565.084	1	12
565.424	1	13
565.764	1	22
566.104	1	2
566.444	1	18
566.783	1	3
567.123	1	29
567.463	1	11
567.803	1	0
568.143	1	5
568.483	1	4
568.823	1	22
569.162	1	11
569.502	1	7
569.842	1	18
570.182	1	9
570.522	1	9
570.862	1	22
571.201	1	14
571.541	1	9
571.881	1	11
572.221	1	13
572.561	1	-4
572.900	1	29
573.240	1	9
573.580	1	14
573.920	1	8
574.260	1	9
574.599	1	3
574.939	1	6
575.279	1	11
575.619	1	14
575.959	1	-8
576.298	1	0
576.638	1	11
576.978	1	12
577.318	1	7
577.657	1	-9
577.997	1	2
578.337	1	5
578.677	1	15
579.016	1	21
579.356	1	0
579.696	1	12
580.036	1	14
580.375	1	3
580.715	1	22
581.055	1	6
581.394	1	8
581.734	1	18
582.074	1	4
582.414	1	16
582.753	1	9
583.093	1	5
583.433	1	-5
583.772	1	16
584.112	1	4
584.452	1	4
584.791	1	5
585.131	1	-7
585.471	1	11
585.811	1	5
586.150	1	4
586.490	1	8
586.830	1	-5
587.169	1	8
587.509	1	18
587.849	1	13
588.188	1	3
588.528	1	7
588.867	1	14
589.207	1	-5
589.547	1	-1
589.886	1	-3
590.226	1	7
590.566	1	-4
590.905	1	11
591.245	1	6
591.585	1	-2
591.924	1	-1
592.264	1	0
592.603	1	7
592.943	1	-6
593.283	1	11
593.622	1	3
593.962	1	13
594.301	1	19
594.641	1	-4
594.981	1	1
595.320	1	11
595.660	1	-1
595.999	1	8
596.339	1	11
596.678	1	1
597.018	1	12
597.358	1	6
597.697	1	-4
598.037	1	6
598.376	1	8
598.716	1	-4
599.055	1	6
599.395	1	6
599.734	1	19
600.074	1	3
600.413	1	7
600.753	1	8
601.092	1	-3
601.432	1	-2
601.771	1	16
602.111	1	1
602.451	1	9
602.790	1	10
603.130	1	10
603.469	1	2
603.809	1	9
604.148	1	11
604.487	1	11
604.827	1	-2
605.166	1	2
605.506	1	4
605.845	1	7
606.185	1	12
606.524	1	1
606.864	1	0
607.203	1	17
607.543	1	-6
607.882	1	8
608.222	1	10
608.561	1	14
608.901	1	6
609.240	1	10
609.579	1	15
609.919	1	-5
610.258	1	15
610.598	1	0
610.937	1	8
611.277	1	9
611.616	1	-7
611.955	1	6
612.295	1	15
612.634	1	-1
612.974	1	21
613.313	1	13
613.652	1	-4
613.992	1	7
614.331	1	12
614.671	1	7
615.010	1	5
615.349	1	6
615.689	1	3
616.028	1	4
616.368	1	-3
616.707	1	1
617.046	1	6
617.386	1	-1
617.725	1	16
618.064	1	11
618.404	1	7
618.743	1	6
619.082	1	7
619.422	1	11
619.761	1	4
620.100	1	6
620.440	1	1
620.779	1	6
621.118	1	-2
621.458	1	12
621.797	1	4
622.136	1	12
622.476	1	4
622.815	1	9
623.154	1	-6
623.494	1	5
623.833	1	5
624.172	1	15
624.511	1	9
624.851	1	-11
625.190	1	16
625.529	1	5
625.869	1	14
626.208	1	5
626.547	1	5
626.886	1	-7
627.226	1	9
627.565	1	12
627.904	1	11
628.243	1	-7
628.583	1	3
628.922	1	0
629.261	1	10
629.600	1	12
629.940	1	15
630.279	1	0
630.618	1	9
630.957	1	4
631.297	1	0
631.636	1	6
631.975	1	2
632.314	1	16
632.653	1	-2
632.993	1	9
633.332	1	7
633.671	1	8
634.010	1	3
634.349	1	9
634.689	1	4
635.028	1	2
635.367	1	3
635.706	1	-1
636.045	1	4
636.384	1	4
636.724	1	8
637.063	1	13
637.402	1	9
637.741	1	9
638.080	1	11
638.419	1	10
638.759	1	2
639.098	1	2
639.437	1	-1
639.776	1	7
640.115	1	-3
640.454	1	15
640.793	1	6
641.132	1	8
641.472	1	-4
641.811	1	7
642.150	1	6
642.489	1	-5
642.828	1	-2
643.167	1	15
643.506	1	3
643.845	1	10
644.184	1	12
644.524	1	-13
644.863	1	-1
645.202	1	3
645.541	1	-7
645.880	1	11
646.219	1	8
646.558	1	7
646.897	1	1
647.236	1	7
647.575	1	3
647.914	1	3
648.253	1	4
648.592	1	9
648.931	1	6
649.270	1	6
649.610	1	12
649.949	1	-3
650.288	1	2
650.627	1	0
650.966	1	5
651.305	1	-2
651.644	1	-4
651.983	1	12
652.322	1	22
652.661	1	11
653.000	1	-3
653.339	1	5
653.678	1	13
654.017	1	5
654.356	1	5
654.695	1	9
655.034	1	5
655.373	1	2
655.712	1	0
656.051	1	11
656.390	1	8
656.729	1	10
657.068	1	1
657.406	1	13
657.745	1	5
658.084	1	8
658.423	1	1
658.762	1	-2
659.101	1	0
659.440	1	12
659.779	1	2
660.118	1	17
660.457	1	4
660.796	1	6
661.135	1	5
661.474	1	-1
661.813	1	16
662.152	1	8
662.491	1	2
662.829	1	1
663.168	1	9
663.507	1	5
663.846	1	10
664.185	1	0
664.524	1	3
664.863	1	3
665.202	1	-4
665.541	1	0
665.879	1	4
666.218	1	-3
666.557	1	5
666.896	1	-3
667.235	1	6
667.574	1	2
667.913	1	3
668.251	1	5
668.590	1	-2
668.929	1	14
669.268	1	5
669.607	1	-7
669.946	1	4
670.285	1	8
670.623	1	9
670.962	1	0
671.301	1	-1
671.640	1	-8
671.979	1	14
672.317	1	2
672.656	1	2
672.995	1	2
673.334	1	16
673.673	1	23
674.011	1	6
674.350	1	0
674.689	1	10
675.028	1	9
675.367	1	9
675.705	1	-6
676.044	1	-2
676.383	1	0
676.722	1	9
677.060	1	-5
677.399	1	2
677.738	1	3
678.077	1	-1
678.416	1	4
678.754	1	-8
679.093	1	11
679.432	1	-7
679.771	1	3
680.109	1	0
680.448	1	2
680.787	1	15
681.125	1	10
681.464	1	-10
681.803	1	-5
682.142	1	11
682.480	1	-3
682.819	1	10
683.158	1	11
683.496	1	-6
683.835	1	7
684.174	1	-1
684.512	1	5
684.851	1	5
685.190	1	7
685.529	1	4
685.867	1	-1
686.206	1	3
686.545	1	8
686.883	1	4
687.222	1	-1
687.561	1	11
687.899	1	-4
688.238	1	1
688.577	1	2
688.746	1	8