File: Analysis/GaN_68K_200ms/GaN_sample E_spot4_UVVIS_68 K_200um_200 ms 2x2mm1_243.txt
340.368	1	-2
340.710	1	-6
341.052	1	-2
341.394	1	9
341.737	1	5
342.079	1	2
342.421	1	-2
342.763	1	-6
343.105	1	12
343.447	1	13
343.789	1	0
344.131	1	1
344.473	1	-2
344.815	1	1
345.157	1	4
345.499	1	13
345.841	1	9
346.183	1	4
346.526	1	13
346.868	1	3
347.210	1	4
347.552	1	0
347.894	1	-3
348.236	1	1
348.578	1	8
348.920	1	12
349.262	1	5
349.604	1	14
349.946	1	11
350.288	1	2
350.630	1	-8
350.972	1	-7
351.314	1	-1
351.656	1	11
351.998	1	-2
352.340	1	3
352.682	1	-2
353.024	1	-1
353.366	1	6
353.708	1	11
354.050	1	7
354.392	1	8
354.734	1	1
355.076	1	0
355.418	1	2
355.760	1	9
356.102	1	-2
356.444	1	9
356.785	1	16
357.127	1	6
357.469	1	-3
357.811	1	19
358.153	1	10
358.495	1	5
358.837	1	8
359.179	1	3
359.521	1	-2
359.863	1	6
360.205	1	7
360.547	1	-2
360.889	1	12
361.231	1	9
361.572	1	12
361.914	1	3
362.256	1	13
362.598	1	12
362.940	1	7
363.282	1	6
363.624	1	10
363.966	1	10
364.308	1	2
364.649	1	6
364.991	1	22
365.333	1	14
365.675	1	-1
366.017	1	0
366.359	1	9
366.701	1	6
367.042	1	21
367.384	1	17
367.726	1	20
368.068	1	2
368.410	1	6
368.752	1	-1
369.093	1	7
369.435	1	13
369.777	1	6
370.119	1	9
370.461	1	5
370.803	1	0
371.144	1	11
371.486	1	13
371.828	1	14
372.170	1	15
372.512	1	3
372.853	1	10
373.195	1	4
373.537	1	11
373.879	1	15
374.220	1	4
374.562	1	13
374.904	1	12
375.246	1	5
375.588	1	12
375.929	1	5
376.271	1	4
376.613	1	2
376.955	1	-2
377.296	1	8
377.638	1	3
377.980	1	7
378.321	1	7
378.663	1	10
379.005	1	10
379.347	1	6
379.688	1	0
380.030	1	-3
380.372	1	5
380.714	1	12
381.055	1	10
381.397	1	7
381.739	1	14
382.080	1	-5
382.422	1	23
382.764	1	10
383.105	1	14
383.447	1	16
383.789	1	14
384.130	1	2
384.472	1	4
384.814	1	16
385.156	1	18
385.497	1	20
385.839	1	24
386.180	1	20
386.522	1	22
386.864	1	2
387.205	1	12
387.547	1	8
387.889	1	16
388.230	1	12
388.572	1	20
388.914	1	26
389.255	1	22
389.597	1	3
389.939	1	21
390.280	1	22
390.622	1	7
390.963	1	18
391.305	1	20
391.647	1	11
391.988	1	10
392.330	1	21
392.671	1	30
393.013	1	20
393.355	1	22
393.696	1	8
394.038	1	1
394.379	1	13
394.721	1	19
395.062	1	6
395.404	1	19
395.746	1	7
396.087	1	15
396.429	1	11
396.770	1	19
397.112	1	24
397.453	1	7
397.795	1	18
398.136	1	19
398.478	1	13
398.819	1	18
399.161	1	11
399.503	1	21
399.844	1	7
400.186	1	16
400.527	1	27
400.869	1	20
401.210	1	7
401.552	1	18
401.893	1	18
402.235	1	20
402.576	1	14
402.918	1	3
403.259	1	2
403.601	1	7
403.942	1	16
404.284	1	8
404.625	1	18
404.967	1	6
405.308	1	11
405.649	1	17
405.991	1	16
406.332	1	13
406.674	1	15
407.015	1	4
407.357	1	19
407.698	1	2
408.040	1	5
408.381	1	15
408.722	1	6
409.064	1	7
409.405	1	12
409.747	1	9
410.088	1	16
410.430	1	18
410.771	1	13
411.112	1	9
411.454	1	23
411.795	1	13
412.137	1	19
412.478	1	4
412.819	1	5
413.161	1	-2
413.502	1	-1
413.844	1	5
414.185	1	19
414.526	1	7
414.868	1	17
415.209	1	10
415.550	1	-2
415.892	1	-2
416.233	1	14
416.575	1	11
416.916	1	2
417.257	1	9
417.599	1	13
417.940	1	2
418.281	1	4
418.623	1	12
418.964	1	13
419.305	1	15
419.647	1	16
419.988	1	8
420.329	1	17
420.671	1	15
421.012	1	14
421.353	1	14
421.695	1	8
422.036	1	6
422.377	1	4
422.718	1	9
423.060	1	-1
423.401	1	19
423.742	1	3
424.084	1	3
424.425	1	7
424.766	1	7
425.107	1	7
425.449	1	11
425.790	1	13
426.131	1	13
426.472	1	-4
426.814	1	17
427.155	1	5
427.496	1	20
427.837	1	2
428.179	1	-5
428.520	1	-1
428.861	1	7
429.202	1	10
429.544	1	11
429.885	1	10
430.226	1	2
430.567	1	20
430.909	1	-1
431.250	1	5
431.591	1	11
431.932	1	8
432.273	1	-3
432.615	1	11
432.956	1	6
433.297	1	12
433.638	1	3
433.979	1	11
434.320	1	4
434.662	1	4
435.003	1	8
435.344	1	18
435.685	1	4
436.026	1	9
436.368	1	4
436.709	1	-11
437.050	1	8
437.391	1	13
437.732	1	9
438.073	1	9
438.414	1	2
438.756	1	8
439.097	1	8
439.438	1	15
439.779	1	-10
440.120	1	9
440.461	1	7
440.802	1	5
441.143	1	2
441.485	1	2
441.826	1	-2
442.167	1	5
442.508	1	4
442.849	1	13
443.190	1	-1
443.531	1	4
443.872	1	1
444.213	1	-1
444.554	1	-1
444.895	1	-3
445.237	1	6
445.578	1	7
445.919	1	4
446.260	1	17
446.601	1	0
446.942	1	9
447.283	1	3
447.624	1	11
447.965	1	1
448.306	1	4
448.647	1	12
448.988	1	-6
449.329	1	0
449.670	1	14
450.011	1	8
450.352	1	9
450.693	1	3
451.034	1	6
451.375	1	7
451.716	1	5
452.057	1	12
452.398	1	16
452.739	1	6
453.080	1	18
453.421	1	4
453.762	1	10
454.103	1	10
454.444	1	12
454.785	1	-5
455.126	1	-3
455.467	1	8
455.808	1	10
456.149	1	3
456.490	1	9
456.831	1	16
457.172	1	6
457.513	1	8
457.854	1	-1
458.195	1	2
458.536	1	15
458.877	1	8
459.218	1	12
459.559	1	4
459.899	1	11
460.240	1	4
460.581	1	11
460.922	1	-2
461.263	1	5
461.604	1	5
461.945	1	10
462.286	1	9
462.627	1	4
462.968	1	0
463.309	1	0
463.649	1	9
463.990	1	8
464.331	1	9
464.672	1	7
465.013	1	-4
465.354	1	3
465.695	1	16
466.036	1	3
466.376	1	2
466.717	1	-1
467.058	1	19
467.399	1	5
467.740	1	11
468.081	1	11
468.422	1	10
468.762	1	-9
469.103	1	-1
469.444	1	2
469.785	1	5
470.126	1	6
470.467	1	-4
470.807	1	6
471.148	1	5
471.489	1	-3
471.830	1	14
472.171	1	4
472.511	1	12
472.852	1	0
473.193	1	3
473.534	1	1
473.875	1	11
474.215	1	-7
474.556	1	-5
474.897	1	5
475.238	1	5
475.578	1	0
475.919	1	2
476.260	1	5
476.601	1	0
476.942	1	2
477.282	1	-5
477.623	1	7
477.964	1	17
478.305	1	9
478.645	1	4
478.986	1	1
479.327	1	-3
479.667	1	10
480.008	1	16
480.349	1	5
480.690	1	-9
481.030	1	0
481.371	1	9
481.712	1	12
482.053	1	6
482.393	1	0
482.734	1	3
483.075	1	9
483.415	1	5
483.756	1	8
484.097	1	-2
484.437	1	-9
484.778	1	-1
485.119	1	14
485.459	1	9
485.800	1	-4
486.141	1	1
486.481	1	1
486.822	1	5
487.163	1	-11
487.503	1	3
487.844	1	4
488.185	1	-8
488.525	1	3
488.866	1	15
489.207	1	14
489.547	1	7
489.888	1	-4
490.228	1	-2
490.569	1	6
490.910	1	8
491.250	1	5
491.591	1	12
491.932	1	11
492.272	1	6
492.613	1	8
492.953	1	5
493.294	1	14
493.635	1	-8
493.975	1	4
494.316	1	13
494.656	1	8
494.997	1	6
495.337	1	10
495.678	1	16
496.019	1	8
496.359	1	3
496.700	1	5
497.040	1	0
497.381	1	-1
497.721	1	2
498.062	1	6
498.403	1	7
498.743	1	13
499.084	1	3
499.424	1	18
499.765	1	5
500.105	1	13
500.446	1	10
500.786	1	3
501.127	1	14
501.467	1	0
501.808	1	-3
502.148	1	11
502.489	1	17
502.829	1	10
503.170	1	9
503.510	1	9
503.851	1	-3
504.191	1	15
504.532	1	-4
504.872	1	8
505.213	1	11
505.553	1	6
505.894	1	6
506.234	1	17
506.575	1	-1
506.915	1	9
507.256	1	8
507.596	1	4
507.936	1	3
508.277	1	0
508.617	1	13
508.958	1	7
509.298	1	11
509.639	1	12
509.979	1	5
510.319	1	8
510.660	1	10
511.000	1	1
511.341	1	-6
511.681	1	7
512.022	1	6
512.362	1	10
512.702	1	-4
513.043	1	12
513.383	1	0
513.724	1	12
514.064	1	13
514.404	1	12
514.745	1	10
515.085	1	1
515.425	1	12
515.766	1	16
516.106	1	-1
516.447	1	8
516.787	1	4
517.127	1	13
517.468	1	8
517.808	1	1
518.148	1	4
518.489	1	9
518.829	1	-2
519.169	1	10
519.510	1	13
519.850	1	3
520.190	1	9
520.531	1	8
520.871	1	-3
521.211	1	9
521.552	1	6
521.892	1	-3
522.232	1	1
522.573	1	14
522.913	1	16
523.253	1	8
523.593	1	-15
523.934	1	13
524.274	1	3
524.614	1	9
524.955	1	9
525.295	1	5
525.635	1	24
525.975	1	7
526.316	1	5
526.656	1	27
526.996	1	14
527.337	1	9
527.677	1	22
528.017	1	5
528.357	1	14
528.698	1	6
529.038	1	12
529.378	1	9
529.718	1	10
530.058	1	9
530.399	1	16
530.739	1	12
531.079	1	15
531.419	1	13
531.760	1	16
532.100	1	22
532.440	1	9
532.780	1	4
533.120	1	4
533.461	1	21
533.801	1	12
534.141	1	3
534.481	1	4
534.821	1	13
535.162	1	15
535.502	1	11
535.842	1	14
536.182	1	10
536.522	1	17
536.862	1	15
537.203	1	15
537.543	1	12
537.883	1	13
538.223	1	15
538.563	1	12
538.903	1	0
539.243	1	1
539.584	1	10
539.924	1	16
540.264	1	15
540.604	1	10
540.944	1	7
541.284	1	5
541.624	1	12
541.964	1	15
542.305	1	5
542.645	1	10
542.985	1	7
543.325	1	3
543.665	1	16
544.005	1	10
544.345	1	4
544.685	1	9
545.025	1	14
545.365	1	11
545.705	1	14
546.045	1	24
546.386	1	11
546.726	1	13
547.066	1	3
547.406	1	16
547.746	1	18
548.086	1	8
548.426	1	6
548.766	1	11
549.106	1	19
549.446	1	9
549.786	1	17
550.126	1	6
550.466	1	4
550.806	1	18
551.146	1	-1
551.486	1	13
551.826	1	13
552.166	1	7
552.506	1	3
552.846	1	16
553.186	1	8
553.526	1	9
553.866	1	18
554.206	1	15
554.546	1	-1
554.886	1	9
555.226	1	0
555.566	1	12
555.906	1	9
556.246	1	4
556.586	1	11
556.926	1	6
557.266	1	14
557.606	1	7
557.946	1	12
558.286	1	14
558.626	1	10
558.966	1	5
559.306	1	6
559.646	1	11
559.986	1	5
560.325	1	1
560.665	1	7
561.005	1	8
561.345	1	8
561.685	1	6
562.025	1	-3
562.365	1	14
562.705	1	11
563.045	1	10
563.385	1	0
563.725	1	5
564.064	1	9
564.404	1	2
564.744	1	4
565.084	1	1
565.424	1	8
565.764	1	10
566.104	1	8
566.444	1	14
566.783	1	3
567.123	1	14
567.463	1	3
567.803	1	-4
568.143	1	-5
568.483	1	-1
568.823	1	6
569.162	1	8
569.502	1	7
569.842	1	5
570.182	1	4
570.522	1	9
570.862	1	7
571.201	1	8
571.541	1	-11
571.881	1	6
572.221	1	7
572.561	1	-1
572.900	1	24
573.240	1	2
573.580	1	11
573.920	1	2
574.260	1	3
574.599	1	4
574.939	1	1
575.279	1	6
575.619	1	11
575.959	1	-6
576.298	1	-5
576.638	1	9
576.978	1	1
577.318	1	5
577.657	1	-11
577.997	1	-11
578.337	1	4
578.677	1	-2
579.016	1	14
579.356	1	-3
579.696	1	7
580.036	1	2
580.375	1	0
580.715	1	10
581.055	1	18
581.394	1	-5
581.734	1	12
582.074	1	1
582.414	1	8
582.753	1	8
583.093	1	7
583.433	1	-5
583.772	1	10
584.112	1	11
584.452	1	-3
584.791	1	7
585.131	1	-2
585.471	1	3
585.811	1	0
586.150	1	7
586.490	1	-2
586.830	1	-5
587.169	1	-3
587.509	1	4
587.849	1	5
588.188	1	0
588.528	1	8
588.867	1	0
589.207	1	-4
589.547	1	3
589.886	1	-5
590.226	1	10
590.566	1	-2
590.905	1	4
591.245	1	12
591.585	1	7
591.924	1	5
592.264	1	10
592.603	1	6
592.943	1	3
593.283	1	4
593.622	1	1
593.962	1	15
594.301	1	18
594.641	1	2
594.981	1	1
595.320	1	2
595.660	1	-1
595.999	1	8
596.339	1	1
596.678	1	6
597.018	1	-1
597.358	1	12
597.697	1	-13
598.037	1	-3
598.376	1	11
598.716	1	-7
599.055	1	4
599.395	1	14
599.734	1	7
600.074	1	1
600.413	1	3
600.753	1	11
601.092	1	-2
601.432	1	-3
601.771	1	12
602.111	1	-1
602.451	1	1
602.790	1	6
603.130	1	8
603.469	1	0
603.809	1	8
604.148	1	11
604.487	1	7
604.827	1	-4
605.166	1	1
605.506	1	7
605.845	1	7
606.185	1	6
606.524	1	-7
606.864	1	0
607.203	1	16
607.543	1	-1
607.882	1	6
608.222	1	8
608.561	1	10
608.901	1	7
609.240	1	6
609.579	1	0
609.919	1	-6
610.258	1	15
610.598	1	14
610.937	1	3
611.277	1	13
611.616	1	-9
611.955	1	13
612.295	1	10
612.634	1	0
612.974	1	4
613.313	1	8
613.652	1	2
613.992	1	9
614.331	1	5
614.671	1	8
615.010	1	0
615.349	1	4
615.689	1	6
616.028	1	7
616.368	1	7
616.707	1	-4
617.046	1	8
617.386	1	11
617.725	1	4
618.064	1	3
618.404	1	10
618.743	1	5
619.082	1	1
619.422	1	1
619.761	1	4
620.100	1	5
620.440	1	9
620.779	1	7
621.118	1	2
621.458	1	11
621.797	1	14
622.136	1	0
622.476	1	7
622.815	1	-6
623.154	1	0
623.494	1	-2
623.833	1	6
624.172	1	15
624.511	1	-1
624.851	1	0
625.190	1	4
625.529	1	7
625.869	1	7
626.208	1	3
626.547	1	5
626.886	1	9
627.226	1	7
627.565	1	6
627.904	1	8
628.243	1	-3
628.583	1	1
628.922	1	-1
629.261	1	7
629.600	1	4
629.940	1	14
630.279	1	-4
630.618	1	-1
630.957	1	1
631.297	1	-2
631.636	1	9
631.975	1	9
632.314	1	11
632.653	1	-2
632.993	1	10
633.332	1	6
633.671	1	11
634.010	1	2
634.349	1	1
634.689	1	15
635.028	1	3
635.367	1	-2
635.706	1	-6
636.045	1	6
636.384	1	11
636.724	1	6
637.063	1	3
637.402	1	10
637.741	1	14
638.080	1	-5
638.419	1	7
638.759	1	0
639.098	1	11
639.437	1	-6
639.776	1	6
640.115	1	3
640.454	1	18
640.793	1	9
641.132	1	11
641.472	1	-2
641.811	1	3
642.150	1	3
642.489	1	3
642.828	1	3
643.167	1	14
643.506	1	4
643.845	1	4
644.184	1	3
644.524	1	3
644.863	1	-8
645.202	1	10
645.541	1	-4
645.880	1	4
646.219	1	5
646.558	1	5
646.897	1	5
647.236	1	7
647.575	1	3
647.914	1	6
648.253	1	8
648.592	1	2
648.931	1	10
649.270	1	8
649.610	1	7
649.949	1	1
650.288	1	-3
650.627	1	-1
650.966	1	0
651.305	1	1
651.644	1	5
651.983	1	-3
652.322	1	11
652.661	1	6
653.000	1	-1
653.339	1	4
653.678	1	-1
654.017	1	-4
654.356	1	5
654.695	1	3
655.034	1	3
655.373	1	0
655.712	1	-1
656.051	1	10
656.390	1	9
656.729	1	2
657.068	1	-5
657.406	1	12
657.745	1	5
658.084	1	6
658.423	1	-2
658.762	1	-6
659.101	1	-1
659.440	1	7
659.779	1	4
660.118	1	3
660.457	1	-7
660.796	1	7
661.135	1	12
661.474	1	-2
661.813	1	10
662.152	1	-1
662.491	1	4
662.829	1	3
663.168	1	-5
663.507	1	-5
663.846	1	14
664.185	1	1
664.524	1	-11
664.863	1	6
665.202	1	-6
665.541	1	2
665.879	1	-6
666.218	1	3
666.557	1	2
666.896	1	-3
667.235	1	1
667.574	1	7
667.913	1	15
668.251	1	3
668.590	1	1
668.929	1	-4
669.268	1	8
669.607	1	-6
669.946	1	11
670.285	1	10
670.623	1	4
670.962	1	2
671.301	1	-6
671.640	1	-11
671.979	1	17
672.317	1	-3
672.656	1	7
672.995	1	8
673.334	1	10
673.673	1	13
674.011	1	14
674.350	1	-1
674.689	1	-3
675.028	1	7
675.367	1	-3
675.705	1	-9
676.044	1	-5
676.383	1	0
676.722	1	7
677.060	1	7
677.399	1	3
677.738	1	-5
678.077	1	2
678.416	1	5
678.754	1	-2
679.093	1	9
679.432	1	-1
679.771	1	3
680.109	1	4
680.448	1	-5
680.787	1	8
681.125	1	3
681.464	1	-2
681.803	1	-7
682.142	1	9
682.480	1	5
682.819	1	13
683.158	1	4
683.496	1	-5
683.835	1	-5
684.174	1	11
684.512	1	1
684.851	1	4
685.190	1	5
685.529	1	0
685.867	1	11
686.206	1	5
686.545	1	7
686.883	1	-3
687.222	1	2
687.561	1	12
687.899	1	2
688.238	1	-3
688.577	1	-2
688.746	1	6