File: Analysis/GaN_68K_200ms/GaN_sample E_spot4_UVVIS_68 K_200um_200 ms 2x2mm1_19.txt
340.368	1	-2
340.710	1	-11
341.052	1	4
341.394	1	-8
341.737	1	13
342.079	1	-7
342.421	1	-6
342.763	1	4
343.105	1	2
343.447	1	8
343.789	1	1
344.131	1	-4
344.473	1	-1
344.815	1	4
345.157	1	9
345.499	1	-3
345.841	1	2
346.183	1	-5
346.526	1	2
346.868	1	3
347.210	1	-8
347.552	1	3
347.894	1	8
348.236	1	-2
348.578	1	-1
348.920	1	9
349.262	1	3
349.604	1	14
349.946	1	7
350.288	1	-2
350.630	1	-11
350.972	1	-2
351.314	1	-4
351.656	1	7
351.998	1	4
352.340	1	-8
352.682	1	2
353.024	1	-1
353.366	1	11
353.708	1	0
354.050	1	-1
354.392	1	6
354.734	1	-1
355.076	1	8
355.418	1	-2
355.760	1	12
356.102	1	-10
356.444	1	0
356.785	1	9
357.127	1	12
357.469	1	6
357.811	1	23
358.153	1	0
358.495	1	8
358.837	1	8
359.179	1	4
359.521	1	1
359.863	1	-9
360.205	1	0
360.547	1	6
360.889	1	0
361.231	1	5
361.572	1	-4
361.914	1	6
362.256	1	5
362.598	1	3
362.940	1	5
363.282	1	-2
363.624	1	13
363.966	1	0
364.308	1	3
364.649	1	-9
364.991	1	6
365.333	1	7
365.675	1	-2
366.017	1	-3
366.359	1	2
366.701	1	-5
367.042	1	5
367.384	1	8
367.726	1	13
368.068	1	0
368.410	1	-3
368.752	1	5
369.093	1	-3
369.435	1	3
369.777	1	-6
370.119	1	-6
370.461	1	-2
370.803	1	-1
371.144	1	11
371.486	1	7
371.828	1	5
372.170	1	3
372.512	1	-7
372.853	1	4
373.195	1	-7
373.537	1	6
373.879	1	9
374.220	1	0
374.562	1	1
374.904	1	7
375.246	1	-7
375.588	1	2
375.929	1	4
376.271	1	-3
376.613	1	1
376.955	1	-7
377.296	1	0
377.638	1	-1
377.980	1	8
378.321	1	7
378.663	1	-7
379.005	1	3
379.347	1	4
379.688	1	6
380.030	1	-4
380.372	1	0
380.714	1	1
381.055	1	5
381.397	1	-2
381.739	1	5
382.080	1	-8
382.422	1	8
382.764	1	2
383.105	1	3
383.447	1	7
383.789	1	4
384.130	1	-3
384.472	1	-7
384.814	1	5
385.156	1	7
385.497	1	6
385.839	1	2
386.180	1	-8
386.522	1	6
386.864	1	-5
387.205	1	-10
387.547	1	-7
387.889	1	6
388.230	1	7
388.572	1	1
388.914	1	7
389.255	1	9
389.597	1	0
389.939	1	8
390.280	1	13
390.622	1	-8
390.963	1	14
391.305	1	9
391.647	1	3
391.988	1	-7
392.330	1	10
392.671	1	11
393.013	1	5
393.355	1	9
393.696	1	-1
394.038	1	-6
394.379	1	-3
394.721	1	6
395.062	1	1
395.404	1	6
395.746	1	-11
396.087	1	-1
396.429	1	5
396.770	1	7
397.112	1	-5
397.453	1	-11
397.795	1	8
398.136	1	0
398.478	1	-1
398.819	1	13
399.161	1	-1
399.503	1	7
399.844	1	11
400.186	1	-2
400.527	1	-1
400.869	1	16
401.210	1	-9
401.552	1	14
401.893	1	8
402.235	1	-2
402.576	1	3
402.918	1	-7
403.259	1	-10
403.601	1	-8
403.942	1	4
404.284	1	1
404.625	1	10
404.967	1	6
405.308	1	-1
405.649	1	-3
405.991	1	-1
406.332	1	3
406.674	1	-3
407.015	1	-4
407.357	1	1
407.698	1	-1
408.040	1	-3
408.381	1	4
408.722	1	-2
409.064	1	-6
409.405	1	0
409.747	1	-3
410.088	1	-5
410.430	1	3
410.771	1	4
411.112	1	-2
411.454	1	17
411.795	1	-2
412.137	1	14
412.478	1	1
412.819	1	-10
413.161	1	-5
413.502	1	4
413.844	1	-1
414.185	1	9
414.526	1	6
414.868	1	5
415.209	1	2
415.550	1	-7
415.892	1	0
416.233	1	0
416.575	1	-7
416.916	1	-1
417.257	1	5
417.599	1	9
417.940	1	-5
418.281	1	0
418.623	1	10
418.964	1	3
419.305	1	-3
419.647	1	-3
419.988	1	-6
420.329	1	-4
420.671	1	10
421.012	1	12
421.353	1	3
421.695	1	-10
422.036	1	4
422.377	1	6
422.718	1	-5
423.060	1	2
423.401	1	1
423.742	1	1
424.084	1	6
424.425	1	1
424.766	1	15
425.107	1	7
425.449	1	5
425.790	1	-6
426.131	1	-6
426.472	1	-2
426.814	1	15
427.155	1	1
427.496	1	6
427.837	1	-7
428.179	1	-1
428.520	1	4
428.861	1	0
429.202	1	9
429.544	1	-1
429.885	1	-4
430.226	1	3
430.567	1	2
430.909	1	-7
431.250	1	-3
431.591	1	6
431.932	1	13
432.273	1	-15
432.615	1	6
432.956	1	2
433.297	1	4
433.638	1	-4
433.979	1	8
434.320	1	8
434.662	1	-6
435.003	1	3
435.344	1	14
435.685	1	4
436.026	1	9
436.368	1	1
436.709	1	-4
437.050	1	7
437.391	1	-2
437.732	1	0
438.073	1	11
438.414	1	-5
438.756	1	1
439.097	1	0
439.438	1	7
439.779	1	-2
440.120	1	-4
440.461	1	-2
440.802	1	4
441.143	1	9
441.485	1	0
441.826	1	-12
442.167	1	1
442.508	1	-8
442.849	1	15
443.190	1	-7
443.531	1	2
443.872	1	0
444.213	1	-7
444.554	1	-4
444.895	1	2
445.237	1	-12
445.578	1	3
445.919	1	-3
446.260	1	8
446.601	1	-4
446.942	1	5
447.283	1	-2
447.624	1	4
447.965	1	-11
448.306	1	-6
448.647	1	17
448.988	1	-4
449.329	1	-1
449.670	1	8
450.011	1	5
450.352	1	2
450.693	1	6
451.034	1	-3
451.375	1	9
451.716	1	8
452.057	1	8
452.398	1	-4
452.739	1	6
453.080	1	2
453.421	1	6
453.762	1	1
454.103	1	0
454.444	1	15
454.785	1	2
455.126	1	-1
455.467	1	10
455.808	1	3
456.149	1	-2
456.490	1	7
456.831	1	15
457.172	1	1
457.513	1	5
457.854	1	1
458.195	1	5
458.536	1	5
458.877	1	-4
459.218	1	1
459.559	1	3
459.899	1	8
460.240	1	10
460.581	1	6
460.922	1	0
461.263	1	11
461.604	1	-1
461.945	1	3
462.286	1	7
462.627	1	2
462.968	1	-4
463.309	1	2
463.649	1	2
463.990	1	2
464.331	1	12
464.672	1	5
465.013	1	-8
465.354	1	3
465.695	1	-2
466.036	1	10
466.376	1	-12
466.717	1	-1
467.058	1	7
467.399	1	11
467.740	1	-5
468.081	1	4
468.422	1	-1
468.762	1	-3
469.103	1	1
469.444	1	5
469.785	1	8
470.126	1	-5
470.467	1	-3
470.807	1	3
471.148	1	1
471.489	1	0
471.830	1	16
472.171	1	8
472.511	1	5
472.852	1	1
473.193	1	-1
473.534	1	-3
473.875	1	5
474.215	1	3
474.556	1	-7
474.897	1	9
475.238	1	8
475.578	1	3
475.919	1	1
476.260	1	8
476.601	1	2
476.942	1	-1
477.282	1	-7
477.623	1	9
477.964	1	9
478.305	1	2
478.645	1	-11
478.986	1	3
479.327	1	-7
479.667	1	7
480.008	1	7
480.349	1	7
480.690	1	0
481.030	1	-2
481.371	1	-4
481.712	1	-2
482.053	1	9
482.393	1	-5
482.734	1	5
483.075	1	8
483.415	1	17
483.756	1	20
484.097	1	-7
484.437	1	-10
484.778	1	5
485.119	1	4
485.459	1	0
485.800	1	3
486.141	1	1
486.481	1	2
486.822	1	-4
487.163	1	-2
487.503	1	-6
487.844	1	3
488.185	1	-14
488.525	1	-5
488.866	1	5
489.207	1	10
489.547	1	-8
489.888	1	-9
490.228	1	-6
490.569	1	10
490.910	1	4
491.250	1	2
491.591	1	-6
491.932	1	8
492.272	1	3
492.613	1	7
492.953	1	7
493.294	1	6
493.635	1	10
493.975	1	2
494.316	1	11
494.656	1	0
494.997	1	3
495.337	1	4
495.678	1	12
496.019	1	-3
496.359	1	4
496.700	1	-1
497.040	1	2
497.381	1	-15
497.721	1	-2
498.062	1	6
498.403	1	8
498.743	1	4
499.084	1	-9
499.424	1	13
499.765	1	4
500.105	1	3
500.446	1	5
500.786	1	-3
501.127	1	4
501.467	1	3
501.808	1	-11
502.148	1	8
502.489	1	11
502.829	1	1
503.170	1	5
503.510	1	3
503.851	1	-12
504.191	1	2
504.532	1	-11
504.872	1	8
505.213	1	-2
505.553	1	16
505.894	1	3
506.234	1	16
506.575	1	-6
506.915	1	2
507.256	1	-7
507.596	1	0
507.936	1	6
508.277	1	0
508.617	1	6
508.958	1	9
509.298	1	8
509.639	1	2
509.979	1	2
510.319	1	3
510.660	1	2
511.000	1	6
511.341	1	-2
511.681	1	-6
512.022	1	-4
512.362	1	0
512.702	1	-14
513.043	1	5
513.383	1	-9
513.724	1	9
514.064	1	2
514.404	1	5
514.745	1	4
515.085	1	2
515.425	1	-6
515.766	1	3
516.106	1	-5
516.447	1	7
516.787	1	0
517.127	1	4
517.468	1	4
517.808	1	-3
518.148	1	3
518.489	1	6
518.829	1	-6
519.169	1	14
519.510	1	-4
519.850	1	-7
520.190	1	10
520.531	1	6
520.871	1	-12
521.211	1	-3
521.552	1	3
521.892	1	-8
522.232	1	0
522.573	1	9
522.913	1	7
523.253	1	4
523.593	1	-14
523.934	1	-1
524.274	1	-9
524.614	1	-6
524.955	1	2
525.295	1	-8
525.635	1	10
525.975	1	-4
526.316	1	1
526.656	1	13
526.996	1	14
527.337	1	1
527.677	1	14
528.017	1	-6
528.357	1	5
528.698	1	-9
529.038	1	3
529.378	1	-2
529.718	1	3
530.058	1	4
530.399	1	12
530.739	1	3
531.079	1	8
531.419	1	11
531.760	1	7
532.100	1	-1
532.440	1	3
532.780	1	3
533.120	1	-14
533.461	1	11
533.801	1	-2
534.141	1	2
534.481	1	-4
534.821	1	10
535.162	1	-2
535.502	1	-2
535.842	1	5
536.182	1	-9
536.522	1	9
536.862	1	15
537.203	1	9
537.543	1	0
537.883	1	18
538.223	1	1
538.563	1	2
538.903	1	2
539.243	1	-2
539.584	1	6
539.924	1	8
540.264	1	-1
540.604	1	7
540.944	1	0
541.284	1	-1
541.624	1	-6
541.964	1	10
542.305	1	-1
542.645	1	0
542.985	1	-5
543.325	1	-7
543.665	1	0
544.005	1	4
544.345	1	-4
544.685	1	6
545.025	1	-5
545.365	1	8
545.705	1	2
546.045	1	7
546.386	1	-1
546.726	1	-3
547.066	1	-12
547.406	1	9
547.746	1	12
548.086	1	7
548.426	1	1
548.766	1	5
549.106	1	9
549.446	1	-1
549.786	1	2
550.126	1	0
550.466	1	-9
550.806	1	4
551.146	1	4
551.486	1	10
551.826	1	5
552.166	1	0
552.506	1	-5
552.846	1	-2
553.186	1	-3
553.526	1	-2
553.866	1	-2
554.206	1	-2
554.546	1	-13
554.886	1	-2
555.226	1	-7
555.566	1	2
555.906	1	8
556.246	1	-5
556.586	1	4
556.926	1	0
557.266	1	6
557.606	1	-7
557.946	1	5
558.286	1	2
558.626	1	11
558.966	1	7
559.306	1	-8
559.646	1	5
559.986	1	-7
560.325	1	-12
560.665	1	6
561.005	1	12
561.345	1	7
561.685	1	-5
562.025	1	-2
562.365	1	5
562.705	1	11
563.045	1	-1
563.385	1	-2
563.725	1	-3
564.064	1	6
564.404	1	5
564.744	1	6
565.084	1	-3
565.424	1	6
565.764	1	4
566.104	1	-7
566.444	1	3
566.783	1	-4
567.123	1	14
567.463	1	0
567.803	1	-10
568.143	1	-1
568.483	1	-3
568.823	1	8
569.162	1	2
569.502	1	6
569.842	1	-7
570.182	1	-6
570.522	1	6
570.862	1	8
571.201	1	6
571.541	1	-13
571.881	1	7
572.221	1	6
572.561	1	-10
572.900	1	13
573.240	1	-7
573.580	1	1
573.920	1	-1
574.260	1	2
574.599	1	5
574.939	1	-3
575.279	1	7
575.619	1	7
575.959	1	-2
576.298	1	-8
576.638	1	-3
576.978	1	-5
577.318	1	10
577.657	1	-13
577.997	1	-3
578.337	1	-5
578.677	1	1
579.016	1	6
579.356	1	-3
579.696	1	3
580.036	1	-4
580.375	1	-2
580.715	1	4
581.055	1	5
581.394	1	4
581.734	1	6
582.074	1	1
582.414	1	-4
582.753	1	10
583.093	1	1
583.433	1	0
583.772	1	4
584.112	1	-5
584.452	1	-3
584.791	1	6
585.131	1	-4
585.471	1	-6
585.811	1	0
586.150	1	6
586.490	1	4
586.830	1	-13
587.169	1	-5
587.509	1	-6
587.849	1	3
588.188	1	5
588.528	1	1
588.867	1	12
589.207	1	-14
589.547	1	-1
589.886	1	2
590.226	1	8
590.566	1	5
590.905	1	1
591.245	1	6
591.585	1	-1
591.924	1	0
592.264	1	5
592.603	1	-2
592.943	1	-3
593.283	1	13
593.622	1	-1
593.962	1	1
594.301	1	10
594.641	1	-4
594.981	1	5
595.320	1	12
595.660	1	-6
595.999	1	4
596.339	1	5
596.678	1	9
597.018	1	10
597.358	1	-1
597.697	1	-11
598.037	1	4
598.376	1	1
598.716	1	-5
599.055	1	12
599.395	1	4
599.734	1	-5
600.074	1	-2
600.413	1	5
600.753	1	5
601.092	1	-14
601.432	1	-2
601.771	1	6
602.111	1	-2
602.451	1	10
602.790	1	-6
603.130	1	1
603.469	1	5
603.809	1	5
604.148	1	2
604.487	1	-2
604.827	1	-11
605.166	1	-10
605.506	1	2
605.845	1	1
606.185	1	12
606.524	1	1
606.864	1	-5
607.203	1	14
607.543	1	-8
607.882	1	0
608.222	1	1
608.561	1	16
608.901	1	-2
609.240	1	5
609.579	1	9
609.919	1	-3
610.258	1	-2
610.598	1	3
610.937	1	0
611.277	1	3
611.616	1	-2
611.955	1	8
612.295	1	-1
612.634	1	-3
612.974	1	8
613.313	1	7
613.652	1	1
613.992	1	9
614.331	1	3
614.671	1	5
615.010	1	7
615.349	1	3
615.689	1	-3
616.028	1	2
616.368	1	-6
616.707	1	0
617.046	1	4
617.386	1	5
617.725	1	-2
618.064	1	8
618.404	1	5
618.743	1	2
619.082	1	3
619.422	1	-6
619.761	1	1
620.100	1	1
620.440	1	-1
620.779	1	2
621.118	1	-5
621.458	1	2
621.797	1	2
622.136	1	1
622.476	1	13
622.815	1	7
623.154	1	8
623.494	1	-3
623.833	1	-10
624.172	1	7
624.511	1	4
624.851	1	-11
625.190	1	4
625.529	1	6
625.869	1	6
626.208	1	-4
626.547	1	-4
626.886	1	0
627.226	1	3
627.565	1	6
627.904	1	-1
628.243	1	-5
628.583	1	-9
628.922	1	6
629.261	1	8
629.600	1	10
629.940	1	7
630.279	1	-3
630.618	1	-9
630.957	1	-1
631.297	1	-4
631.636	1	4
631.975	1	11
632.314	1	5
632.653	1	-3
632.993	1	0
633.332	1	14
633.671	1	-1
634.010	1	-5
634.349	1	9
634.689	1	5
635.028	1	6
635.367	1	0
635.706	1	-13
636.045	1	2
636.384	1	1
636.724	1	-7
637.063	1	4
637.402	1	2
637.741	1	12
638.080	1	4
638.419	1	3
638.759	1	5
639.098	1	-7
639.437	1	-6
639.776	1	-4
640.115	1	0
640.454	1	16
640.793	1	1
641.132	1	11
641.472	1	-1
641.811	1	0
642.150	1	-8
642.489	1	3
642.828	1	6
643.167	1	9
643.506	1	-6
643.845	1	-4
644.184	1	4
644.524	1	-6
644.863	1	-6
645.202	1	3
645.541	1	2
645.880	1	-5
646.219	1	0
646.558	1	0
646.897	1	-2
647.236	1	6
647.575	1	10
647.914	1	5
648.253	1	4
648.592	1	0
648.931	1	3
649.270	1	16
649.610	1	17
649.949	1	2
650.288	1	-2
650.627	1	3
650.966	1	-6
651.305	1	-3
651.644	1	2
651.983	1	0
652.322	1	3
652.661	1	7
653.000	1	-6
653.339	1	4
653.678	1	1
654.017	1	1
654.356	1	2
654.695	1	7
655.034	1	2
655.373	1	5
655.712	1	0
656.051	1	-5
656.390	1	4
656.729	1	-3
657.068	1	-6
657.406	1	4
657.745	1	-2
658.084	1	9
658.423	1	-5
658.762	1	-2
659.101	1	-10
659.440	1	18
659.779	1	-4
660.118	1	-3
660.457	1	1
660.796	1	-8
661.135	1	4
661.474	1	-3
661.813	1	10
662.152	1	0
662.491	1	6
662.829	1	-1
663.168	1	-5
663.507	1	-5
663.846	1	0
664.185	1	1
664.524	1	-14
664.863	1	10
665.202	1	-6
665.541	1	2
665.879	1	-5
666.218	1	0
666.557	1	5
666.896	1	-3
667.235	1	-7
667.574	1	6
667.913	1	-5
668.251	1	12
668.590	1	4
668.929	1	-3
669.268	1	3
669.607	1	-3
669.946	1	13
670.285	1	0
670.623	1	5
670.962	1	6
671.301	1	3
671.640	1	-10
671.979	1	6
672.317	1	-7
672.656	1	2
672.995	1	5
673.334	1	7
673.673	1	14
674.011	1	5
674.350	1	-4
674.689	1	-7
675.028	1	2
675.367	1	5
675.705	1	-9
676.044	1	-14
676.383	1	-4
676.722	1	2
677.060	1	10
677.399	1	-1
677.738	1	-3
678.077	1	-4
678.416	1	-1
678.754	1	-3
679.093	1	2
679.432	1	-2
679.771	1	-6
680.109	1	11
680.448	1	10
680.787	1	-2
681.125	1	5
681.464	1	0
681.803	1	-6
682.142	1	22
682.480	1	2
682.819	1	4
683.158	1	-4
683.496	1	-1
683.835	1	7
684.174	1	-5
684.512	1	-6
684.851	1	-3
685.190	1	0
685.529	1	0
685.867	1	-10
686.206	1	-1
686.545	1	2
686.883	1	-2
687.222	1	-9
687.561	1	8
687.899	1	-1
688.238	1	4
688.577	1	-4
688.746	1	5