File: Analysis/GaN_68K_200ms/GaN_sample E_spot4_UVVIS_68 K_200um_200 ms 2x2mm1_650.txt
340.368	1	-4
340.710	1	-6
341.052	1	3
341.394	1	-9
341.737	1	2
342.079	1	-11
342.421	1	-7
342.763	1	0
343.105	1	5
343.447	1	8
343.789	1	-2
344.131	1	0
344.473	1	4
344.815	1	12
345.157	1	1
345.499	1	8
345.841	1	2
346.183	1	2
346.526	1	1
346.868	1	6
347.210	1	6
347.552	1	-1
347.894	1	-3
348.236	1	5
348.578	1	4
348.920	1	3
349.262	1	-6
349.604	1	8
349.946	1	8
350.288	1	8
350.630	1	-9
350.972	1	1
351.314	1	-5
351.656	1	3
351.998	1	-3
352.340	1	1
352.682	1	-3
353.024	1	-8
353.366	1	-2
353.708	1	2
354.050	1	-3
354.392	1	8
354.734	1	-9
355.076	1	9
355.418	1	-4
355.760	1	8
356.102	1	-3
356.444	1	-1
356.785	1	10
357.127	1	-6
357.469	1	-6
357.811	1	9
358.153	1	5
358.495	1	3
358.837	1	6
359.179	1	0
359.521	1	-3
359.863	1	-19
360.205	1	-1
360.547	1	-6
360.889	1	-3
361.231	1	3
361.572	1	5
361.914	1	-7
362.256	1	7
362.598	1	3
362.940	1	6
363.282	1	0
363.624	1	-3
363.966	1	2
364.308	1	-9
364.649	1	0
364.991	1	2
365.333	1	8
365.675	1	-1
366.017	1	1
366.359	1	4
366.701	1	-8
367.042	1	8
367.384	1	5
367.726	1	2
368.068	1	-1
368.410	1	1
368.752	1	-3
369.093	1	-4
369.435	1	-4
369.777	1	-4
370.119	1	3
370.461	1	0
370.803	1	-9
371.144	1	4
371.486	1	0
371.828	1	-8
372.170	1	10
372.512	1	-1
372.853	1	0
373.195	1	-8
373.537	1	0
373.879	1	8
374.220	1	-2
374.562	1	-3
374.904	1	-2
375.246	1	5
375.588	1	-3
375.929	1	0
376.271	1	-6
376.613	1	2
376.955	1	-8
377.296	1	-7
377.638	1	-7
377.980	1	6
378.321	1	4
378.663	1	0
379.005	1	1
379.347	1	-5
379.688	1	-5
380.030	1	-6
380.372	1	0
380.714	1	13
381.055	1	-3
381.397	1	-4
381.739	1	7
382.080	1	-3
382.422	1	8
382.764	1	-7
383.105	1	0
383.447	1	10
383.789	1	1
384.130	1	-10
384.472	1	-6
384.814	1	4
385.156	1	6
385.497	1	5
385.839	1	6
386.180	1	0
386.522	1	5
386.864	1	-8
387.205	1	-1
387.547	1	-8
387.889	1	12
388.230	1	2
388.572	1	3
388.914	1	9
389.255	1	0
389.597	1	-10
389.939	1	12
390.280	1	9
390.622	1	-1
390.963	1	4
391.305	1	4
391.647	1	8
391.988	1	-1
392.330	1	5
392.671	1	7
393.013	1	15
393.355	1	15
393.696	1	-1
394.038	1	2
394.379	1	-10
394.721	1	9
395.062	1	-8
395.404	1	-3
395.746	1	-3
396.087	1	5
396.429	1	2
396.770	1	6
397.112	1	-4
397.453	1	-12
397.795	1	11
398.136	1	0
398.478	1	2
398.819	1	8
399.161	1	0
399.503	1	-3
399.844	1	4
400.186	1	11
400.527	1	5
400.869	1	7
401.210	1	-3
401.552	1	17
401.893	1	3
402.235	1	13
402.576	1	11
402.918	1	-12
403.259	1	-9
403.601	1	-10
403.942	1	3
404.284	1	-5
404.625	1	6
404.967	1	8
405.308	1	-3
405.649	1	0
405.991	1	1
406.332	1	-6
406.674	1	1
407.015	1	-7
407.357	1	3
407.698	1	1
408.040	1	-8
408.381	1	2
408.722	1	-8
409.064	1	-4
409.405	1	7
409.747	1	-7
410.088	1	4
410.430	1	3
410.771	1	11
411.112	1	7
411.454	1	10
411.795	1	3
412.137	1	8
412.478	1	4
412.819	1	5
413.161	1	-10
413.502	1	5
413.844	1	-7
414.185	1	7
414.526	1	-1
414.868	1	0
415.209	1	-1
415.550	1	-15
415.892	1	-2
416.233	1	6
416.575	1	-3
416.916	1	-10
417.257	1	-1
417.599	1	8
417.940	1	2
418.281	1	-3
418.623	1	-7
418.964	1	3
419.305	1	2
419.647	1	8
419.988	1	-3
420.329	1	12
420.671	1	-4
421.012	1	1
421.353	1	4
421.695	1	0
422.036	1	-4
422.377	1	3
422.718	1	0
423.060	1	-2
423.401	1	-5
423.742	1	-3
424.084	1	7
424.425	1	-10
424.766	1	14
425.107	1	1
425.449	1	-3
425.790	1	0
426.131	1	5
426.472	1	3
426.814	1	7
427.155	1	2
427.496	1	9
427.837	1	0
428.179	1	5
428.520	1	-5
428.861	1	4
429.202	1	5
429.544	1	-3
429.885	1	-9
430.226	1	-8
430.567	1	13
430.909	1	-10
431.250	1	-7
431.591	1	0
431.932	1	-1
432.273	1	4
432.615	1	5
432.956	1	-2
433.297	1	8
433.638	1	0
433.979	1	-8
434.320	1	-10
434.662	1	-4
435.003	1	9
435.344	1	2
435.685	1	4
436.026	1	8
436.368	1	-7
436.709	1	-12
437.050	1	6
437.391	1	1
437.732	1	1
438.073	1	0
438.414	1	-2
438.756	1	8
439.097	1	6
439.438	1	4
439.779	1	-4
440.120	1	-5
440.461	1	-7
440.802	1	7
441.143	1	4
441.485	1	-4
441.826	1	-6
442.167	1	-11
442.508	1	2
442.849	1	8
443.190	1	-4
443.531	1	-14
443.872	1	-6
444.213	1	-3
444.554	1	-6
444.895	1	3
445.237	1	-12
445.578	1	9
445.919	1	-8
446.260	1	0
446.601	1	-3
446.942	1	-3
447.283	1	-9
447.624	1	5
447.965	1	-9
448.306	1	-4
448.647	1	9
448.988	1	-14
449.329	1	-4
449.670	1	12
450.011	1	3
450.352	1	9
450.693	1	2
451.034	1	6
451.375	1	11
451.716	1	-3
452.057	1	-1
452.398	1	2
452.739	1	-3
453.080	1	11
453.421	1	-2
453.762	1	3
454.103	1	-3
454.444	1	9
454.785	1	-8
455.126	1	-1
455.467	1	-1
455.808	1	4
456.149	1	-1
456.490	1	6
456.831	1	14
457.172	1	-4
457.513	1	9
457.854	1	-2
458.195	1	-6
458.536	1	0
458.877	1	8
459.218	1	4
459.559	1	2
459.899	1	3
460.240	1	0
460.581	1	8
460.922	1	-1
461.263	1	4
461.604	1	-3
461.945	1	9
462.286	1	13
462.627	1	-9
462.968	1	-9
463.309	1	3
463.649	1	2
463.990	1	4
464.331	1	1
464.672	1	-8
465.013	1	-5
465.354	1	3
465.695	1	9
466.036	1	5
466.376	1	-8
466.717	1	-5
467.058	1	11
467.399	1	4
467.740	1	-5
468.081	1	1
468.422	1	6
468.762	1	-3
469.103	1	-12
469.444	1	-1
469.785	1	4
470.126	1	7
470.467	1	-3
470.807	1	-5
471.148	1	-3
471.489	1	-2
471.830	1	19
472.171	1	3
472.511	1	7
472.852	1	2
473.193	1	-3
473.534	1	-3
473.875	1	11
474.215	1	0
474.556	1	-2
474.897	1	3
475.238	1	-6
475.578	1	1
475.919	1	2
476.260	1	4
476.601	1	-3
476.942	1	-7
477.282	1	-11
477.623	1	5
477.964	1	5
478.305	1	-2
478.645	1	-5
478.986	1	4
479.327	1	-5
479.667	1	-6
480.008	1	13
480.349	1	6
480.690	1	-5
481.030	1	-2
481.371	1	-5
481.712	1	-5
482.053	1	5
482.393	1	-17
482.734	1	4
483.075	1	7
483.415	1	3
483.756	1	8
484.097	1	-4
484.437	1	1
484.778	1	-3
485.119	1	11
485.459	1	-1
485.800	1	-9
486.141	1	-7
486.481	1	0
486.822	1	6
487.163	1	0
487.503	1	-10
487.844	1	-1
488.185	1	-1
488.525	1	-5
488.866	1	8
489.207	1	7
489.547	1	-7
489.888	1	-4
490.228	1	-4
490.569	1	1
490.910	1	-3
491.250	1	5
491.591	1	-13
491.932	1	17
492.272	1	7
492.613	1	6
492.953	1	-1
493.294	1	5
493.635	1	-4
493.975	1	1
494.316	1	11
494.656	1	-6
494.997	1	-9
495.337	1	-1
495.678	1	10
496.019	1	-5
496.359	1	7
496.700	1	-6
497.040	1	-5
497.381	1	-14
497.721	1	-8
498.062	1	2
498.403	1	-2
498.743	1	8
499.084	1	-8
499.424	1	2
499.765	1	0
500.105	1	0
500.446	1	9
500.786	1	-2
501.127	1	6
501.467	1	6
501.808	1	-9
502.148	1	1
502.489	1	9
502.829	1	-3
503.170	1	-2
503.510	1	3
503.851	1	-11
504.191	1	-4
504.532	1	-13
504.872	1	0
505.213	1	-6
505.553	1	3
505.894	1	1
506.234	1	4
506.575	1	-4
506.915	1	0
507.256	1	-2
507.596	1	-1
507.936	1	5
508.277	1	3
508.617	1	-5
508.958	1	12
509.298	1	-2
509.639	1	7
509.979	1	-11
510.319	1	-2
510.660	1	7
511.000	1	-4
511.341	1	-5
511.681	1	1
512.022	1	-8
512.362	1	-13
512.702	1	-3
513.043	1	-1
513.383	1	1
513.724	1	5
514.064	1	9
514.404	1	-1
514.745	1	3
515.085	1	1
515.425	1	3
515.766	1	-2
516.106	1	-1
516.447	1	0
516.787	1	-5
517.127	1	9
517.468	1	-7
517.808	1	-3
518.148	1	-1
518.489	1	-1
518.829	1	-11
519.169	1	2
519.510	1	5
519.850	1	1
520.190	1	-5
520.531	1	-2
520.871	1	-8
521.211	1	3
521.552	1	5
521.892	1	-12
522.232	1	-4
522.573	1	-2
522.913	1	5
523.253	1	-4
523.593	1	-4
523.934	1	3
524.274	1	-3
524.614	1	10
524.955	1	-2
525.295	1	-9
525.635	1	9
525.975	1	5
526.316	1	-3
526.656	1	17
526.996	1	13
527.337	1	10
527.677	1	9
528.017	1	-8
528.357	1	5
528.698	1	-6
529.038	1	7
529.378	1	0
529.718	1	-2
530.058	1	4
530.399	1	6
530.739	1	-2
531.079	1	8
531.419	1	6
531.760	1	11
532.100	1	3
532.440	1	-1
532.780	1	5
533.120	1	-11
533.461	1	12
533.801	1	6
534.141	1	-1
534.481	1	2
534.821	1	-3
535.162	1	7
535.502	1	5
535.842	1	-8
536.182	1	-8
536.522	1	10
536.862	1	5
537.203	1	3
537.543	1	-2
537.883	1	3
538.223	1	12
538.563	1	1
538.903	1	3
539.243	1	-2
539.584	1	-5
539.924	1	6
540.264	1	2
540.604	1	4
540.944	1	-5
541.284	1	2
541.624	1	1
541.964	1	7
542.305	1	-11
542.645	1	1
542.985	1	-3
543.325	1	-4
543.665	1	7
544.005	1	5
544.345	1	-8
544.685	1	8
545.025	1	6
545.365	1	-6
545.705	1	8
546.045	1	2
546.386	1	6
546.726	1	-2
547.066	1	-9
547.406	1	10
547.746	1	5
548.086	1	4
548.426	1	0
548.766	1	5
549.106	1	5
549.446	1	1
549.786	1	7
550.126	1	-5
550.466	1	4
550.806	1	8
551.146	1	1
551.486	1	6
551.826	1	2
552.166	1	0
552.506	1	-1
552.846	1	3
553.186	1	2
553.526	1	3
553.866	1	0
554.206	1	1
554.546	1	-1
554.886	1	9
555.226	1	-3
555.566	1	6
555.906	1	0
556.246	1	6
556.586	1	12
556.926	1	7
557.266	1	5
557.606	1	-15
557.946	1	9
558.286	1	1
558.626	1	7
558.966	1	4
559.306	1	0
559.646	1	-8
559.986	1	-6
560.325	1	-7
560.665	1	-1
561.005	1	-1
561.345	1	3
561.685	1	-1
562.025	1	-11
562.365	1	-2
562.705	1	4
563.045	1	4
563.385	1	-11
563.725	1	-11
564.064	1	15
564.404	1	-1
564.744	1	7
565.084	1	-16
565.424	1	3
565.764	1	2
566.104	1	-4
566.444	1	14
566.783	1	4
567.123	1	13
567.463	1	-2
567.803	1	-6
568.143	1	-8
568.483	1	-7
568.823	1	10
569.162	1	-2
569.502	1	2
569.842	1	-2
570.182	1	-1
570.522	1	3
570.862	1	-1
571.201	1	2
571.541	1	-1
571.881	1	7
572.221	1	1
572.561	1	-7
572.900	1	18
573.240	1	-11
573.580	1	-1
573.920	1	-2
574.260	1	4
574.599	1	-2
574.939	1	4
575.279	1	1
575.619	1	9
575.959	1	-3
576.298	1	-7
576.638	1	3
576.978	1	-1
577.318	1	7
577.657	1	-17
577.997	1	-12
578.337	1	6
578.677	1	0
579.016	1	7
579.356	1	-4
579.696	1	11
580.036	1	-2
580.375	1	3
580.715	1	2
581.055	1	6
581.394	1	0
581.734	1	6
582.074	1	-3
582.414	1	-1
582.753	1	5
583.093	1	-4
583.433	1	2
583.772	1	-4
584.112	1	8
584.452	1	-7
584.791	1	7
585.131	1	-1
585.471	1	-11
585.811	1	-1
586.150	1	-5
586.490	1	-1
586.830	1	-13
587.169	1	-1
587.509	1	6
587.849	1	10
588.188	1	4
588.528	1	1
588.867	1	3
589.207	1	-14
589.547	1	3
589.886	1	-3
590.226	1	7
590.566	1	-2
590.905	1	9
591.245	1	-8
591.585	1	-4
591.924	1	-10
592.264	1	1
592.603	1	-4
592.943	1	-6
593.283	1	8
593.622	1	-6
593.962	1	-2
594.301	1	3
594.641	1	0
594.981	1	-5
595.320	1	6
595.660	1	-11
595.999	1	-2
596.339	1	4
596.678	1	-5
597.018	1	5
597.358	1	0
597.697	1	1
598.037	1	-7
598.376	1	8
598.716	1	-6
599.055	1	-4
599.395	1	-1
599.734	1	4
600.074	1	-4
600.413	1	-5
600.753	1	2
601.092	1	-14
601.432	1	-6
601.771	1	6
602.111	1	-2
602.451	1	-5
602.790	1	6
603.130	1	9
603.469	1	-2
603.809	1	6
604.148	1	-1
604.487	1	-1
604.827	1	-12
605.166	1	-7
605.506	1	3
605.845	1	2
606.185	1	6
606.524	1	-2
606.864	1	-4
607.203	1	12
607.543	1	-9
607.882	1	-1
608.222	1	2
608.561	1	1
608.901	1	0
609.240	1	-2
609.579	1	-2
609.919	1	-6
610.258	1	5
610.598	1	5
610.937	1	-5
611.277	1	10
611.616	1	-6
611.955	1	0
612.295	1	8
612.634	1	-6
612.974	1	5
613.313	1	2
613.652	1	-6
613.992	1	2
614.331	1	-2
614.671	1	3
615.010	1	-2
615.349	1	2
615.689	1	-2
616.028	1	3
616.368	1	-3
616.707	1	0
617.046	1	9
617.386	1	0
617.725	1	6
618.064	1	-2
618.404	1	13
618.743	1	-8
619.082	1	-2
619.422	1	4
619.761	1	10
620.100	1	6
620.440	1	3
620.779	1	-5
621.118	1	4
621.458	1	4
621.797	1	-6
622.136	1	-3
622.476	1	2
622.815	1	-2
623.154	1	5
623.494	1	-5
623.833	1	2
624.172	1	14
624.511	1	1
624.851	1	-12
625.190	1	-8
625.529	1	10
625.869	1	4
626.208	1	-2
626.547	1	5
626.886	1	-3
627.226	1	3
627.565	1	6
627.904	1	0
628.243	1	-3
628.583	1	-2
628.922	1	-10
629.261	1	7
629.600	1	3
629.940	1	9
630.279	1	-5
630.618	1	0
630.957	1	0
631.297	1	-5
631.636	1	-4
631.975	1	15
632.314	1	4
632.653	1	-6
632.993	1	0
633.332	1	15
633.671	1	4
634.010	1	-5
634.349	1	-1
634.689	1	2
635.028	1	-2
635.367	1	-6
635.706	1	-1
636.045	1	-7
636.384	1	0
636.724	1	7
637.063	1	3
637.402	1	8
637.741	1	8
638.080	1	1
638.419	1	7
638.759	1	1
639.098	1	0
639.437	1	-2
639.776	1	5
640.115	1	7
640.454	1	3
640.793	1	6
641.132	1	7
641.472	1	-2
641.811	1	7
642.150	1	9
642.489	1	3
642.828	1	-4
643.167	1	14
643.506	1	-2
643.845	1	-3
644.184	1	5
644.524	1	-11
644.863	1	-7
645.202	1	5
645.541	1	-11
645.880	1	2
646.219	1	-5
646.558	1	7
646.897	1	1
647.236	1	-5
647.575	1	7
647.914	1	-1
648.253	1	-3
648.592	1	-4
648.931	1	8
649.270	1	6
649.610	1	7
649.949	1	2
650.288	1	-3
650.627	1	-5
650.966	1	-6
651.305	1	-8
651.644	1	-5
651.983	1	8
652.322	1	-2
652.661	1	-1
653.000	1	-10
653.339	1	11
653.678	1	-5
654.017	1	-3
654.356	1	8
654.695	1	11
655.034	1	3
655.373	1	-5
655.712	1	1
656.051	1	11
656.390	1	1
656.729	1	-2
657.068	1	-3
657.406	1	-2
657.745	1	-8
658.084	1	8
658.423	1	-4
658.762	1	-7
659.101	1	-12
659.440	1	3
659.779	1	-6
660.118	1	2
660.457	1	4
660.796	1	-6
661.135	1	-2
661.474	1	4
661.813	1	2
662.152	1	2
662.491	1	-8
662.829	1	-6
663.168	1	-7
663.507	1	2
663.846	1	10
664.185	1	8
664.524	1	-10
664.863	1	0
665.202	1	-6
665.541	1	1
665.879	1	4
666.218	1	-10
666.557	1	-6
666.896	1	-7
667.235	1	-10
667.574	1	5
667.913	1	3
668.251	1	3
668.590	1	-8
668.929	1	-9
669.268	1	4
669.607	1	-7
669.946	1	16
670.285	1	-4
670.623	1	3
670.962	1	-1
671.301	1	-5
671.640	1	-13
671.979	1	15
672.317	1	-1
672.656	1	5
672.995	1	-1
673.334	1	6
673.673	1	11
674.011	1	3
674.350	1	-2
674.689	1	2
675.028	1	1
675.367	1	-2
675.705	1	-13
676.044	1	-6
676.383	1	-3
676.722	1	-5
677.060	1	5
677.399	1	-12
677.738	1	1
678.077	1	3
678.416	1	-9
678.754	1	0
679.093	1	1
679.432	1	0
679.771	1	0
680.109	1	1
680.448	1	-9
680.787	1	2
681.125	1	0
681.464	1	-1
681.803	1	-4
682.142	1	9
682.480	1	-5
682.819	1	-3
683.158	1	8
683.496	1	6
683.835	1	-2
684.174	1	-2
684.512	1	-2
684.851	1	1
685.190	1	5
685.529	1	-1
685.867	1	-3
686.206	1	5
686.545	1	2
686.883	1	-6
687.222	1	-4
687.561	1	-2
687.899	1	-3
688.238	1	4
688.577	1	0
688.746	1	4