File: Analysis/GaN_68K_200ms/GaN_sample E_spot4_UVVIS_68 K_200um_200 ms 2x2mm1_261.txt
340.368	1	-1
340.710	1	-1
341.052	1	0
341.394	1	0
341.737	1	3
342.079	1	-5
342.421	1	-7
342.763	1	5
343.105	1	6
343.447	1	10
343.789	1	1
344.131	1	1
344.473	1	-3
344.815	1	9
345.157	1	7
345.499	1	9
345.841	1	-4
346.183	1	3
346.526	1	4
346.868	1	2
347.210	1	-4
347.552	1	-3
347.894	1	4
348.236	1	5
348.578	1	2
348.920	1	9
349.262	1	-4
349.604	1	10
349.946	1	16
350.288	1	4
350.630	1	-2
350.972	1	2
351.314	1	3
351.656	1	4
351.998	1	-2
352.340	1	-7
352.682	1	-7
353.024	1	4
353.366	1	2
353.708	1	14
354.050	1	2
354.392	1	9
354.734	1	8
355.076	1	6
355.418	1	7
355.760	1	11
356.102	1	-4
356.444	1	5
356.785	1	12
357.127	1	18
357.469	1	5
357.811	1	25
358.153	1	5
358.495	1	18
358.837	1	1
359.179	1	13
359.521	1	5
359.863	1	3
360.205	1	4
360.547	1	2
360.889	1	15
361.231	1	9
361.572	1	11
361.914	1	-1
362.256	1	12
362.598	1	12
362.940	1	6
363.282	1	13
363.624	1	6
363.966	1	12
364.308	1	2
364.649	1	8
364.991	1	17
365.333	1	20
365.675	1	9
366.017	1	9
366.359	1	12
366.701	1	-3
367.042	1	16
367.384	1	20
367.726	1	15
368.068	1	10
368.410	1	19
368.752	1	5
369.093	1	11
369.435	1	3
369.777	1	8
370.119	1	14
370.461	1	10
370.803	1	12
371.144	1	19
371.486	1	13
371.828	1	7
372.170	1	12
372.512	1	12
372.853	1	15
373.195	1	0
373.537	1	2
373.879	1	12
374.220	1	7
374.562	1	13
374.904	1	6
375.246	1	0
375.588	1	7
375.929	1	17
376.271	1	4
376.613	1	5
376.955	1	-3
377.296	1	13
377.638	1	2
377.980	1	11
378.321	1	0
378.663	1	2
379.005	1	9
379.347	1	9
379.688	1	-9
380.030	1	6
380.372	1	10
380.714	1	6
381.055	1	6
381.397	1	1
381.739	1	18
382.080	1	-3
382.422	1	14
382.764	1	8
383.105	1	17
383.447	1	19
383.789	1	10
384.130	1	-1
384.472	1	7
384.814	1	24
385.156	1	26
385.497	1	22
385.839	1	22
386.180	1	18
386.522	1	15
386.864	1	15
387.205	1	11
387.547	1	3
387.889	1	20
388.230	1	11
388.572	1	16
388.914	1	23
389.255	1	15
389.597	1	15
389.939	1	26
390.280	1	22
390.622	1	14
390.963	1	17
391.305	1	22
391.647	1	10
391.988	1	8
392.330	1	19
392.671	1	19
393.013	1	18
393.355	1	21
393.696	1	7
394.038	1	12
394.379	1	17
394.721	1	18
395.062	1	3
395.404	1	25
395.746	1	12
396.087	1	22
396.429	1	21
396.770	1	9
397.112	1	6
397.453	1	9
397.795	1	27
398.136	1	18
398.478	1	11
398.819	1	21
399.161	1	19
399.503	1	20
399.844	1	16
400.186	1	19
400.527	1	10
400.869	1	24
401.210	1	5
401.552	1	27
401.893	1	9
402.235	1	18
402.576	1	17
402.918	1	10
403.259	1	10
403.601	1	8
403.942	1	9
404.284	1	9
404.625	1	16
404.967	1	9
405.308	1	20
405.649	1	15
405.991	1	9
406.332	1	11
406.674	1	23
407.015	1	7
407.357	1	12
407.698	1	1
408.040	1	5
408.381	1	13
408.722	1	5
409.064	1	3
409.405	1	9
409.747	1	-2
410.088	1	15
410.430	1	16
410.771	1	10
411.112	1	13
411.454	1	15
411.795	1	11
412.137	1	22
412.478	1	12
412.819	1	3
413.161	1	1
413.502	1	7
413.844	1	3
414.185	1	9
414.526	1	9
414.868	1	8
415.209	1	17
415.550	1	-2
415.892	1	6
416.233	1	10
416.575	1	8
416.916	1	15
417.257	1	13
417.599	1	11
417.940	1	5
418.281	1	6
418.623	1	17
418.964	1	16
419.305	1	6
419.647	1	12
419.988	1	10
420.329	1	9
420.671	1	9
421.012	1	14
421.353	1	14
421.695	1	16
422.036	1	13
422.377	1	7
422.718	1	5
423.060	1	5
423.401	1	-1
423.742	1	6
424.084	1	10
424.425	1	4
424.766	1	9
425.107	1	2
425.449	1	14
425.790	1	6
426.131	1	6
426.472	1	5
426.814	1	6
427.155	1	8
427.496	1	15
427.837	1	4
428.179	1	1
428.520	1	-8
428.861	1	3
429.202	1	2
429.544	1	5
429.885	1	9
430.226	1	5
430.567	1	17
430.909	1	-3
431.250	1	-3
431.591	1	8
431.932	1	14
432.273	1	-1
432.615	1	8
432.956	1	-5
433.297	1	12
433.638	1	0
433.979	1	10
434.320	1	2
434.662	1	0
435.003	1	13
435.344	1	2
435.685	1	14
436.026	1	3
436.368	1	-3
436.709	1	0
437.050	1	9
437.391	1	11
437.732	1	-5
438.073	1	7
438.414	1	12
438.756	1	4
439.097	1	12
439.438	1	11
439.779	1	7
440.120	1	4
440.461	1	7
440.802	1	13
441.143	1	8
441.485	1	7
441.826	1	-2
442.167	1	9
442.508	1	-8
442.849	1	13
443.190	1	0
443.531	1	-9
443.872	1	5
444.213	1	4
444.554	1	0
444.895	1	1
445.237	1	-1
445.578	1	16
445.919	1	7
446.260	1	13
446.601	1	-4
446.942	1	11
447.283	1	3
447.624	1	7
447.965	1	-1
448.306	1	3
448.647	1	9
448.988	1	-3
449.329	1	10
449.670	1	3
450.011	1	3
450.352	1	23
450.693	1	6
451.034	1	7
451.375	1	4
451.716	1	14
452.057	1	12
452.398	1	6
452.739	1	-3
453.080	1	13
453.421	1	3
453.762	1	-1
454.103	1	6
454.444	1	9
454.785	1	2
455.126	1	3
455.467	1	8
455.808	1	1
456.149	1	3
456.490	1	7
456.831	1	23
457.172	1	6
457.513	1	10
457.854	1	2
458.195	1	-9
458.536	1	8
458.877	1	-4
459.218	1	12
459.559	1	3
459.899	1	12
460.240	1	6
460.581	1	2
460.922	1	2
461.263	1	10
461.604	1	6
461.945	1	3
462.286	1	15
462.627	1	-2
462.968	1	1
463.309	1	4
463.649	1	3
463.990	1	1
464.331	1	-3
464.672	1	2
465.013	1	-4
465.354	1	-2
465.695	1	8
466.036	1	6
466.376	1	-9
466.717	1	-11
467.058	1	14
467.399	1	10
467.740	1	4
468.081	1	4
468.422	1	0
468.762	1	-11
469.103	1	-3
469.444	1	5
469.785	1	7
470.126	1	8
470.467	1	3
470.807	1	2
471.148	1	3
471.489	1	-1
471.830	1	13
472.171	1	11
472.511	1	7
472.852	1	4
473.193	1	-5
473.534	1	6
473.875	1	7
474.215	1	-6
474.556	1	-8
474.897	1	4
475.238	1	6
475.578	1	-1
475.919	1	3
476.260	1	1
476.601	1	8
476.942	1	-8
477.282	1	-5
477.623	1	3
477.964	1	24
478.305	1	6
478.645	1	0
478.986	1	1
479.327	1	2
479.667	1	9
480.008	1	16
480.349	1	0
480.690	1	1
481.030	1	4
481.371	1	4
481.712	1	0
482.053	1	6
482.393	1	-8
482.734	1	8
483.075	1	13
483.415	1	7
483.756	1	13
484.097	1	-3
484.437	1	-6
484.778	1	7
485.119	1	2
485.459	1	10
485.800	1	0
486.141	1	3
486.481	1	8
486.822	1	4
487.163	1	-2
487.503	1	-2
487.844	1	3
488.185	1	-4
488.525	1	7
488.866	1	7
489.207	1	8
489.547	1	-3
489.888	1	4
490.228	1	7
490.569	1	13
490.910	1	7
491.250	1	5
491.591	1	-4
491.932	1	8
492.272	1	7
492.613	1	6
492.953	1	10
493.294	1	10
493.635	1	3
493.975	1	2
494.316	1	14
494.656	1	10
494.997	1	5
495.337	1	13
495.678	1	8
496.019	1	-3
496.359	1	12
496.700	1	1
497.040	1	1
497.381	1	-16
497.721	1	-1
498.062	1	6
498.403	1	9
498.743	1	9
499.084	1	-8
499.424	1	17
499.765	1	10
500.105	1	2
500.446	1	5
500.786	1	-1
501.127	1	9
501.467	1	6
501.808	1	-8
502.148	1	12
502.489	1	6
502.829	1	7
503.170	1	-2
503.510	1	9
503.851	1	-9
504.191	1	6
504.532	1	-2
504.872	1	-4
505.213	1	11
505.553	1	8
505.894	1	8
506.234	1	7
506.575	1	0
506.915	1	8
507.256	1	1
507.596	1	4
507.936	1	11
508.277	1	6
508.617	1	10
508.958	1	13
509.298	1	13
509.639	1	6
509.979	1	2
510.319	1	7
510.660	1	7
511.000	1	21
511.341	1	-1
511.681	1	10
512.022	1	0
512.362	1	12
512.702	1	2
513.043	1	13
513.383	1	13
513.724	1	14
514.064	1	9
514.404	1	18
514.745	1	3
515.085	1	15
515.425	1	10
515.766	1	9
516.106	1	6
516.447	1	16
516.787	1	3
517.127	1	13
517.468	1	11
517.808	1	4
518.148	1	12
518.489	1	9
518.829	1	4
519.169	1	20
519.510	1	6
519.850	1	5
520.190	1	12
520.531	1	14
520.871	1	1
521.211	1	17
521.552	1	19
521.892	1	8
522.232	1	0
522.573	1	10
522.913	1	14
523.253	1	11
523.593	1	1
523.934	1	8
524.274	1	0
524.614	1	8
524.955	1	11
525.295	1	3
525.635	1	24
525.975	1	4
526.316	1	13
526.656	1	28
526.996	1	22
527.337	1	5
527.677	1	15
528.017	1	-2
528.357	1	13
528.698	1	11
529.038	1	19
529.378	1	10
529.718	1	13
530.058	1	6
530.399	1	7
530.739	1	8
531.079	1	18
531.419	1	15
531.760	1	8
532.100	1	21
532.440	1	11
532.780	1	4
533.120	1	5
533.461	1	22
533.801	1	12
534.141	1	17
534.481	1	11
534.821	1	6
535.162	1	12
535.502	1	14
535.842	1	12
536.182	1	10
536.522	1	12
536.862	1	24
537.203	1	14
537.543	1	14
537.883	1	14
538.223	1	20
538.563	1	9
538.903	1	2
539.243	1	13
539.584	1	11
539.924	1	13
540.264	1	16
540.604	1	18
540.944	1	2
541.284	1	8
541.624	1	15
541.964	1	3
542.305	1	1
542.645	1	9
542.985	1	13
543.325	1	7
543.665	1	23
544.005	1	6
544.345	1	1
544.685	1	11
545.025	1	5
545.365	1	12
545.705	1	14
546.045	1	11
546.386	1	10
546.726	1	6
547.066	1	3
547.406	1	16
547.746	1	13
548.086	1	4
548.426	1	2
548.766	1	9
549.106	1	7
549.446	1	7
549.786	1	2
550.126	1	4
550.466	1	16
550.806	1	25
551.146	1	6
551.486	1	14
551.826	1	9
552.166	1	9
552.506	1	5
552.846	1	8
553.186	1	7
553.526	1	0
553.866	1	18
554.206	1	10
554.546	1	3
554.886	1	7
555.226	1	-8
555.566	1	10
555.906	1	17
556.246	1	12
556.586	1	11
556.926	1	0
557.266	1	13
557.606	1	2
557.946	1	17
558.286	1	16
558.626	1	2
558.966	1	10
559.306	1	4
559.646	1	0
559.986	1	5
560.325	1	-10
560.665	1	11
561.005	1	6
561.345	1	12
561.685	1	13
562.025	1	7
562.365	1	10
562.705	1	4
563.045	1	7
563.385	1	1
563.725	1	4
564.064	1	17
564.404	1	1
564.744	1	11
565.084	1	1
565.424	1	-5
565.764	1	12
566.104	1	-3
566.444	1	10
566.783	1	6
567.123	1	20
567.463	1	8
567.803	1	0
568.143	1	2
568.483	1	4
568.823	1	8
569.162	1	11
569.502	1	15
569.842	1	2
570.182	1	0
570.522	1	11
570.862	1	15
571.201	1	12
571.541	1	-1
571.881	1	6
572.221	1	12
572.561	1	-5
572.900	1	15
573.240	1	-2
573.580	1	10
573.920	1	5
574.260	1	11
574.599	1	0
574.939	1	-2
575.279	1	14
575.619	1	7
575.959	1	3
576.298	1	-1
576.638	1	17
576.978	1	4
577.318	1	11
577.657	1	-6
577.997	1	3
578.337	1	11
578.677	1	4
579.016	1	17
579.356	1	-6
579.696	1	7
580.036	1	3
580.375	1	0
580.715	1	10
581.055	1	9
581.394	1	-3
581.734	1	5
582.074	1	6
582.414	1	11
582.753	1	5
583.093	1	10
583.433	1	-5
583.772	1	-1
584.112	1	4
584.452	1	5
584.791	1	5
585.131	1	-10
585.471	1	-8
585.811	1	3
586.150	1	9
586.490	1	-7
586.830	1	-1
587.169	1	2
587.509	1	0
587.849	1	17
588.188	1	5
588.528	1	4
588.867	1	7
589.207	1	-8
589.547	1	2
589.886	1	-2
590.226	1	-1
590.566	1	5
590.905	1	13
591.245	1	4
591.585	1	5
591.924	1	-2
592.264	1	-2
592.603	1	3
592.943	1	4
593.283	1	7
593.622	1	-4
593.962	1	11
594.301	1	12
594.641	1	3
594.981	1	6
595.320	1	9
595.660	1	5
595.999	1	3
596.339	1	8
596.678	1	5
597.018	1	12
597.358	1	-3
597.697	1	8
598.037	1	5
598.376	1	8
598.716	1	-9
599.055	1	3
599.395	1	8
599.734	1	2
600.074	1	-1
600.413	1	7
600.753	1	11
601.092	1	9
601.432	1	1
601.771	1	11
602.111	1	9
602.451	1	-2
602.790	1	9
603.130	1	15
603.469	1	4
603.809	1	12
604.148	1	8
604.487	1	6
604.827	1	-13
605.166	1	-2
605.506	1	-2
605.845	1	1
606.185	1	5
606.524	1	2
606.864	1	4
607.203	1	3
607.543	1	-2
607.882	1	2
608.222	1	8
608.561	1	0
608.901	1	12
609.240	1	9
609.579	1	12
609.919	1	6
610.258	1	10
610.598	1	4
610.937	1	-7
611.277	1	5
611.616	1	-7
611.955	1	4
612.295	1	5
612.634	1	-8
612.974	1	6
613.313	1	9
613.652	1	2
613.992	1	9
614.331	1	-2
614.671	1	-2
615.010	1	4
615.349	1	10
615.689	1	6
616.028	1	-2
616.368	1	-3
616.707	1	3
617.046	1	4
617.386	1	-2
617.725	1	13
618.064	1	3
618.404	1	11
618.743	1	2
619.082	1	6
619.422	1	0
619.761	1	9
620.100	1	-4
620.440	1	13
620.779	1	-7
621.118	1	1
621.458	1	16
621.797	1	0
622.136	1	10
622.476	1	3
622.815	1	0
623.154	1	11
623.494	1	2
623.833	1	4
624.172	1	20
624.511	1	7
624.851	1	-3
625.190	1	4
625.529	1	8
625.869	1	9
626.208	1	-2
626.547	1	7
626.886	1	-1
627.226	1	-3
627.565	1	3
627.904	1	8
628.243	1	3
628.583	1	11
628.922	1	-3
629.261	1	2
629.600	1	7
629.940	1	16
630.279	1	2
630.618	1	3
630.957	1	0
631.297	1	-2
631.636	1	5
631.975	1	0
632.314	1	8
632.653	1	-1
632.993	1	7
633.332	1	16
633.671	1	1
634.010	1	8
634.349	1	10
634.689	1	0
635.028	1	-2
635.367	1	4
635.706	1	-8
636.045	1	4
636.384	1	4
636.724	1	8
637.063	1	9
637.402	1	4
637.741	1	4
638.080	1	1
638.419	1	7
638.759	1	11
639.098	1	6
639.437	1	-1
639.776	1	2
640.115	1	0
640.454	1	20
640.793	1	6
641.132	1	20
641.472	1	-4
641.811	1	3
642.150	1	3
642.489	1	-2
642.828	1	-2
643.167	1	14
643.506	1	1
643.845	1	1
644.184	1	12
644.524	1	-7
644.863	1	-11
645.202	1	-1
645.541	1	-9
645.880	1	5
646.219	1	0
646.558	1	6
646.897	1	0
647.236	1	7
647.575	1	9
647.914	1	1
648.253	1	-1
648.592	1	5
648.931	1	11
649.270	1	15
649.610	1	9
649.949	1	5
650.288	1	-1
650.627	1	-2
650.966	1	7
651.305	1	-2
651.644	1	-2
651.983	1	6
652.322	1	8
652.661	1	4
653.000	1	-1
653.339	1	9
653.678	1	0
654.017	1	3
654.356	1	11
654.695	1	7
655.034	1	-2
655.373	1	3
655.712	1	-3
656.051	1	13
656.390	1	8
656.729	1	6
657.068	1	-2
657.406	1	9
657.745	1	-3
658.084	1	16
658.423	1	-14
658.762	1	0
659.101	1	3
659.440	1	8
659.779	1	-6
660.118	1	6
660.457	1	-11
660.796	1	1
661.135	1	10
661.474	1	2
661.813	1	-2
662.152	1	6
662.491	1	9
662.829	1	-3
663.168	1	-4
663.507	1	-4
663.846	1	14
664.185	1	-3
664.524	1	-9
664.863	1	10
665.202	1	2
665.541	1	1
665.879	1	1
666.218	1	-2
666.557	1	-2
666.896	1	-4
667.235	1	-3
667.574	1	7
667.913	1	0
668.251	1	2
668.590	1	-5
668.929	1	3
669.268	1	1
669.607	1	-6
669.946	1	10
670.285	1	5
670.623	1	13
670.962	1	3
671.301	1	-1
671.640	1	-10
671.979	1	9
672.317	1	-3
672.656	1	5
672.995	1	2
673.334	1	12
673.673	1	16
674.011	1	5
674.350	1	-2
674.689	1	-1
675.028	1	-7
675.367	1	6
675.705	1	-6
676.044	1	1
676.383	1	6
676.722	1	0
677.060	1	-2
677.399	1	2
677.738	1	-10
678.077	1	4
678.416	1	-1
678.754	1	-3
679.093	1	11
679.432	1	1
679.771	1	-3
680.109	1	4
680.448	1	13
680.787	1	-5
681.125	1	8
681.464	1	-4
681.803	1	-7
682.142	1	14
682.480	1	9
682.819	1	-3
683.158	1	6
683.496	1	-13
683.835	1	12
684.174	1	-2
684.512	1	11
684.851	1	-6
685.190	1	5
685.529	1	7
685.867	1	4
686.206	1	2
686.545	1	0
686.883	1	-5
687.222	1	2
687.561	1	10
687.899	1	1
688.238	1	10
688.577	1	-1
688.746	1	5