File: Analysis/GaN_68K_200ms/GaN_sample E_spot4_UVVIS_68 K_200um_200 ms 2x2mm1_165.txt
340.368	1	7
340.710	1	1
341.052	1	12
341.394	1	9
341.737	1	10
342.079	1	-5
342.421	1	-3
342.763	1	1
343.105	1	16
343.447	1	3
343.789	1	6
344.131	1	6
344.473	1	2
344.815	1	2
345.157	1	14
345.499	1	10
345.841	1	14
346.183	1	1
346.526	1	21
346.868	1	6
347.210	1	-1
347.552	1	0
347.894	1	7
348.236	1	5
348.578	1	4
348.920	1	13
349.262	1	5
349.604	1	11
349.946	1	13
350.288	1	12
350.630	1	-4
350.972	1	5
351.314	1	1
351.656	1	5
351.998	1	-4
352.340	1	-1
352.682	1	4
353.024	1	-8
353.366	1	7
353.708	1	6
354.050	1	11
354.392	1	9
354.734	1	6
355.076	1	4
355.418	1	7
355.760	1	13
356.102	1	-1
356.444	1	16
356.785	1	16
357.127	1	12
357.469	1	9
357.811	1	24
358.153	1	11
358.495	1	19
358.837	1	15
359.179	1	11
359.521	1	7
359.863	1	3
360.205	1	1
360.547	1	12
360.889	1	19
361.231	1	27
361.572	1	11
361.914	1	15
362.256	1	19
362.598	1	23
362.940	1	18
363.282	1	17
363.624	1	21
363.966	1	34
364.308	1	25
364.649	1	30
364.991	1	36
365.333	1	36
365.675	1	36
366.017	1	42
366.359	1	43
366.701	1	42
367.042	1	57
367.384	1	56
367.726	1	49
368.068	1	31
368.410	1	47
368.752	1	29
369.093	1	45
369.435	1	37
369.777	1	31
370.119	1	50
370.461	1	38
370.803	1	36
371.144	1	42
371.486	1	34
371.828	1	22
372.170	1	32
372.512	1	34
372.853	1	29
373.195	1	19
373.537	1	25
373.879	1	26
374.220	1	20
374.562	1	27
374.904	1	20
375.246	1	22
375.588	1	16
375.929	1	29
376.271	1	19
376.613	1	14
376.955	1	2
377.296	1	20
377.638	1	16
377.980	1	19
378.321	1	21
378.663	1	10
379.005	1	24
379.347	1	25
379.688	1	4
380.030	1	17
380.372	1	17
380.714	1	14
381.055	1	15
381.397	1	11
381.739	1	35
382.080	1	7
382.422	1	32
382.764	1	21
383.105	1	27
383.447	1	28
383.789	1	35
384.130	1	20
384.472	1	28
384.814	1	32
385.156	1	38
385.497	1	50
385.839	1	56
386.180	1	51
386.522	1	59
386.864	1	49
387.205	1	44
387.547	1	41
387.889	1	62
388.230	1	53
388.572	1	50
388.914	1	59
389.255	1	46
389.597	1	35
389.939	1	42
390.280	1	50
390.622	1	38
390.963	1	48
391.305	1	49
391.647	1	46
391.988	1	37
392.330	1	46
392.671	1	48
393.013	1	46
393.355	1	50
393.696	1	36
394.038	1	37
394.379	1	35
394.721	1	41
395.062	1	33
395.404	1	40
395.746	1	36
396.087	1	44
396.429	1	43
396.770	1	43
397.112	1	48
397.453	1	43
397.795	1	52
398.136	1	46
398.478	1	52
398.819	1	59
399.161	1	54
399.503	1	43
399.844	1	41
400.186	1	50
400.527	1	46
400.869	1	50
401.210	1	35
401.552	1	49
401.893	1	37
402.235	1	38
402.576	1	39
402.918	1	27
403.259	1	25
403.601	1	27
403.942	1	31
404.284	1	31
404.625	1	31
404.967	1	37
405.308	1	26
405.649	1	24
405.991	1	33
406.332	1	25
406.674	1	21
407.015	1	26
407.357	1	29
407.698	1	16
408.040	1	20
408.381	1	20
408.722	1	25
409.064	1	35
409.405	1	32
409.747	1	13
410.088	1	27
410.430	1	30
410.771	1	21
411.112	1	27
411.454	1	38
411.795	1	26
412.137	1	33
412.478	1	32
412.819	1	16
413.161	1	16
413.502	1	23
413.844	1	10
414.185	1	23
414.526	1	18
414.868	1	28
415.209	1	18
415.550	1	14
415.892	1	24
416.233	1	17
416.575	1	15
416.916	1	14
417.257	1	18
417.599	1	19
417.940	1	20
418.281	1	18
418.623	1	24
418.964	1	19
419.305	1	22
419.647	1	31
419.988	1	18
420.329	1	30
420.671	1	13
421.012	1	35
421.353	1	23
421.695	1	25
422.036	1	8
422.377	1	23
422.718	1	18
423.060	1	15
423.401	1	17
423.742	1	17
424.084	1	17
424.425	1	11
424.766	1	17
425.107	1	20
425.449	1	15
425.790	1	11
426.131	1	17
426.472	1	15
426.814	1	18
427.155	1	13
427.496	1	23
427.837	1	14
428.179	1	8
428.520	1	17
428.861	1	13
429.202	1	16
429.544	1	6
429.885	1	9
430.226	1	-2
430.567	1	26
430.909	1	8
431.250	1	2
431.591	1	19
431.932	1	13
432.273	1	11
432.615	1	12
432.956	1	11
433.297	1	23
433.638	1	7
433.979	1	21
434.320	1	3
434.662	1	11
435.003	1	12
435.344	1	17
435.685	1	21
436.026	1	14
436.368	1	10
436.709	1	7
437.050	1	15
437.391	1	18
437.732	1	18
438.073	1	16
438.414	1	5
438.756	1	18
439.097	1	19
439.438	1	20
439.779	1	10
440.120	1	9
440.461	1	8
440.802	1	13
441.143	1	17
441.485	1	12
441.826	1	-4
442.167	1	10
442.508	1	23
442.849	1	22
443.190	1	4
443.531	1	10
443.872	1	5
444.213	1	6
444.554	1	9
444.895	1	10
445.237	1	-2
445.578	1	18
445.919	1	8
446.260	1	10
446.601	1	1
446.942	1	8
447.283	1	14
447.624	1	20
447.965	1	5
448.306	1	12
448.647	1	19
448.988	1	2
449.329	1	14
449.670	1	15
450.011	1	14
450.352	1	8
450.693	1	9
451.034	1	10
451.375	1	10
451.716	1	7
452.057	1	6
452.398	1	15
452.739	1	3
453.080	1	17
453.421	1	7
453.762	1	19
454.103	1	10
454.444	1	20
454.785	1	9
455.126	1	4
455.467	1	12
455.808	1	5
456.149	1	1
456.490	1	13
456.831	1	14
457.172	1	9
457.513	1	15
457.854	1	9
458.195	1	-3
458.536	1	18
458.877	1	4
459.218	1	9
459.559	1	11
459.899	1	17
460.240	1	11
460.581	1	9
460.922	1	10
461.263	1	11
461.604	1	-1
461.945	1	23
462.286	1	9
462.627	1	3
462.968	1	13
463.309	1	2
463.649	1	5
463.990	1	4
464.331	1	20
464.672	1	-2
465.013	1	-7
465.354	1	15
465.695	1	11
466.036	1	5
466.376	1	4
466.717	1	-6
467.058	1	19
467.399	1	6
467.740	1	13
468.081	1	7
468.422	1	13
468.762	1	2
469.103	1	7
469.444	1	3
469.785	1	5
470.126	1	7
470.467	1	-7
470.807	1	9
471.148	1	4
471.489	1	-2
471.830	1	20
472.171	1	6
472.511	1	23
472.852	1	2
473.193	1	3
473.534	1	8
473.875	1	8
474.215	1	0
474.556	1	-4
474.897	1	6
475.238	1	9
475.578	1	8
475.919	1	2
476.260	1	4
476.601	1	6
476.942	1	12
477.282	1	-1
477.623	1	8
477.964	1	10
478.305	1	19
478.645	1	8
478.986	1	7
479.327	1	0
479.667	1	14
480.008	1	7
480.349	1	5
480.690	1	3
481.030	1	2
481.371	1	7
481.712	1	7
482.053	1	5
482.393	1	-5
482.734	1	11
483.075	1	11
483.415	1	9
483.756	1	19
484.097	1	4
484.437	1	-10
484.778	1	9
485.119	1	13
485.459	1	16
485.800	1	0
486.141	1	-1
486.481	1	7
486.822	1	12
487.163	1	4
487.503	1	0
487.844	1	16
488.185	1	-1
488.525	1	1
488.866	1	18
489.207	1	16
489.547	1	-1
489.888	1	13
490.228	1	2
490.569	1	19
490.910	1	0
491.250	1	15
491.591	1	1
491.932	1	14
492.272	1	10
492.613	1	5
492.953	1	6
493.294	1	9
493.635	1	8
493.975	1	16
494.316	1	23
494.656	1	9
494.997	1	9
495.337	1	24
495.678	1	24
496.019	1	6
496.359	1	7
496.700	1	8
497.040	1	5
497.381	1	-3
497.721	1	14
498.062	1	6
498.403	1	14
498.743	1	17
499.084	1	-3
499.424	1	27
499.765	1	10
500.105	1	22
500.446	1	13
500.786	1	22
501.127	1	14
501.467	1	17
501.808	1	11
502.148	1	22
502.489	1	20
502.829	1	15
503.170	1	23
503.510	1	17
503.851	1	12
504.191	1	9
504.532	1	7
504.872	1	13
505.213	1	19
505.553	1	19
505.894	1	26
506.234	1	20
506.575	1	9
506.915	1	16
507.256	1	12
507.596	1	26
507.936	1	29
508.277	1	24
508.617	1	20
508.958	1	29
509.298	1	31
509.639	1	21
509.979	1	18
510.319	1	10
510.660	1	23
511.000	1	29
511.341	1	22
511.681	1	24
512.022	1	20
512.362	1	18
512.702	1	14
513.043	1	28
513.383	1	21
513.724	1	35
514.064	1	23
514.404	1	23
514.745	1	27
515.085	1	27
515.425	1	9
515.766	1	24
516.106	1	17
516.447	1	32
516.787	1	20
517.127	1	37
517.468	1	22
517.808	1	35
518.148	1	38
518.489	1	22
518.829	1	21
519.169	1	49
519.510	1	32
519.850	1	25
520.190	1	25
520.531	1	31
520.871	1	21
521.211	1	29
521.552	1	29
521.892	1	33
522.232	1	17
522.573	1	39
522.913	1	35
523.253	1	29
523.593	1	18
523.934	1	38
524.274	1	33
524.614	1	35
524.955	1	31
525.295	1	32
525.635	1	54
525.975	1	33
526.316	1	33
526.656	1	49
526.996	1	36
527.337	1	42
527.677	1	43
528.017	1	26
528.357	1	44
528.698	1	34
529.038	1	34
529.378	1	39
529.718	1	35
530.058	1	35
530.399	1	44
530.739	1	31
531.079	1	51
531.419	1	48
531.760	1	41
532.100	1	48
532.440	1	35
532.780	1	39
533.120	1	28
533.461	1	58
533.801	1	32
534.141	1	36
534.481	1	28
534.821	1	38
535.162	1	31
535.502	1	30
535.842	1	37
536.182	1	28
536.522	1	36
536.862	1	38
537.203	1	39
537.543	1	30
537.883	1	38
538.223	1	48
538.563	1	26
538.903	1	27
539.243	1	28
539.584	1	28
539.924	1	39
540.264	1	33
540.604	1	28
540.944	1	25
541.284	1	23
541.624	1	32
541.964	1	36
542.305	1	23
542.645	1	25
542.985	1	26
543.325	1	35
543.665	1	37
544.005	1	18
544.345	1	14
544.685	1	36
545.025	1	26
545.365	1	45
545.705	1	31
546.045	1	35
546.386	1	29
546.726	1	31
547.066	1	18
547.406	1	38
547.746	1	32
548.086	1	38
548.426	1	24
548.766	1	26
549.106	1	41
549.446	1	25
549.786	1	25
550.126	1	23
550.466	1	37
550.806	1	27
551.146	1	34
551.486	1	32
551.826	1	38
552.166	1	24
552.506	1	12
552.846	1	28
553.186	1	27
553.526	1	17
553.866	1	31
554.206	1	28
554.546	1	17
554.886	1	23
555.226	1	24
555.566	1	27
555.906	1	24
556.246	1	31
556.586	1	26
556.926	1	19
557.266	1	30
557.606	1	19
557.946	1	25
558.286	1	25
558.626	1	17
558.966	1	27
559.306	1	17
559.646	1	15
559.986	1	15
560.325	1	13
560.665	1	21
561.005	1	25
561.345	1	21
561.685	1	23
562.025	1	12
562.365	1	11
562.705	1	23
563.045	1	28
563.385	1	19
563.725	1	19
564.064	1	24
564.404	1	15
564.744	1	18
565.084	1	16
565.424	1	12
565.764	1	21
566.104	1	18
566.444	1	27
566.783	1	22
567.123	1	36
567.463	1	13
567.803	1	13
568.143	1	12
568.483	1	7
568.823	1	17
569.162	1	19
569.502	1	19
569.842	1	10
570.182	1	13
570.522	1	20
570.862	1	25
571.201	1	16
571.541	1	8
571.881	1	21
572.221	1	23
572.561	1	12
572.900	1	25
573.240	1	25
573.580	1	20
573.920	1	4
574.260	1	12
574.599	1	16
574.939	1	8
575.279	1	15
575.619	1	22
575.959	1	15
576.298	1	4
576.638	1	18
576.978	1	11
577.318	1	16
577.657	1	-8
577.997	1	0
578.337	1	8
578.677	1	11
579.016	1	17
579.356	1	8
579.696	1	12
580.036	1	4
580.375	1	11
580.715	1	19
581.055	1	13
581.394	1	8
581.734	1	14
582.074	1	5
582.414	1	17
582.753	1	20
583.093	1	8
583.433	1	9
583.772	1	7
584.112	1	18
584.452	1	12
584.791	1	10
585.131	1	7
585.471	1	9
585.811	1	11
586.150	1	19
586.490	1	0
586.830	1	2
587.169	1	8
587.509	1	14
587.849	1	17
588.188	1	11
588.528	1	14
588.867	1	15
589.207	1	6
589.547	1	7
589.886	1	-7
590.226	1	12
590.566	1	7
590.905	1	13
591.245	1	4
591.585	1	5
591.924	1	11
592.264	1	17
592.603	1	3
592.943	1	0
593.283	1	17
593.622	1	6
593.962	1	13
594.301	1	21
594.641	1	5
594.981	1	2
595.320	1	11
595.660	1	-5
595.999	1	8
596.339	1	13
596.678	1	4
597.018	1	13
597.358	1	5
597.697	1	1
598.037	1	9
598.376	1	13
598.716	1	5
599.055	1	8
599.395	1	13
599.734	1	2
600.074	1	9
600.413	1	4
600.753	1	16
601.092	1	-7
601.432	1	6
601.771	1	15
602.111	1	-2
602.451	1	15
602.790	1	11
603.130	1	17
603.469	1	8
603.809	1	8
604.148	1	8
604.487	1	11
604.827	1	-2
605.166	1	4
605.506	1	11
605.845	1	7
606.185	1	-1
606.524	1	11
606.864	1	8
607.203	1	13
607.543	1	-2
607.882	1	7
608.222	1	9
608.561	1	14
608.901	1	3
609.240	1	12
609.579	1	13
609.919	1	4
610.258	1	10
610.598	1	7
610.937	1	8
611.277	1	7
611.616	1	-2
611.955	1	11
612.295	1	12
612.634	1	2
612.974	1	5
613.313	1	15
613.652	1	8
613.992	1	11
614.331	1	7
614.671	1	10
615.010	1	5
615.349	1	4
615.689	1	7
616.028	1	0
616.368	1	5
616.707	1	8
617.046	1	16
617.386	1	2
617.725	1	13
618.064	1	5
618.404	1	7
618.743	1	2
619.082	1	9
619.422	1	1
619.761	1	11
620.100	1	5
620.440	1	6
620.779	1	-1
621.118	1	7
621.458	1	9
621.797	1	6
622.136	1	4
622.476	1	6
622.815	1	7
623.154	1	11
623.494	1	13
623.833	1	2
624.172	1	15
624.511	1	1
624.851	1	1
625.190	1	5
625.529	1	6
625.869	1	11
626.208	1	0
626.547	1	0
626.886	1	1
627.226	1	2
627.565	1	6
627.904	1	7
628.243	1	6
628.583	1	5
628.922	1	1
629.261	1	17
629.600	1	9
629.940	1	11
630.279	1	-9
630.618	1	2
630.957	1	-4
631.297	1	0
631.636	1	11
631.975	1	15
632.314	1	10
632.653	1	-4
632.993	1	7
633.332	1	9
633.671	1	7
634.010	1	7
634.349	1	1
634.689	1	17
635.028	1	9
635.367	1	1
635.706	1	1
636.045	1	2
636.384	1	9
636.724	1	5
637.063	1	4
637.402	1	21
637.741	1	11
638.080	1	9
638.419	1	10
638.759	1	7
639.098	1	3
639.437	1	-3
639.776	1	3
640.115	1	2
640.454	1	13
640.793	1	13
641.132	1	16
641.472	1	-6
641.811	1	4
642.150	1	3
642.489	1	0
642.828	1	1
643.167	1	18
643.506	1	-4
643.845	1	5
644.184	1	12
644.524	1	0
644.863	1	0
645.202	1	1
645.541	1	-5
645.880	1	9
646.219	1	11
646.558	1	-3
646.897	1	2
647.236	1	7
647.575	1	4
647.914	1	7
648.253	1	12
648.592	1	12
648.931	1	10
649.270	1	24
649.610	1	18
649.949	1	5
650.288	1	2
650.627	1	7
650.966	1	-2
651.305	1	-1
651.644	1	7
651.983	1	-2
652.322	1	19
652.661	1	11
653.000	1	0
653.339	1	7
653.678	1	-2
654.017	1	-1
654.356	1	17
654.695	1	6
655.034	1	10
655.373	1	9
655.712	1	1
656.051	1	10
656.390	1	3
656.729	1	2
657.068	1	0
657.406	1	4
657.745	1	1
658.084	1	22
658.423	1	2
658.762	1	2
659.101	1	14
659.440	1	8
659.779	1	4
660.118	1	14
660.457	1	0
660.796	1	3
661.135	1	9
661.474	1	8
661.813	1	1
662.152	1	6
662.491	1	8
662.829	1	4
663.168	1	5
663.507	1	3
663.846	1	13
664.185	1	-1
664.524	1	2
664.863	1	3
665.202	1	-3
665.541	1	2
665.879	1	-3
666.218	1	2
666.557	1	10
666.896	1	9
667.235	1	5
667.574	1	5
667.913	1	10
668.251	1	4
668.590	1	19
668.929	1	-3
669.268	1	2
669.607	1	0
669.946	1	17
670.285	1	7
670.623	1	7
670.962	1	4
671.301	1	-2
671.640	1	-8
671.979	1	14
672.317	1	3
672.656	1	6
672.995	1	7
673.334	1	7
673.673	1	21
674.011	1	17
674.350	1	-6
674.689	1	-1
675.028	1	1
675.367	1	5
675.705	1	0
676.044	1	2
676.383	1	4
676.722	1	3
677.060	1	10
677.399	1	5
677.738	1	3
678.077	1	11
678.416	1	2
678.754	1	0
679.093	1	6
679.432	1	3
679.771	1	3
680.109	1	-1
680.448	1	5
680.787	1	14
681.125	1	8
681.464	1	6
681.803	1	-12
682.142	1	16
682.480	1	-6
682.819	1	5
683.158	1	5
683.496	1	-6
683.835	1	3
684.174	1	2
684.512	1	10
684.851	1	-3
685.190	1	11
685.529	1	2
685.867	1	2
686.206	1	12
686.545	1	16
686.883	1	1
687.222	1	2
687.561	1	2
687.899	1	10
688.238	1	5
688.577	1	-3
688.746	1	-2