File: Analysis/GaN_68K_200ms/GaN_sample E_spot4_UVVIS_68 K_200um_200 ms 2x2mm1_196.txt
340.368	1	2
340.710	1	-6
341.052	1	6
341.394	1	-6
341.737	1	3
342.079	1	-5
342.421	1	-8
342.763	1	0
343.105	1	13
343.447	1	4
343.789	1	0
344.131	1	-6
344.473	1	14
344.815	1	6
345.157	1	7
345.499	1	8
345.841	1	2
346.183	1	0
346.526	1	8
346.868	1	-3
347.210	1	2
347.552	1	12
347.894	1	6
348.236	1	19
348.578	1	4
348.920	1	19
349.262	1	4
349.604	1	8
349.946	1	13
350.288	1	1
350.630	1	2
350.972	1	2
351.314	1	10
351.656	1	8
351.998	1	3
352.340	1	4
352.682	1	3
353.024	1	5
353.366	1	14
353.708	1	13
354.050	1	2
354.392	1	16
354.734	1	4
355.076	1	6
355.418	1	4
355.760	1	5
356.102	1	4
356.444	1	10
356.785	1	9
357.127	1	5
357.469	1	0
357.811	1	24
358.153	1	14
358.495	1	11
358.837	1	5
359.179	1	8
359.521	1	9
359.863	1	2
360.205	1	8
360.547	1	2
360.889	1	14
361.231	1	6
361.572	1	9
361.914	1	-5
362.256	1	24
362.598	1	5
362.940	1	8
363.282	1	8
363.624	1	10
363.966	1	9
364.308	1	15
364.649	1	16
364.991	1	25
365.333	1	18
365.675	1	17
366.017	1	27
366.359	1	18
366.701	1	17
367.042	1	31
367.384	1	18
367.726	1	23
368.068	1	15
368.410	1	17
368.752	1	7
369.093	1	15
369.435	1	16
369.777	1	16
370.119	1	16
370.461	1	16
370.803	1	11
371.144	1	22
371.486	1	25
371.828	1	7
372.170	1	18
372.512	1	11
372.853	1	12
373.195	1	11
373.537	1	5
373.879	1	18
374.220	1	10
374.562	1	14
374.904	1	13
375.246	1	15
375.588	1	11
375.929	1	10
376.271	1	3
376.613	1	5
376.955	1	7
377.296	1	15
377.638	1	14
377.980	1	9
378.321	1	12
378.663	1	11
379.005	1	20
379.347	1	17
379.688	1	8
380.030	1	3
380.372	1	15
380.714	1	17
381.055	1	21
381.397	1	-1
381.739	1	14
382.080	1	-4
382.422	1	23
382.764	1	17
383.105	1	18
383.447	1	22
383.789	1	13
384.130	1	-1
384.472	1	6
384.814	1	22
385.156	1	28
385.497	1	27
385.839	1	22
386.180	1	21
386.522	1	16
386.864	1	14
387.205	1	19
387.547	1	20
387.889	1	33
388.230	1	25
388.572	1	27
388.914	1	21
389.255	1	24
389.597	1	14
389.939	1	31
390.280	1	21
390.622	1	21
390.963	1	15
391.305	1	29
391.647	1	17
391.988	1	9
392.330	1	26
392.671	1	23
393.013	1	21
393.355	1	25
393.696	1	24
394.038	1	13
394.379	1	9
394.721	1	21
395.062	1	9
395.404	1	28
395.746	1	13
396.087	1	14
396.429	1	19
396.770	1	39
397.112	1	17
397.453	1	8
397.795	1	23
398.136	1	30
398.478	1	18
398.819	1	34
399.161	1	28
399.503	1	16
399.844	1	12
400.186	1	24
400.527	1	19
400.869	1	26
401.210	1	23
401.552	1	23
401.893	1	16
402.235	1	10
402.576	1	30
402.918	1	8
403.259	1	13
403.601	1	5
403.942	1	14
404.284	1	25
404.625	1	13
404.967	1	23
405.308	1	11
405.649	1	15
405.991	1	27
406.332	1	13
406.674	1	20
407.015	1	2
407.357	1	17
407.698	1	14
408.040	1	8
408.381	1	12
408.722	1	11
409.064	1	12
409.405	1	16
409.747	1	2
410.088	1	16
410.430	1	19
410.771	1	19
411.112	1	21
411.454	1	16
411.795	1	17
412.137	1	18
412.478	1	19
412.819	1	18
413.161	1	13
413.502	1	15
413.844	1	9
414.185	1	13
414.526	1	16
414.868	1	25
415.209	1	12
415.550	1	9
415.892	1	13
416.233	1	15
416.575	1	13
416.916	1	11
417.257	1	19
417.599	1	22
417.940	1	11
418.281	1	11
418.623	1	11
418.964	1	18
419.305	1	20
419.647	1	21
419.988	1	14
420.329	1	11
420.671	1	18
421.012	1	19
421.353	1	18
421.695	1	9
422.036	1	6
422.377	1	7
422.718	1	9
423.060	1	17
423.401	1	15
423.742	1	10
424.084	1	14
424.425	1	16
424.766	1	13
425.107	1	7
425.449	1	13
425.790	1	13
426.131	1	9
426.472	1	8
426.814	1	12
427.155	1	7
427.496	1	19
427.837	1	5
428.179	1	2
428.520	1	0
428.861	1	8
429.202	1	14
429.544	1	10
429.885	1	5
430.226	1	4
430.567	1	24
430.909	1	0
431.250	1	-1
431.591	1	12
431.932	1	7
432.273	1	9
432.615	1	19
432.956	1	9
433.297	1	11
433.638	1	3
433.979	1	7
434.320	1	9
434.662	1	6
435.003	1	10
435.344	1	11
435.685	1	16
436.026	1	14
436.368	1	5
436.709	1	7
437.050	1	16
437.391	1	7
437.732	1	8
438.073	1	17
438.414	1	14
438.756	1	12
439.097	1	9
439.438	1	10
439.779	1	6
440.120	1	6
440.461	1	1
440.802	1	8
441.143	1	13
441.485	1	0
441.826	1	3
442.167	1	6
442.508	1	2
442.849	1	9
443.190	1	-7
443.531	1	4
443.872	1	9
444.213	1	0
444.554	1	3
444.895	1	4
445.237	1	7
445.578	1	17
445.919	1	0
446.260	1	15
446.601	1	7
446.942	1	12
447.283	1	-3
447.624	1	15
447.965	1	2
448.306	1	16
448.647	1	16
448.988	1	-3
449.329	1	-1
449.670	1	10
450.011	1	10
450.352	1	18
450.693	1	4
451.034	1	6
451.375	1	7
451.716	1	10
452.057	1	10
452.398	1	6
452.739	1	3
453.080	1	17
453.421	1	9
453.762	1	18
454.103	1	6
454.444	1	10
454.785	1	-1
455.126	1	10
455.467	1	10
455.808	1	5
456.149	1	-7
456.490	1	3
456.831	1	18
457.172	1	11
457.513	1	7
457.854	1	2
458.195	1	-2
458.536	1	-3
458.877	1	12
459.218	1	4
459.559	1	1
459.899	1	11
460.240	1	0
460.581	1	9
460.922	1	8
461.263	1	2
461.604	1	3
461.945	1	7
462.286	1	10
462.627	1	6
462.968	1	1
463.309	1	9
463.649	1	7
463.990	1	3
464.331	1	-2
464.672	1	13
465.013	1	1
465.354	1	13
465.695	1	11
466.036	1	0
466.376	1	-2
466.717	1	-4
467.058	1	15
467.399	1	7
467.740	1	7
468.081	1	6
468.422	1	10
468.762	1	-4
469.103	1	-2
469.444	1	5
469.785	1	7
470.126	1	-1
470.467	1	9
470.807	1	-1
471.148	1	7
471.489	1	6
471.830	1	21
472.171	1	13
472.511	1	14
472.852	1	6
473.193	1	8
473.534	1	3
473.875	1	4
474.215	1	5
474.556	1	-6
474.897	1	5
475.238	1	6
475.578	1	4
475.919	1	2
476.260	1	2
476.601	1	5
476.942	1	-3
477.282	1	-4
477.623	1	8
477.964	1	15
478.305	1	3
478.645	1	3
478.986	1	5
479.327	1	1
479.667	1	12
480.008	1	10
480.349	1	2
480.690	1	6
481.030	1	-5
481.371	1	4
481.712	1	13
482.053	1	17
482.393	1	-2
482.734	1	5
483.075	1	1
483.415	1	14
483.756	1	13
484.097	1	-4
484.437	1	-14
484.778	1	2
485.119	1	8
485.459	1	14
485.800	1	3
486.141	1	-11
486.481	1	9
486.822	1	11
487.163	1	3
487.503	1	-6
487.844	1	5
488.185	1	-14
488.525	1	2
488.866	1	19
489.207	1	5
489.547	1	1
489.888	1	2
490.228	1	-1
490.569	1	7
490.910	1	1
491.250	1	-2
491.591	1	-2
491.932	1	14
492.272	1	18
492.613	1	12
492.953	1	8
493.294	1	11
493.635	1	7
493.975	1	7
494.316	1	13
494.656	1	12
494.997	1	15
495.337	1	10
495.678	1	21
496.019	1	0
496.359	1	12
496.700	1	12
497.040	1	4
497.381	1	-6
497.721	1	-3
498.062	1	3
498.403	1	14
498.743	1	11
499.084	1	0
499.424	1	27
499.765	1	10
500.105	1	16
500.446	1	14
500.786	1	16
501.127	1	17
501.467	1	11
501.808	1	-1
502.148	1	9
502.489	1	12
502.829	1	5
503.170	1	9
503.510	1	7
503.851	1	-2
504.191	1	12
504.532	1	3
504.872	1	3
505.213	1	12
505.553	1	14
505.894	1	19
506.234	1	19
506.575	1	6
506.915	1	9
507.256	1	0
507.596	1	20
507.936	1	10
508.277	1	4
508.617	1	22
508.958	1	26
509.298	1	19
509.639	1	14
509.979	1	1
510.319	1	9
510.660	1	14
511.000	1	23
511.341	1	9
511.681	1	14
512.022	1	2
512.362	1	14
512.702	1	4
513.043	1	18
513.383	1	5
513.724	1	19
514.064	1	23
514.404	1	13
514.745	1	8
515.085	1	14
515.425	1	12
515.766	1	7
516.106	1	8
516.447	1	13
516.787	1	13
517.127	1	10
517.468	1	10
517.808	1	11
518.148	1	8
518.489	1	15
518.829	1	5
519.169	1	20
519.510	1	15
519.850	1	7
520.190	1	14
520.531	1	21
520.871	1	12
521.211	1	19
521.552	1	23
521.892	1	5
522.232	1	5
522.573	1	22
522.913	1	31
523.253	1	13
523.593	1	14
523.934	1	13
524.274	1	4
524.614	1	13
524.955	1	16
525.295	1	9
525.635	1	29
525.975	1	9
526.316	1	12
526.656	1	22
526.996	1	15
527.337	1	12
527.677	1	28
528.017	1	11
528.357	1	19
528.698	1	11
529.038	1	20
529.378	1	15
529.718	1	18
530.058	1	23
530.399	1	27
530.739	1	18
531.079	1	21
531.419	1	28
531.760	1	29
532.100	1	19
532.440	1	16
532.780	1	14
533.120	1	0
533.461	1	23
533.801	1	21
534.141	1	17
534.481	1	11
534.821	1	25
535.162	1	22
535.502	1	16
535.842	1	16
536.182	1	11
536.522	1	19
536.862	1	23
537.203	1	22
537.543	1	17
537.883	1	14
538.223	1	15
538.563	1	21
538.903	1	14
539.243	1	19
539.584	1	17
539.924	1	19
540.264	1	27
540.604	1	24
540.944	1	2
541.284	1	13
541.624	1	14
541.964	1	12
542.305	1	4
542.645	1	10
542.985	1	11
543.325	1	18
543.665	1	23
544.005	1	17
544.345	1	10
544.685	1	8
545.025	1	9
545.365	1	16
545.705	1	16
546.045	1	26
546.386	1	4
546.726	1	22
547.066	1	2
547.406	1	16
547.746	1	14
548.086	1	14
548.426	1	12
548.766	1	22
549.106	1	23
549.446	1	14
549.786	1	18
550.126	1	13
550.466	1	10
550.806	1	19
551.146	1	9
551.486	1	19
551.826	1	14
552.166	1	9
552.506	1	13
552.846	1	15
553.186	1	16
553.526	1	10
553.866	1	16
554.206	1	21
554.546	1	7
554.886	1	6
555.226	1	2
555.566	1	13
555.906	1	11
556.246	1	12
556.586	1	18
556.926	1	9
557.266	1	26
557.606	1	3
557.946	1	8
558.286	1	20
558.626	1	16
558.966	1	14
559.306	1	1
559.646	1	8
559.986	1	10
560.325	1	2
560.665	1	23
561.005	1	11
561.345	1	7
561.685	1	10
562.025	1	8
562.365	1	13
562.705	1	19
563.045	1	10
563.385	1	8
563.725	1	3
564.064	1	11
564.404	1	12
564.744	1	16
565.084	1	6
565.424	1	5
565.764	1	21
566.104	1	5
566.444	1	13
566.783	1	10
567.123	1	14
567.463	1	7
567.803	1	-1
568.143	1	-4
568.483	1	3
568.823	1	18
569.162	1	13
569.502	1	9
569.842	1	7
570.182	1	9
570.522	1	11
570.862	1	13
571.201	1	15
571.541	1	1
571.881	1	19
572.221	1	15
572.561	1	5
572.900	1	14
573.240	1	-4
573.580	1	18
573.920	1	8
574.260	1	1
574.599	1	6
574.939	1	3
575.279	1	5
575.619	1	7
575.959	1	-3
576.298	1	-2
576.638	1	14
576.978	1	16
577.318	1	9
577.657	1	-12
577.997	1	-5
578.337	1	1
578.677	1	9
579.016	1	14
579.356	1	13
579.696	1	9
580.036	1	5
580.375	1	0
580.715	1	13
581.055	1	7
581.394	1	-3
581.734	1	10
582.074	1	1
582.414	1	13
582.753	1	15
583.093	1	6
583.433	1	-5
583.772	1	7
584.112	1	10
584.452	1	3
584.791	1	8
585.131	1	-11
585.471	1	5
585.811	1	7
586.150	1	-1
586.490	1	12
586.830	1	-3
587.169	1	4
587.509	1	10
587.849	1	12
588.188	1	9
588.528	1	10
588.867	1	15
589.207	1	-8
589.547	1	3
589.886	1	1
590.226	1	7
590.566	1	2
590.905	1	8
591.245	1	7
591.585	1	3
591.924	1	3
592.264	1	2
592.603	1	6
592.943	1	2
593.283	1	15
593.622	1	6
593.962	1	1
594.301	1	15
594.641	1	1
594.981	1	1
595.320	1	11
595.660	1	6
595.999	1	8
596.339	1	15
596.678	1	14
597.018	1	8
597.358	1	5
597.697	1	-2
598.037	1	8
598.376	1	8
598.716	1	-3
599.055	1	7
599.395	1	6
599.734	1	2
600.074	1	2
600.413	1	9
600.753	1	10
601.092	1	-8
601.432	1	-3
601.771	1	18
602.111	1	4
602.451	1	13
602.790	1	6
603.130	1	15
603.469	1	1
603.809	1	6
604.148	1	10
604.487	1	7
604.827	1	-2
605.166	1	1
605.506	1	10
605.845	1	12
606.185	1	3
606.524	1	0
606.864	1	-1
607.203	1	9
607.543	1	-4
607.882	1	-4
608.222	1	8
608.561	1	6
608.901	1	17
609.240	1	5
609.579	1	5
609.919	1	2
610.258	1	11
610.598	1	7
610.937	1	-1
611.277	1	8
611.616	1	-11
611.955	1	12
612.295	1	19
612.634	1	0
612.974	1	3
613.313	1	6
613.652	1	-5
613.992	1	2
614.331	1	8
614.671	1	10
615.010	1	7
615.349	1	9
615.689	1	3
616.028	1	1
616.368	1	2
616.707	1	1
617.046	1	7
617.386	1	-3
617.725	1	5
618.064	1	8
618.404	1	16
618.743	1	-1
619.082	1	5
619.422	1	7
619.761	1	14
620.100	1	10
620.440	1	12
620.779	1	4
621.118	1	-2
621.458	1	15
621.797	1	2
622.136	1	11
622.476	1	8
622.815	1	5
623.154	1	3
623.494	1	6
623.833	1	0
624.172	1	19
624.511	1	2
624.851	1	0
625.190	1	8
625.529	1	11
625.869	1	8
626.208	1	5
626.547	1	6
626.886	1	3
627.226	1	5
627.565	1	10
627.904	1	5
628.243	1	-1
628.583	1	0
628.922	1	3
629.261	1	14
629.600	1	8
629.940	1	12
630.279	1	-4
630.618	1	3
630.957	1	-1
631.297	1	-4
631.636	1	5
631.975	1	12
632.314	1	14
632.653	1	-5
632.993	1	6
633.332	1	4
633.671	1	3
634.010	1	1
634.349	1	7
634.689	1	3
635.028	1	-1
635.367	1	7
635.706	1	7
636.045	1	1
636.384	1	5
636.724	1	12
637.063	1	10
637.402	1	6
637.741	1	11
638.080	1	2
638.419	1	3
638.759	1	7
639.098	1	13
639.437	1	-9
639.776	1	3
640.115	1	0
640.454	1	12
640.793	1	2
641.132	1	10
641.472	1	-1
641.811	1	6
642.150	1	1
642.489	1	10
642.828	1	13
643.167	1	14
643.506	1	-9
643.845	1	2
644.184	1	4
644.524	1	-3
644.863	1	-8
645.202	1	0
645.541	1	-13
645.880	1	-7
646.219	1	4
646.558	1	4
646.897	1	8
647.236	1	7
647.575	1	10
647.914	1	0
648.253	1	10
648.592	1	0
648.931	1	6
649.270	1	15
649.610	1	13
649.949	1	8
650.288	1	-6
650.627	1	1
650.966	1	8
651.305	1	-2
651.644	1	-4
651.983	1	5
652.322	1	9
652.661	1	-3
653.000	1	5
653.339	1	6
653.678	1	5
654.017	1	3
654.356	1	1
654.695	1	6
655.034	1	0
655.373	1	-2
655.712	1	3
656.051	1	12
656.390	1	-1
656.729	1	6
657.068	1	5
657.406	1	1
657.745	1	2
658.084	1	4
658.423	1	-4
658.762	1	0
659.101	1	0
659.440	1	10
659.779	1	7
660.118	1	7
660.457	1	1
660.796	1	-2
661.135	1	4
661.474	1	6
661.813	1	4
662.152	1	-1
662.491	1	2
662.829	1	1
663.168	1	-4
663.507	1	-2
663.846	1	11
664.185	1	6
664.524	1	-4
664.863	1	1
665.202	1	-4
665.541	1	1
665.879	1	4
666.218	1	-5
666.557	1	8
666.896	1	3
667.235	1	1
667.574	1	9
667.913	1	3
668.251	1	8
668.590	1	4
668.929	1	0
669.268	1	14
669.607	1	-4
669.946	1	11
670.285	1	8
670.623	1	6
670.962	1	0
671.301	1	-1
671.640	1	-7
671.979	1	15
672.317	1	-3
672.656	1	4
672.995	1	6
673.334	1	12
673.673	1	11
674.011	1	6
674.350	1	6
674.689	1	-8
675.028	1	8
675.367	1	8
675.705	1	4
676.044	1	-3
676.383	1	-2
676.722	1	6
677.060	1	15
677.399	1	3
677.738	1	6
678.077	1	1
678.416	1	7
678.754	1	1
679.093	1	1
679.432	1	0
679.771	1	5
680.109	1	14
680.448	1	2
680.787	1	3
681.125	1	6
681.464	1	4
681.803	1	-14
682.142	1	10
682.480	1	-2
682.819	1	7
683.158	1	1
683.496	1	-3
683.835	1	8
684.174	1	5
684.512	1	1
684.851	1	-4
685.190	1	8
685.529	1	13
685.867	1	0
686.206	1	11
686.545	1	15
686.883	1	-4
687.222	1	1
687.561	1	2
687.899	1	-4
688.238	1	9
688.577	1	3
688.746	1	9