File: Analysis/GaN_68K_200ms/GaN_sample E_spot4_UVVIS_68 K_200um_200 ms 2x2mm1_398.txt
340.368	1	3
340.710	1	-6
341.052	1	5
341.394	1	-1
341.737	1	9
342.079	1	3
342.421	1	-6
342.763	1	1
343.105	1	7
343.447	1	-2
343.789	1	1
344.131	1	-4
344.473	1	3
344.815	1	7
345.157	1	5
345.499	1	4
345.841	1	0
346.183	1	0
346.526	1	7
346.868	1	-8
347.210	1	2
347.552	1	4
347.894	1	1
348.236	1	-2
348.578	1	7
348.920	1	8
349.262	1	5
349.604	1	12
349.946	1	13
350.288	1	4
350.630	1	-8
350.972	1	-2
351.314	1	-5
351.656	1	4
351.998	1	6
352.340	1	2
352.682	1	1
353.024	1	-1
353.366	1	5
353.708	1	6
354.050	1	5
354.392	1	1
354.734	1	7
355.076	1	6
355.418	1	9
355.760	1	-1
356.102	1	5
356.444	1	7
356.785	1	14
357.127	1	7
357.469	1	-2
357.811	1	13
358.153	1	10
358.495	1	12
358.837	1	0
359.179	1	-3
359.521	1	0
359.863	1	-4
360.205	1	3
360.547	1	4
360.889	1	-3
361.231	1	-2
361.572	1	0
361.914	1	2
362.256	1	6
362.598	1	1
362.940	1	9
363.282	1	7
363.624	1	2
363.966	1	8
364.308	1	-4
364.649	1	-5
364.991	1	6
365.333	1	13
365.675	1	5
366.017	1	12
366.359	1	1
366.701	1	-7
367.042	1	21
367.384	1	4
367.726	1	20
368.068	1	3
368.410	1	2
368.752	1	-3
369.093	1	9
369.435	1	4
369.777	1	-2
370.119	1	6
370.461	1	5
370.803	1	-7
371.144	1	13
371.486	1	11
371.828	1	1
372.170	1	14
372.512	1	-7
372.853	1	11
373.195	1	-6
373.537	1	3
373.879	1	11
374.220	1	2
374.562	1	-6
374.904	1	7
375.246	1	5
375.588	1	2
375.929	1	4
376.271	1	-2
376.613	1	2
376.955	1	0
377.296	1	16
377.638	1	1
377.980	1	6
378.321	1	3
378.663	1	5
379.005	1	17
379.347	1	1
379.688	1	-5
380.030	1	-5
380.372	1	2
380.714	1	2
381.055	1	9
381.397	1	0
381.739	1	6
382.080	1	-6
382.422	1	5
382.764	1	-1
383.105	1	-4
383.447	1	14
383.789	1	1
384.130	1	3
384.472	1	-1
384.814	1	9
385.156	1	16
385.497	1	20
385.839	1	5
386.180	1	5
386.522	1	7
386.864	1	-9
387.205	1	11
387.547	1	2
387.889	1	14
388.230	1	12
388.572	1	3
388.914	1	14
389.255	1	17
389.597	1	5
389.939	1	17
390.280	1	16
390.622	1	1
390.963	1	11
391.305	1	10
391.647	1	12
391.988	1	9
392.330	1	14
392.671	1	9
393.013	1	19
393.355	1	22
393.696	1	3
394.038	1	2
394.379	1	-3
394.721	1	8
395.062	1	-5
395.404	1	14
395.746	1	-3
396.087	1	4
396.429	1	9
396.770	1	10
397.112	1	-4
397.453	1	-4
397.795	1	13
398.136	1	14
398.478	1	0
398.819	1	11
399.161	1	2
399.503	1	4
399.844	1	5
400.186	1	3
400.527	1	-1
400.869	1	9
401.210	1	-8
401.552	1	19
401.893	1	13
402.235	1	8
402.576	1	17
402.918	1	1
403.259	1	-7
403.601	1	2
403.942	1	2
404.284	1	2
404.625	1	9
404.967	1	7
405.308	1	7
405.649	1	12
405.991	1	2
406.332	1	6
406.674	1	6
407.015	1	2
407.357	1	-2
407.698	1	-7
408.040	1	-5
408.381	1	2
408.722	1	5
409.064	1	8
409.405	1	4
409.747	1	-6
410.088	1	6
410.430	1	16
410.771	1	16
411.112	1	8
411.454	1	13
411.795	1	4
412.137	1	9
412.478	1	3
412.819	1	5
413.161	1	2
413.502	1	8
413.844	1	2
414.185	1	11
414.526	1	4
414.868	1	18
415.209	1	2
415.550	1	3
415.892	1	-1
416.233	1	10
416.575	1	7
416.916	1	5
417.257	1	-4
417.599	1	-1
417.940	1	0
418.281	1	5
418.623	1	0
418.964	1	1
419.305	1	-1
419.647	1	4
419.988	1	2
420.329	1	8
420.671	1	10
421.012	1	8
421.353	1	1
421.695	1	4
422.036	1	5
422.377	1	3
422.718	1	5
423.060	1	-1
423.401	1	10
423.742	1	-4
424.084	1	-1
424.425	1	13
424.766	1	6
425.107	1	4
425.449	1	2
425.790	1	0
426.131	1	1
426.472	1	1
426.814	1	4
427.155	1	0
427.496	1	6
427.837	1	-5
428.179	1	-5
428.520	1	1
428.861	1	2
429.202	1	9
429.544	1	15
429.885	1	6
430.226	1	1
430.567	1	3
430.909	1	-10
431.250	1	-16
431.591	1	11
431.932	1	3
432.273	1	3
432.615	1	6
432.956	1	-1
433.297	1	4
433.638	1	4
433.979	1	2
434.320	1	6
434.662	1	-7
435.003	1	9
435.344	1	8
435.685	1	15
436.026	1	8
436.368	1	-9
436.709	1	-1
437.050	1	2
437.391	1	3
437.732	1	7
438.073	1	8
438.414	1	1
438.756	1	12
439.097	1	16
439.438	1	3
439.779	1	-8
440.120	1	0
440.461	1	-4
440.802	1	4
441.143	1	3
441.485	1	4
441.826	1	-7
442.167	1	7
442.508	1	-4
442.849	1	8
443.190	1	-4
443.531	1	1
443.872	1	0
444.213	1	3
444.554	1	-4
444.895	1	-1
445.237	1	0
445.578	1	17
445.919	1	-1
446.260	1	5
446.601	1	-7
446.942	1	5
447.283	1	-1
447.624	1	5
447.965	1	-8
448.306	1	8
448.647	1	12
448.988	1	-12
449.329	1	11
449.670	1	12
450.011	1	10
450.352	1	7
450.693	1	0
451.034	1	-3
451.375	1	13
451.716	1	4
452.057	1	11
452.398	1	9
452.739	1	5
453.080	1	20
453.421	1	-5
453.762	1	7
454.103	1	-1
454.444	1	12
454.785	1	5
455.126	1	-1
455.467	1	4
455.808	1	-3
456.149	1	0
456.490	1	-6
456.831	1	10
457.172	1	4
457.513	1	4
457.854	1	5
458.195	1	-5
458.536	1	10
458.877	1	6
459.218	1	-3
459.559	1	0
459.899	1	9
460.240	1	1
460.581	1	3
460.922	1	4
461.263	1	6
461.604	1	1
461.945	1	1
462.286	1	5
462.627	1	3
462.968	1	-3
463.309	1	3
463.649	1	9
463.990	1	5
464.331	1	0
464.672	1	0
465.013	1	-7
465.354	1	14
465.695	1	0
466.036	1	10
466.376	1	1
466.717	1	-5
467.058	1	7
467.399	1	3
467.740	1	-8
468.081	1	4
468.422	1	6
468.762	1	-10
469.103	1	4
469.444	1	-2
469.785	1	10
470.126	1	10
470.467	1	-12
470.807	1	2
471.148	1	-8
471.489	1	6
471.830	1	7
472.171	1	-5
472.511	1	8
472.852	1	-3
473.193	1	-13
473.534	1	2
473.875	1	7
474.215	1	-2
474.556	1	1
474.897	1	9
475.238	1	3
475.578	1	-2
475.919	1	4
476.260	1	-5
476.601	1	4
476.942	1	7
477.282	1	-8
477.623	1	6
477.964	1	5
478.305	1	7
478.645	1	-3
478.986	1	6
479.327	1	-9
479.667	1	6
480.008	1	10
480.349	1	0
480.690	1	1
481.030	1	-4
481.371	1	1
481.712	1	3
482.053	1	7
482.393	1	0
482.734	1	2
483.075	1	7
483.415	1	1
483.756	1	9
484.097	1	-14
484.437	1	-10
484.778	1	1
485.119	1	2
485.459	1	16
485.800	1	-5
486.141	1	4
486.481	1	1
486.822	1	4
487.163	1	-4
487.503	1	-11
487.844	1	4
488.185	1	-4
488.525	1	-4
488.866	1	9
489.207	1	9
489.547	1	-5
489.888	1	-4
490.228	1	-11
490.569	1	13
490.910	1	-1
491.250	1	-4
491.591	1	-13
491.932	1	3
492.272	1	12
492.613	1	7
492.953	1	5
493.294	1	5
493.635	1	-5
493.975	1	5
494.316	1	4
494.656	1	8
494.997	1	-1
495.337	1	6
495.678	1	9
496.019	1	-5
496.359	1	3
496.700	1	-6
497.040	1	2
497.381	1	-17
497.721	1	3
498.062	1	6
498.403	1	4
498.743	1	14
499.084	1	-9
499.424	1	7
499.765	1	5
500.105	1	10
500.446	1	1
500.786	1	5
501.127	1	6
501.467	1	-1
501.808	1	-13
502.148	1	5
502.489	1	8
502.829	1	-1
503.170	1	4
503.510	1	-6
503.851	1	-5
504.191	1	5
504.532	1	-12
504.872	1	2
505.213	1	7
505.553	1	13
505.894	1	4
506.234	1	11
506.575	1	8
506.915	1	7
507.256	1	-2
507.596	1	2
507.936	1	2
508.277	1	4
508.617	1	15
508.958	1	13
509.298	1	11
509.639	1	6
509.979	1	2
510.319	1	-1
510.660	1	5
511.000	1	6
511.341	1	-4
511.681	1	3
512.022	1	-12
512.362	1	3
512.702	1	-3
513.043	1	6
513.383	1	-4
513.724	1	13
514.064	1	3
514.404	1	9
514.745	1	-6
515.085	1	2
515.425	1	-2
515.766	1	7
516.106	1	1
516.447	1	-5
516.787	1	-10
517.127	1	8
517.468	1	0
517.808	1	8
518.148	1	1
518.489	1	7
518.829	1	-3
519.169	1	6
519.510	1	0
519.850	1	2
520.190	1	7
520.531	1	4
520.871	1	-3
521.211	1	4
521.552	1	12
521.892	1	-7
522.232	1	-9
522.573	1	3
522.913	1	3
523.253	1	8
523.593	1	-5
523.934	1	6
524.274	1	-6
524.614	1	4
524.955	1	4
525.295	1	-5
525.635	1	15
525.975	1	0
526.316	1	0
526.656	1	20
526.996	1	17
527.337	1	0
527.677	1	14
528.017	1	-7
528.357	1	8
528.698	1	4
529.038	1	12
529.378	1	8
529.718	1	6
530.058	1	6
530.399	1	26
530.739	1	-5
531.079	1	15
531.419	1	16
531.760	1	8
532.100	1	-1
532.440	1	1
532.780	1	-2
533.120	1	0
533.461	1	15
533.801	1	1
534.141	1	3
534.481	1	1
534.821	1	9
535.162	1	8
535.502	1	19
535.842	1	3
536.182	1	-10
536.522	1	7
536.862	1	11
537.203	1	5
537.543	1	11
537.883	1	7
538.223	1	2
538.563	1	5
538.903	1	1
539.243	1	8
539.584	1	4
539.924	1	8
540.264	1	13
540.604	1	2
540.944	1	-3
541.284	1	5
541.624	1	-1
541.964	1	9
542.305	1	-2
542.645	1	8
542.985	1	9
543.325	1	6
543.665	1	10
544.005	1	0
544.345	1	-3
544.685	1	9
545.025	1	4
545.365	1	9
545.705	1	12
546.045	1	6
546.386	1	5
546.726	1	-5
547.066	1	-11
547.406	1	17
547.746	1	11
548.086	1	8
548.426	1	0
548.766	1	17
549.106	1	9
549.446	1	1
549.786	1	3
550.126	1	-6
550.466	1	-6
550.806	1	9
551.146	1	1
551.486	1	9
551.826	1	10
552.166	1	-2
552.506	1	0
552.846	1	21
553.186	1	1
553.526	1	-2
553.866	1	2
554.206	1	8
554.546	1	-1
554.886	1	7
555.226	1	-6
555.566	1	4
555.906	1	8
556.246	1	-7
556.586	1	7
556.926	1	4
557.266	1	3
557.606	1	-11
557.946	1	8
558.286	1	5
558.626	1	12
558.966	1	3
559.306	1	-5
559.646	1	-2
559.986	1	2
560.325	1	-10
560.665	1	11
561.005	1	-2
561.345	1	3
561.685	1	5
562.025	1	4
562.365	1	-3
562.705	1	3
563.045	1	8
563.385	1	-3
563.725	1	6
564.064	1	6
564.404	1	-4
564.744	1	6
565.084	1	-4
565.424	1	2
565.764	1	12
566.104	1	-7
566.444	1	16
566.783	1	1
567.123	1	20
567.463	1	0
567.803	1	-8
568.143	1	-8
568.483	1	-8
568.823	1	14
569.162	1	1
569.502	1	3
569.842	1	1
570.182	1	-7
570.522	1	4
570.862	1	5
571.201	1	8
571.541	1	-8
571.881	1	9
572.221	1	10
572.561	1	-5
572.900	1	14
573.240	1	-6
573.580	1	6
573.920	1	11
574.260	1	-3
574.599	1	-4
574.939	1	0
575.279	1	0
575.619	1	2
575.959	1	3
576.298	1	-7
576.638	1	1
576.978	1	11
577.318	1	11
577.657	1	-9
577.997	1	1
578.337	1	-2
578.677	1	2
579.016	1	20
579.356	1	3
579.696	1	0
580.036	1	-10
580.375	1	-2
580.715	1	4
581.055	1	-1
581.394	1	-6
581.734	1	-3
582.074	1	-9
582.414	1	1
582.753	1	5
583.093	1	3
583.433	1	-7
583.772	1	-3
584.112	1	4
584.452	1	3
584.791	1	1
585.131	1	-2
585.471	1	0
585.811	1	-7
586.150	1	1
586.490	1	-1
586.830	1	-11
587.169	1	2
587.509	1	2
587.849	1	10
588.188	1	6
588.528	1	10
588.867	1	3
589.207	1	-8
589.547	1	-4
589.886	1	1
590.226	1	-1
590.566	1	10
590.905	1	-2
591.245	1	1
591.585	1	8
591.924	1	8
592.264	1	2
592.603	1	-6
592.943	1	2
593.283	1	6
593.622	1	-5
593.962	1	14
594.301	1	18
594.641	1	-4
594.981	1	-1
595.320	1	7
595.660	1	-8
595.999	1	1
596.339	1	4
596.678	1	1
597.018	1	4
597.358	1	1
597.697	1	-1
598.037	1	8
598.376	1	10
598.716	1	-10
599.055	1	7
599.395	1	11
599.734	1	4
600.074	1	-4
600.413	1	8
600.753	1	-7
601.092	1	-6
601.432	1	5
601.771	1	9
602.111	1	-5
602.451	1	-4
602.790	1	5
603.130	1	-2
603.469	1	-8
603.809	1	4
604.148	1	4
604.487	1	5
604.827	1	-10
605.166	1	-3
605.506	1	1
605.845	1	7
606.185	1	1
606.524	1	-2
606.864	1	-12
607.203	1	11
607.543	1	1
607.882	1	0
608.222	1	1
608.561	1	19
608.901	1	5
609.240	1	-6
609.579	1	0
609.919	1	-8
610.258	1	8
610.598	1	6
610.937	1	1
611.277	1	2
611.616	1	-8
611.955	1	7
612.295	1	-4
612.634	1	-3
612.974	1	5
613.313	1	10
613.652	1	-15
613.992	1	0
614.331	1	8
614.671	1	8
615.010	1	7
615.349	1	6
615.689	1	8
616.028	1	-6
616.368	1	-1
616.707	1	4
617.046	1	-1
617.386	1	-1
617.725	1	5
618.064	1	7
618.404	1	11
618.743	1	-2
619.082	1	2
619.422	1	-2
619.761	1	5
620.100	1	6
620.440	1	-2
620.779	1	-3
621.118	1	1
621.458	1	5
621.797	1	-1
622.136	1	-2
622.476	1	-1
622.815	1	-3
623.154	1	10
623.494	1	4
623.833	1	-7
624.172	1	10
624.511	1	-1
624.851	1	-2
625.190	1	-6
625.529	1	4
625.869	1	-1
626.208	1	2
626.547	1	3
626.886	1	-9
627.226	1	5
627.565	1	10
627.904	1	4
628.243	1	-2
628.583	1	-7
628.922	1	0
629.261	1	0
629.600	1	4
629.940	1	-1
630.279	1	-6
630.618	1	-1
630.957	1	-1
631.297	1	-3
631.636	1	-7
631.975	1	3
632.314	1	3
632.653	1	-3
632.993	1	6
633.332	1	2
633.671	1	-1
634.010	1	-1
634.349	1	10
634.689	1	11
635.028	1	-1
635.367	1	-5
635.706	1	-9
636.045	1	-1
636.384	1	10
636.724	1	9
637.063	1	11
637.402	1	14
637.741	1	11
638.080	1	5
638.419	1	13
638.759	1	-1
639.098	1	-4
639.437	1	-1
639.776	1	4
640.115	1	-3
640.454	1	2
640.793	1	-2
641.132	1	10
641.472	1	-4
641.811	1	0
642.150	1	0
642.489	1	9
642.828	1	8
643.167	1	-1
643.506	1	-6
643.845	1	5
644.184	1	3
644.524	1	3
644.863	1	3
645.202	1	-4
645.541	1	-1
645.880	1	11
646.219	1	0
646.558	1	-2
646.897	1	-3
647.236	1	6
647.575	1	4
647.914	1	-4
648.253	1	9
648.592	1	-9
648.931	1	7
649.270	1	1
649.610	1	11
649.949	1	3
650.288	1	-6
650.627	1	-2
650.966	1	-4
651.305	1	-1
651.644	1	-3
651.983	1	0
652.322	1	5
652.661	1	3
653.000	1	1
653.339	1	8
653.678	1	7
654.017	1	-4
654.356	1	6
654.695	1	2
655.034	1	12
655.373	1	1
655.712	1	-10
656.051	1	4
656.390	1	0
656.729	1	-1
657.068	1	6
657.406	1	4
657.745	1	-8
658.084	1	10
658.423	1	1
658.762	1	-1
659.101	1	-7
659.440	1	8
659.779	1	-6
660.118	1	5
660.457	1	0
660.796	1	0
661.135	1	8
661.474	1	-2
661.813	1	6
662.152	1	-9
662.491	1	-8
662.829	1	-7
663.168	1	-1
663.507	1	-5
663.846	1	3
664.185	1	-6
664.524	1	-3
664.863	1	1
665.202	1	-11
665.541	1	-8
665.879	1	-6
666.218	1	-11
666.557	1	10
666.896	1	-9
667.235	1	-5
667.574	1	6
667.913	1	10
668.251	1	6
668.590	1	6
668.929	1	-3
669.268	1	0
669.607	1	-1
669.946	1	8
670.285	1	-3
670.623	1	6
670.962	1	-1
671.301	1	-3
671.640	1	-15
671.979	1	15
672.317	1	-1
672.656	1	11
672.995	1	-2
673.334	1	9
673.673	1	23
674.011	1	-1
674.350	1	-1
674.689	1	1
675.028	1	3
675.367	1	0
675.705	1	-10
676.044	1	-12
676.383	1	-1
676.722	1	-3
677.060	1	-4
677.399	1	3
677.738	1	-7
678.077	1	6
678.416	1	9
678.754	1	-2
679.093	1	3
679.432	1	-5
679.771	1	-1
680.109	1	3
680.448	1	1
680.787	1	6
681.125	1	6
681.464	1	8
681.803	1	-11
682.142	1	5
682.480	1	0
682.819	1	4
683.158	1	-6
683.496	1	0
683.835	1	7
684.174	1	-2
684.512	1	2
684.851	1	3
685.190	1	19
685.529	1	7
685.867	1	-2
686.206	1	8
686.545	1	13
686.883	1	-12
687.222	1	9
687.561	1	-4
687.899	1	-2
688.238	1	-7
688.577	1	-4
688.746	1	8