File: Analysis/GaN_68K_200ms/GaN_sample E_spot4_UVVIS_68 K_200um_200 ms 2x2mm1_490.txt
340.368	1	2
340.710	1	1
341.052	1	-2
341.394	1	3
341.737	1	5
342.079	1	-4
342.421	1	-8
342.763	1	-3
343.105	1	12
343.447	1	0
343.789	1	1
344.131	1	-9
344.473	1	4
344.815	1	0
345.157	1	9
345.499	1	5
345.841	1	5
346.183	1	-6
346.526	1	15
346.868	1	-1
347.210	1	7
347.552	1	1
347.894	1	0
348.236	1	3
348.578	1	6
348.920	1	4
349.262	1	2
349.604	1	5
349.946	1	17
350.288	1	2
350.630	1	0
350.972	1	-8
351.314	1	0
351.656	1	1
351.998	1	-5
352.340	1	-2
352.682	1	-5
353.024	1	-4
353.366	1	5
353.708	1	6
354.050	1	1
354.392	1	10
354.734	1	-2
355.076	1	13
355.418	1	-1
355.760	1	3
356.102	1	1
356.444	1	7
356.785	1	4
357.127	1	11
357.469	1	5
357.811	1	19
358.153	1	3
358.495	1	10
358.837	1	1
359.179	1	-2
359.521	1	1
359.863	1	-7
360.205	1	3
360.547	1	7
360.889	1	1
361.231	1	5
361.572	1	-11
361.914	1	4
362.256	1	1
362.598	1	2
362.940	1	5
363.282	1	0
363.624	1	4
363.966	1	8
364.308	1	-12
364.649	1	-1
364.991	1	9
365.333	1	5
365.675	1	1
366.017	1	10
366.359	1	6
366.701	1	-2
367.042	1	8
367.384	1	9
367.726	1	10
368.068	1	-1
368.410	1	5
368.752	1	-2
369.093	1	0
369.435	1	-7
369.777	1	-7
370.119	1	10
370.461	1	-1
370.803	1	-4
371.144	1	9
371.486	1	11
371.828	1	4
372.170	1	16
372.512	1	-3
372.853	1	9
373.195	1	-4
373.537	1	5
373.879	1	13
374.220	1	1
374.562	1	4
374.904	1	-3
375.246	1	-2
375.588	1	4
375.929	1	7
376.271	1	-1
376.613	1	3
376.955	1	1
377.296	1	2
377.638	1	-1
377.980	1	3
378.321	1	-4
378.663	1	1
379.005	1	10
379.347	1	2
379.688	1	-6
380.030	1	2
380.372	1	1
380.714	1	-1
381.055	1	5
381.397	1	-3
381.739	1	11
382.080	1	-13
382.422	1	21
382.764	1	4
383.105	1	-2
383.447	1	11
383.789	1	14
384.130	1	-2
384.472	1	-7
384.814	1	4
385.156	1	9
385.497	1	15
385.839	1	10
386.180	1	11
386.522	1	12
386.864	1	10
387.205	1	4
387.547	1	10
387.889	1	13
388.230	1	1
388.572	1	1
388.914	1	11
389.255	1	-2
389.597	1	4
389.939	1	10
390.280	1	19
390.622	1	3
390.963	1	10
391.305	1	4
391.647	1	1
391.988	1	-7
392.330	1	11
392.671	1	15
393.013	1	13
393.355	1	4
393.696	1	-2
394.038	1	1
394.379	1	-6
394.721	1	3
395.062	1	-5
395.404	1	5
395.746	1	-9
396.087	1	9
396.429	1	5
396.770	1	8
397.112	1	-4
397.453	1	-2
397.795	1	9
398.136	1	-4
398.478	1	7
398.819	1	10
399.161	1	6
399.503	1	11
399.844	1	-4
400.186	1	6
400.527	1	5
400.869	1	14
401.210	1	-3
401.552	1	11
401.893	1	7
402.235	1	14
402.576	1	9
402.918	1	-3
403.259	1	-9
403.601	1	-12
403.942	1	6
404.284	1	1
404.625	1	16
404.967	1	4
405.308	1	10
405.649	1	-1
405.991	1	4
406.332	1	-6
406.674	1	2
407.015	1	-3
407.357	1	5
407.698	1	-2
408.040	1	-5
408.381	1	0
408.722	1	-4
409.064	1	7
409.405	1	-2
409.747	1	0
410.088	1	0
410.430	1	5
410.771	1	11
411.112	1	3
411.454	1	7
411.795	1	6
412.137	1	10
412.478	1	5
412.819	1	-1
413.161	1	6
413.502	1	-1
413.844	1	-10
414.185	1	2
414.526	1	5
414.868	1	12
415.209	1	4
415.550	1	-8
415.892	1	8
416.233	1	4
416.575	1	-1
416.916	1	0
417.257	1	8
417.599	1	2
417.940	1	-1
418.281	1	0
418.623	1	6
418.964	1	2
419.305	1	4
419.647	1	4
419.988	1	4
420.329	1	7
420.671	1	-3
421.012	1	14
421.353	1	12
421.695	1	-5
422.036	1	-3
422.377	1	-2
422.718	1	-2
423.060	1	5
423.401	1	3
423.742	1	2
424.084	1	2
424.425	1	1
424.766	1	6
425.107	1	-2
425.449	1	6
425.790	1	-6
426.131	1	7
426.472	1	3
426.814	1	8
427.155	1	-8
427.496	1	3
427.837	1	-9
428.179	1	-9
428.520	1	2
428.861	1	-1
429.202	1	11
429.544	1	5
429.885	1	0
430.226	1	3
430.567	1	10
430.909	1	-1
431.250	1	-3
431.591	1	1
431.932	1	3
432.273	1	-6
432.615	1	2
432.956	1	2
433.297	1	17
433.638	1	-8
433.979	1	3
434.320	1	-2
434.662	1	-3
435.003	1	2
435.344	1	2
435.685	1	0
436.026	1	9
436.368	1	-2
436.709	1	-3
437.050	1	9
437.391	1	3
437.732	1	6
438.073	1	11
438.414	1	8
438.756	1	5
439.097	1	9
439.438	1	6
439.779	1	-12
440.120	1	0
440.461	1	1
440.802	1	3
441.143	1	4
441.485	1	-2
441.826	1	-8
442.167	1	-1
442.508	1	8
442.849	1	4
443.190	1	-12
443.531	1	-2
443.872	1	2
444.213	1	-6
444.554	1	-3
444.895	1	-1
445.237	1	-10
445.578	1	6
445.919	1	0
446.260	1	6
446.601	1	-7
446.942	1	2
447.283	1	-1
447.624	1	10
447.965	1	-9
448.306	1	6
448.647	1	9
448.988	1	-14
449.329	1	-2
449.670	1	9
450.011	1	-1
450.352	1	8
450.693	1	10
451.034	1	6
451.375	1	10
451.716	1	1
452.057	1	7
452.398	1	7
452.739	1	4
453.080	1	10
453.421	1	4
453.762	1	1
454.103	1	-4
454.444	1	7
454.785	1	1
455.126	1	3
455.467	1	5
455.808	1	5
456.149	1	0
456.490	1	10
456.831	1	11
457.172	1	-1
457.513	1	14
457.854	1	0
458.195	1	-3
458.536	1	3
458.877	1	1
459.218	1	7
459.559	1	1
459.899	1	12
460.240	1	6
460.581	1	6
460.922	1	5
461.263	1	6
461.604	1	4
461.945	1	8
462.286	1	5
462.627	1	0
462.968	1	-5
463.309	1	1
463.649	1	6
463.990	1	3
464.331	1	0
464.672	1	2
465.013	1	-8
465.354	1	7
465.695	1	14
466.036	1	1
466.376	1	2
466.717	1	-6
467.058	1	12
467.399	1	4
467.740	1	-4
468.081	1	0
468.422	1	2
468.762	1	-7
469.103	1	5
469.444	1	2
469.785	1	7
470.126	1	5
470.467	1	-3
470.807	1	-5
471.148	1	-6
471.489	1	-5
471.830	1	18
472.171	1	0
472.511	1	18
472.852	1	3
473.193	1	-3
473.534	1	3
473.875	1	6
474.215	1	-1
474.556	1	-4
474.897	1	6
475.238	1	8
475.578	1	7
475.919	1	3
476.260	1	3
476.601	1	-3
476.942	1	4
477.282	1	-6
477.623	1	8
477.964	1	-5
478.305	1	5
478.645	1	-6
478.986	1	2
479.327	1	0
479.667	1	3
480.008	1	0
480.349	1	5
480.690	1	5
481.030	1	-4
481.371	1	3
481.712	1	9
482.053	1	8
482.393	1	-11
482.734	1	5
483.075	1	6
483.415	1	15
483.756	1	4
484.097	1	1
484.437	1	-9
484.778	1	7
485.119	1	0
485.459	1	0
485.800	1	-2
486.141	1	-6
486.481	1	-1
486.822	1	1
487.163	1	-7
487.503	1	-4
487.844	1	-1
488.185	1	1
488.525	1	-3
488.866	1	8
489.207	1	9
489.547	1	-7
489.888	1	-1
490.228	1	-2
490.569	1	14
490.910	1	-9
491.250	1	8
491.591	1	-2
491.932	1	8
492.272	1	8
492.613	1	10
492.953	1	9
493.294	1	2
493.635	1	-6
493.975	1	8
494.316	1	2
494.656	1	-3
494.997	1	-1
495.337	1	9
495.678	1	13
496.019	1	12
496.359	1	-1
496.700	1	3
497.040	1	3
497.381	1	-15
497.721	1	-4
498.062	1	2
498.403	1	5
498.743	1	9
499.084	1	-10
499.424	1	10
499.765	1	-2
500.105	1	8
500.446	1	5
500.786	1	-3
501.127	1	6
501.467	1	3
501.808	1	-7
502.148	1	2
502.489	1	0
502.829	1	5
503.170	1	7
503.510	1	0
503.851	1	-17
504.191	1	4
504.532	1	-10
504.872	1	-4
505.213	1	1
505.553	1	0
505.894	1	8
506.234	1	-2
506.575	1	-5
506.915	1	-1
507.256	1	5
507.596	1	9
507.936	1	2
508.277	1	-4
508.617	1	7
508.958	1	16
509.298	1	13
509.639	1	6
509.979	1	10
510.319	1	6
510.660	1	1
511.000	1	-1
511.341	1	-13
511.681	1	7
512.022	1	-4
512.362	1	2
512.702	1	-11
513.043	1	-1
513.383	1	-1
513.724	1	10
514.064	1	2
514.404	1	2
514.745	1	2
515.085	1	-3
515.425	1	3
515.766	1	2
516.106	1	-7
516.447	1	-2
516.787	1	2
517.127	1	0
517.468	1	5
517.808	1	9
518.148	1	8
518.489	1	3
518.829	1	-15
519.169	1	5
519.510	1	10
519.850	1	-2
520.190	1	8
520.531	1	6
520.871	1	-6
521.211	1	4
521.552	1	5
521.892	1	-2
522.232	1	-5
522.573	1	5
522.913	1	8
523.253	1	3
523.593	1	-6
523.934	1	-1
524.274	1	-5
524.614	1	-7
524.955	1	0
525.295	1	-2
525.635	1	15
525.975	1	-5
526.316	1	-1
526.656	1	11
526.996	1	13
527.337	1	7
527.677	1	13
528.017	1	-8
528.357	1	9
528.698	1	-2
529.038	1	5
529.378	1	-4
529.718	1	2
530.058	1	3
530.399	1	9
530.739	1	1
531.079	1	10
531.419	1	10
531.760	1	9
532.100	1	6
532.440	1	-3
532.780	1	3
533.120	1	0
533.461	1	8
533.801	1	-1
534.141	1	5
534.481	1	0
534.821	1	4
535.162	1	5
535.502	1	10
535.842	1	7
536.182	1	9
536.522	1	-3
536.862	1	7
537.203	1	12
537.543	1	3
537.883	1	9
538.223	1	8
538.563	1	1
538.903	1	5
539.243	1	-3
539.584	1	2
539.924	1	5
540.264	1	4
540.604	1	12
540.944	1	4
541.284	1	-3
541.624	1	7
541.964	1	12
542.305	1	-9
542.645	1	-2
542.985	1	-12
543.325	1	-5
543.665	1	10
544.005	1	1
544.345	1	-1
544.685	1	6
545.025	1	2
545.365	1	7
545.705	1	9
546.045	1	9
546.386	1	1
546.726	1	4
547.066	1	-12
547.406	1	8
547.746	1	8
548.086	1	7
548.426	1	6
548.766	1	6
549.106	1	3
549.446	1	1
549.786	1	5
550.126	1	-5
550.466	1	-4
550.806	1	8
551.146	1	-8
551.486	1	11
551.826	1	5
552.166	1	3
552.506	1	-12
552.846	1	4
553.186	1	12
553.526	1	6
553.866	1	-3
554.206	1	2
554.546	1	-10
554.886	1	3
555.226	1	-5
555.566	1	1
555.906	1	6
556.246	1	4
556.586	1	17
556.926	1	4
557.266	1	8
557.606	1	1
557.946	1	6
558.286	1	4
558.626	1	2
558.966	1	1
559.306	1	4
559.646	1	-4
559.986	1	-6
560.325	1	-4
560.665	1	19
561.005	1	6
561.345	1	0
561.685	1	1
562.025	1	-6
562.365	1	-3
562.705	1	13
563.045	1	4
563.385	1	-8
563.725	1	0
564.064	1	16
564.404	1	9
564.744	1	3
565.084	1	-10
565.424	1	3
565.764	1	18
566.104	1	-3
566.444	1	10
566.783	1	4
567.123	1	14
567.463	1	4
567.803	1	-11
568.143	1	-12
568.483	1	-5
568.823	1	4
569.162	1	5
569.502	1	9
569.842	1	-3
570.182	1	-8
570.522	1	1
570.862	1	9
571.201	1	8
571.541	1	-8
571.881	1	6
572.221	1	4
572.561	1	-9
572.900	1	13
573.240	1	-4
573.580	1	7
573.920	1	3
574.260	1	-7
574.599	1	-8
574.939	1	0
575.279	1	4
575.619	1	5
575.959	1	-7
576.298	1	-7
576.638	1	2
576.978	1	7
577.318	1	5
577.657	1	-10
577.997	1	-7
578.337	1	-6
578.677	1	6
579.016	1	17
579.356	1	-1
579.696	1	-1
580.036	1	-11
580.375	1	4
580.715	1	6
581.055	1	11
581.394	1	-20
581.734	1	10
582.074	1	-6
582.414	1	8
582.753	1	6
583.093	1	-6
583.433	1	-11
583.772	1	0
584.112	1	5
584.452	1	-6
584.791	1	0
585.131	1	-8
585.471	1	4
585.811	1	1
586.150	1	1
586.490	1	-6
586.830	1	-9
587.169	1	-2
587.509	1	6
587.849	1	11
588.188	1	-2
588.528	1	4
588.867	1	-1
589.207	1	-2
589.547	1	-8
589.886	1	-1
590.226	1	11
590.566	1	-4
590.905	1	2
591.245	1	2
591.585	1	4
591.924	1	-2
592.264	1	1
592.603	1	7
592.943	1	-5
593.283	1	2
593.622	1	1
593.962	1	20
594.301	1	8
594.641	1	-2
594.981	1	-1
595.320	1	4
595.660	1	-6
595.999	1	9
596.339	1	2
596.678	1	-5
597.018	1	3
597.358	1	9
597.697	1	-5
598.037	1	-3
598.376	1	9
598.716	1	-3
599.055	1	7
599.395	1	9
599.734	1	-7
600.074	1	0
600.413	1	-1
600.753	1	2
601.092	1	-13
601.432	1	3
601.771	1	7
602.111	1	-3
602.451	1	0
602.790	1	6
603.130	1	1
603.469	1	4
603.809	1	11
604.148	1	8
604.487	1	3
604.827	1	-9
605.166	1	2
605.506	1	7
605.845	1	-4
606.185	1	-9
606.524	1	-4
606.864	1	2
607.203	1	6
607.543	1	-5
607.882	1	-3
608.222	1	-6
608.561	1	9
608.901	1	3
609.240	1	0
609.579	1	4
609.919	1	-10
610.258	1	3
610.598	1	-1
610.937	1	-8
611.277	1	13
611.616	1	-7
611.955	1	6
612.295	1	-4
612.634	1	0
612.974	1	9
613.313	1	6
613.652	1	-4
613.992	1	9
614.331	1	7
614.671	1	8
615.010	1	4
615.349	1	1
615.689	1	-1
616.028	1	4
616.368	1	-6
616.707	1	-2
617.046	1	6
617.386	1	10
617.725	1	12
618.064	1	5
618.404	1	7
618.743	1	-1
619.082	1	3
619.422	1	10
619.761	1	6
620.100	1	7
620.440	1	10
620.779	1	-8
621.118	1	-2
621.458	1	11
621.797	1	7
622.136	1	13
622.476	1	-3
622.815	1	-9
623.154	1	-4
623.494	1	10
623.833	1	0
624.172	1	5
624.511	1	1
624.851	1	-10
625.190	1	1
625.529	1	2
625.869	1	7
626.208	1	-5
626.547	1	-1
626.886	1	1
627.226	1	7
627.565	1	3
627.904	1	-2
628.243	1	-10
628.583	1	5
628.922	1	1
629.261	1	10
629.600	1	0
629.940	1	0
630.279	1	-1
630.618	1	0
630.957	1	2
631.297	1	0
631.636	1	0
631.975	1	9
632.314	1	11
632.653	1	-14
632.993	1	11
633.332	1	5
633.671	1	3
634.010	1	0
634.349	1	3
634.689	1	4
635.028	1	5
635.367	1	9
635.706	1	-15
636.045	1	0
636.384	1	7
636.724	1	4
637.063	1	7
637.402	1	6
637.741	1	6
638.080	1	-6
638.419	1	-1
638.759	1	8
639.098	1	-5
639.437	1	-11
639.776	1	0
640.115	1	2
640.454	1	9
640.793	1	7
641.132	1	2
641.472	1	-2
641.811	1	5
642.150	1	1
642.489	1	-3
642.828	1	-6
643.167	1	9
643.506	1	-11
643.845	1	0
644.184	1	8
644.524	1	5
644.863	1	-1
645.202	1	1
645.541	1	-9
645.880	1	11
646.219	1	5
646.558	1	-1
646.897	1	-10
647.236	1	2
647.575	1	2
647.914	1	-1
648.253	1	6
648.592	1	1
648.931	1	11
649.270	1	7
649.610	1	16
649.949	1	-3
650.288	1	3
650.627	1	9
650.966	1	-12
651.305	1	-4
651.644	1	-2
651.983	1	3
652.322	1	14
652.661	1	6
653.000	1	-9
653.339	1	2
653.678	1	-11
654.017	1	1
654.356	1	4
654.695	1	4
655.034	1	4
655.373	1	3
655.712	1	-2
656.051	1	3
656.390	1	-4
656.729	1	4
657.068	1	-3
657.406	1	12
657.745	1	0
658.084	1	8
658.423	1	-6
658.762	1	-1
659.101	1	-6
659.440	1	10
659.779	1	-6
660.118	1	4
660.457	1	-1
660.796	1	4
661.135	1	-2
661.474	1	-1
661.813	1	4
662.152	1	-7
662.491	1	-1
662.829	1	5
663.168	1	-3
663.507	1	-5
663.846	1	5
664.185	1	-4
664.524	1	-13
664.863	1	0
665.202	1	-5
665.541	1	5
665.879	1	9
666.218	1	-6
666.557	1	-1
666.896	1	-1
667.235	1	0
667.574	1	0
667.913	1	5
668.251	1	3
668.590	1	0
668.929	1	2
669.268	1	8
669.607	1	-3
669.946	1	11
670.285	1	1
670.623	1	3
670.962	1	9
671.301	1	-5
671.640	1	-22
671.979	1	11
672.317	1	-7
672.656	1	7
672.995	1	3
673.334	1	10
673.673	1	16
674.011	1	3
674.350	1	-9
674.689	1	-6
675.028	1	3
675.367	1	1
675.705	1	-5
676.044	1	1
676.383	1	-3
676.722	1	1
677.060	1	4
677.399	1	-2
677.738	1	-6
678.077	1	6
678.416	1	-3
678.754	1	-1
679.093	1	-2
679.432	1	-6
679.771	1	2
680.109	1	5
680.448	1	-5
680.787	1	2
681.125	1	6
681.464	1	3
681.803	1	-11
682.142	1	15
682.480	1	-4
682.819	1	5
683.158	1	3
683.496	1	-5
683.835	1	6
684.174	1	-1
684.512	1	2
684.851	1	-9
685.190	1	11
685.529	1	3
685.867	1	0
686.206	1	5
686.545	1	5
686.883	1	-6
687.222	1	-3
687.561	1	3
687.899	1	-2
688.238	1	-1
688.577	1	-3
688.746	1	4