File: Analysis/GaN_68K_200ms/GaN_sample E_spot4_UVVIS_68 K_200um_200 ms 2x2mm1_172.txt
340.368	1	1
340.710	1	-1
341.052	1	-2
341.394	1	-5
341.737	1	7
342.079	1	1
342.421	1	1
342.763	1	13
343.105	1	18
343.447	1	1
343.789	1	4
344.131	1	3
344.473	1	7
344.815	1	6
345.157	1	11
345.499	1	4
345.841	1	5
346.183	1	10
346.526	1	17
346.868	1	6
347.210	1	2
347.552	1	-2
347.894	1	12
348.236	1	3
348.578	1	10
348.920	1	8
349.262	1	0
349.604	1	15
349.946	1	4
350.288	1	3
350.630	1	-1
350.972	1	4
351.314	1	-6
351.656	1	16
351.998	1	5
352.340	1	8
352.682	1	2
353.024	1	-2
353.366	1	4
353.708	1	7
354.050	1	10
354.392	1	11
354.734	1	4
355.076	1	12
355.418	1	1
355.760	1	6
356.102	1	5
356.444	1	9
356.785	1	25
357.127	1	10
357.469	1	3
357.811	1	16
358.153	1	13
358.495	1	5
358.837	1	11
359.179	1	5
359.521	1	6
359.863	1	4
360.205	1	9
360.547	1	19
360.889	1	10
361.231	1	14
361.572	1	-2
361.914	1	16
362.256	1	16
362.598	1	24
362.940	1	20
363.282	1	20
363.624	1	23
363.966	1	16
364.308	1	24
364.649	1	26
364.991	1	33
365.333	1	31
365.675	1	35
366.017	1	33
366.359	1	35
366.701	1	24
367.042	1	39
367.384	1	47
367.726	1	40
368.068	1	31
368.410	1	36
368.752	1	27
369.093	1	47
369.435	1	29
369.777	1	35
370.119	1	35
370.461	1	25
370.803	1	35
371.144	1	30
371.486	1	32
371.828	1	24
372.170	1	33
372.512	1	18
372.853	1	27
373.195	1	18
373.537	1	23
373.879	1	27
374.220	1	20
374.562	1	13
374.904	1	18
375.246	1	19
375.588	1	13
375.929	1	8
376.271	1	16
376.613	1	15
376.955	1	12
377.296	1	21
377.638	1	27
377.980	1	14
378.321	1	13
378.663	1	14
379.005	1	32
379.347	1	14
379.688	1	5
380.030	1	7
380.372	1	15
380.714	1	21
381.055	1	13
381.397	1	16
381.739	1	24
382.080	1	7
382.422	1	29
382.764	1	18
383.105	1	29
383.447	1	27
383.789	1	31
384.130	1	19
384.472	1	21
384.814	1	28
385.156	1	47
385.497	1	41
385.839	1	52
386.180	1	37
386.522	1	43
386.864	1	41
387.205	1	41
387.547	1	33
387.889	1	50
388.230	1	52
388.572	1	41
388.914	1	48
389.255	1	47
389.597	1	35
389.939	1	48
390.280	1	42
390.622	1	27
390.963	1	41
391.305	1	45
391.647	1	37
391.988	1	37
392.330	1	43
392.671	1	32
393.013	1	44
393.355	1	46
393.696	1	33
394.038	1	30
394.379	1	16
394.721	1	38
395.062	1	26
395.404	1	50
395.746	1	30
396.087	1	36
396.429	1	40
396.770	1	41
397.112	1	42
397.453	1	34
397.795	1	34
398.136	1	42
398.478	1	44
398.819	1	45
399.161	1	39
399.503	1	40
399.844	1	29
400.186	1	44
400.527	1	35
400.869	1	35
401.210	1	34
401.552	1	36
401.893	1	31
402.235	1	38
402.576	1	46
402.918	1	24
403.259	1	19
403.601	1	23
403.942	1	35
404.284	1	23
404.625	1	35
404.967	1	27
405.308	1	20
405.649	1	23
405.991	1	33
406.332	1	27
406.674	1	29
407.015	1	18
407.357	1	37
407.698	1	21
408.040	1	12
408.381	1	17
408.722	1	19
409.064	1	21
409.405	1	33
409.747	1	22
410.088	1	34
410.430	1	34
410.771	1	28
411.112	1	31
411.454	1	28
411.795	1	23
412.137	1	24
412.478	1	18
412.819	1	18
413.161	1	13
413.502	1	20
413.844	1	27
414.185	1	17
414.526	1	16
414.868	1	24
415.209	1	6
415.550	1	17
415.892	1	18
416.233	1	23
416.575	1	14
416.916	1	18
417.257	1	7
417.599	1	20
417.940	1	17
418.281	1	19
418.623	1	14
418.964	1	26
419.305	1	12
419.647	1	26
419.988	1	10
420.329	1	23
420.671	1	16
421.012	1	23
421.353	1	25
421.695	1	19
422.036	1	11
422.377	1	20
422.718	1	18
423.060	1	11
423.401	1	15
423.742	1	15
424.084	1	11
424.425	1	16
424.766	1	16
425.107	1	13
425.449	1	11
425.790	1	4
426.131	1	15
426.472	1	16
426.814	1	18
427.155	1	17
427.496	1	15
427.837	1	12
428.179	1	13
428.520	1	2
428.861	1	14
429.202	1	16
429.544	1	17
429.885	1	14
430.226	1	9
430.567	1	20
430.909	1	5
431.250	1	-5
431.591	1	13
431.932	1	13
432.273	1	10
432.615	1	10
432.956	1	-3
433.297	1	18
433.638	1	12
433.979	1	15
434.320	1	17
434.662	1	7
435.003	1	12
435.344	1	16
435.685	1	22
436.026	1	12
436.368	1	19
436.709	1	3
437.050	1	18
437.391	1	11
437.732	1	9
438.073	1	14
438.414	1	5
438.756	1	18
439.097	1	11
439.438	1	10
439.779	1	-3
440.120	1	13
440.461	1	8
440.802	1	11
441.143	1	14
441.485	1	2
441.826	1	-3
442.167	1	0
442.508	1	6
442.849	1	14
443.190	1	2
443.531	1	3
443.872	1	4
444.213	1	12
444.554	1	8
444.895	1	2
445.237	1	-1
445.578	1	11
445.919	1	9
446.260	1	7
446.601	1	1
446.942	1	13
447.283	1	9
447.624	1	18
447.965	1	8
448.306	1	13
448.647	1	9
448.988	1	-8
449.329	1	10
449.670	1	20
450.011	1	6
450.352	1	17
450.693	1	13
451.034	1	14
451.375	1	11
451.716	1	16
452.057	1	21
452.398	1	12
452.739	1	10
453.080	1	17
453.421	1	0
453.762	1	21
454.103	1	1
454.444	1	15
454.785	1	4
455.126	1	9
455.467	1	13
455.808	1	9
456.149	1	5
456.490	1	5
456.831	1	29
457.172	1	7
457.513	1	6
457.854	1	15
458.195	1	7
458.536	1	14
458.877	1	5
459.218	1	9
459.559	1	8
459.899	1	17
460.240	1	12
460.581	1	16
460.922	1	-1
461.263	1	7
461.604	1	4
461.945	1	12
462.286	1	8
462.627	1	5
462.968	1	2
463.309	1	12
463.649	1	7
463.990	1	9
464.331	1	20
464.672	1	9
465.013	1	3
465.354	1	7
465.695	1	15
466.036	1	13
466.376	1	-4
466.717	1	6
467.058	1	10
467.399	1	3
467.740	1	9
468.081	1	15
468.422	1	11
468.762	1	-3
469.103	1	5
469.444	1	3
469.785	1	13
470.126	1	13
470.467	1	6
470.807	1	1
471.148	1	8
471.489	1	-2
471.830	1	18
472.171	1	9
472.511	1	16
472.852	1	0
473.193	1	-7
473.534	1	-2
473.875	1	17
474.215	1	6
474.556	1	1
474.897	1	6
475.238	1	12
475.578	1	13
475.919	1	3
476.260	1	14
476.601	1	0
476.942	1	12
477.282	1	-5
477.623	1	19
477.964	1	11
478.305	1	12
478.645	1	3
478.986	1	2
479.327	1	3
479.667	1	7
480.008	1	11
480.349	1	10
480.690	1	4
481.030	1	10
481.371	1	4
481.712	1	7
482.053	1	13
482.393	1	-11
482.734	1	1
483.075	1	11
483.415	1	13
483.756	1	10
484.097	1	4
484.437	1	1
484.778	1	9
485.119	1	14
485.459	1	5
485.800	1	3
486.141	1	6
486.481	1	8
486.822	1	8
487.163	1	4
487.503	1	-2
487.844	1	16
488.185	1	-2
488.525	1	6
488.866	1	16
489.207	1	13
489.547	1	6
489.888	1	4
490.228	1	-4
490.569	1	12
490.910	1	0
491.250	1	12
491.591	1	-1
491.932	1	8
492.272	1	13
492.613	1	11
492.953	1	8
493.294	1	15
493.635	1	7
493.975	1	6
494.316	1	20
494.656	1	-2
494.997	1	10
495.337	1	20
495.678	1	14
496.019	1	8
496.359	1	12
496.700	1	10
497.040	1	8
497.381	1	-4
497.721	1	1
498.062	1	11
498.403	1	10
498.743	1	19
499.084	1	5
499.424	1	19
499.765	1	20
500.105	1	15
500.446	1	19
500.786	1	20
501.127	1	20
501.467	1	21
501.808	1	8
502.148	1	24
502.489	1	11
502.829	1	14
503.170	1	14
503.510	1	9
503.851	1	3
504.191	1	16
504.532	1	10
504.872	1	16
505.213	1	9
505.553	1	18
505.894	1	37
506.234	1	14
506.575	1	13
506.915	1	12
507.256	1	18
507.596	1	24
507.936	1	20
508.277	1	10
508.617	1	20
508.958	1	33
509.298	1	25
509.639	1	29
509.979	1	15
510.319	1	16
510.660	1	21
511.000	1	28
511.341	1	15
511.681	1	18
512.022	1	7
512.362	1	21
512.702	1	27
513.043	1	31
513.383	1	16
513.724	1	28
514.064	1	19
514.404	1	24
514.745	1	20
515.085	1	15
515.425	1	18
515.766	1	23
516.106	1	26
516.447	1	27
516.787	1	21
517.127	1	34
517.468	1	13
517.808	1	29
518.148	1	21
518.489	1	29
518.829	1	21
519.169	1	37
519.510	1	28
519.850	1	19
520.190	1	24
520.531	1	26
520.871	1	26
521.211	1	30
521.552	1	37
521.892	1	22
522.232	1	17
522.573	1	27
522.913	1	33
523.253	1	22
523.593	1	15
523.934	1	27
524.274	1	20
524.614	1	24
524.955	1	19
525.295	1	16
525.635	1	31
525.975	1	14
526.316	1	25
526.656	1	44
526.996	1	41
527.337	1	20
527.677	1	36
528.017	1	20
528.357	1	36
528.698	1	23
529.038	1	35
529.378	1	34
529.718	1	28
530.058	1	31
530.399	1	46
530.739	1	34
531.079	1	43
531.419	1	35
531.760	1	39
532.100	1	31
532.440	1	25
532.780	1	23
533.120	1	19
533.461	1	35
533.801	1	36
534.141	1	37
534.481	1	29
534.821	1	27
535.162	1	36
535.502	1	30
535.842	1	27
536.182	1	29
536.522	1	40
536.862	1	28
537.203	1	34
537.543	1	32
537.883	1	37
538.223	1	24
538.563	1	24
538.903	1	34
539.243	1	26
539.584	1	19
539.924	1	28
540.264	1	22
540.604	1	30
540.944	1	20
541.284	1	19
541.624	1	26
541.964	1	30
542.305	1	10
542.645	1	18
542.985	1	18
543.325	1	21
543.665	1	24
544.005	1	19
544.345	1	22
544.685	1	22
545.025	1	9
545.365	1	26
545.705	1	27
546.045	1	39
546.386	1	32
546.726	1	28
547.066	1	14
547.406	1	30
547.746	1	24
548.086	1	35
548.426	1	18
548.766	1	20
549.106	1	26
549.446	1	21
549.786	1	28
550.126	1	25
550.466	1	25
550.806	1	26
551.146	1	21
551.486	1	24
551.826	1	26
552.166	1	22
552.506	1	16
552.846	1	21
553.186	1	22
553.526	1	22
553.866	1	30
554.206	1	16
554.546	1	12
554.886	1	23
555.226	1	11
555.566	1	21
555.906	1	28
556.246	1	18
556.586	1	32
556.926	1	25
557.266	1	35
557.606	1	15
557.946	1	22
558.286	1	20
558.626	1	23
558.966	1	8
559.306	1	18
559.646	1	15
559.986	1	25
560.325	1	6
560.665	1	26
561.005	1	14
561.345	1	17
561.685	1	12
562.025	1	20
562.365	1	17
562.705	1	21
563.045	1	15
563.385	1	21
563.725	1	16
564.064	1	25
564.404	1	6
564.744	1	23
565.084	1	10
565.424	1	18
565.764	1	27
566.104	1	9
566.444	1	20
566.783	1	21
567.123	1	31
567.463	1	12
567.803	1	10
568.143	1	6
568.483	1	10
568.823	1	22
569.162	1	20
569.502	1	18
569.842	1	13
570.182	1	5
570.522	1	15
570.862	1	17
571.201	1	16
571.541	1	5
571.881	1	16
572.221	1	22
572.561	1	15
572.900	1	24
573.240	1	6
573.580	1	12
573.920	1	11
574.260	1	7
574.599	1	14
574.939	1	11
575.279	1	23
575.619	1	12
575.959	1	9
576.298	1	7
576.638	1	4
576.978	1	8
577.318	1	23
577.657	1	-4
577.997	1	5
578.337	1	8
578.677	1	9
579.016	1	20
579.356	1	4
579.696	1	11
580.036	1	10
580.375	1	9
580.715	1	21
581.055	1	16
581.394	1	6
581.734	1	20
582.074	1	1
582.414	1	15
582.753	1	17
583.093	1	2
583.433	1	4
583.772	1	16
584.112	1	11
584.452	1	12
584.791	1	12
585.131	1	0
585.471	1	0
585.811	1	2
586.150	1	9
586.490	1	4
586.830	1	6
587.169	1	6
587.509	1	11
587.849	1	10
588.188	1	7
588.528	1	14
588.867	1	11
589.207	1	3
589.547	1	10
589.886	1	5
590.226	1	14
590.566	1	14
590.905	1	4
591.245	1	4
591.585	1	7
591.924	1	10
592.264	1	9
592.603	1	10
592.943	1	0
593.283	1	16
593.622	1	4
593.962	1	15
594.301	1	18
594.641	1	-2
594.981	1	5
595.320	1	16
595.660	1	8
595.999	1	6
596.339	1	15
596.678	1	7
597.018	1	7
597.358	1	13
597.697	1	-4
598.037	1	17
598.376	1	20
598.716	1	-6
599.055	1	-1
599.395	1	13
599.734	1	6
600.074	1	6
600.413	1	8
600.753	1	12
601.092	1	-4
601.432	1	13
601.771	1	7
602.111	1	-2
602.451	1	3
602.790	1	7
603.130	1	15
603.469	1	10
603.809	1	11
604.148	1	10
604.487	1	12
604.827	1	-3
605.166	1	4
605.506	1	11
605.845	1	8
606.185	1	11
606.524	1	-2
606.864	1	-1
607.203	1	25
607.543	1	-4
607.882	1	6
608.222	1	5
608.561	1	8
608.901	1	9
609.240	1	10
609.579	1	4
609.919	1	4
610.258	1	13
610.598	1	3
610.937	1	3
611.277	1	12
611.616	1	-6
611.955	1	16
612.295	1	12
612.634	1	7
612.974	1	7
613.313	1	17
613.652	1	3
613.992	1	6
614.331	1	10
614.671	1	-1
615.010	1	13
615.349	1	5
615.689	1	8
616.028	1	0
616.368	1	2
616.707	1	9
617.046	1	1
617.386	1	1
617.725	1	10
618.064	1	10
618.404	1	8
618.743	1	1
619.082	1	4
619.422	1	0
619.761	1	8
620.100	1	16
620.440	1	4
620.779	1	4
621.118	1	2
621.458	1	10
621.797	1	-1
622.136	1	-3
622.476	1	11
622.815	1	-4
623.154	1	15
623.494	1	2
623.833	1	5
624.172	1	19
624.511	1	0
624.851	1	3
625.190	1	10
625.529	1	16
625.869	1	-1
626.208	1	1
626.547	1	6
626.886	1	-3
627.226	1	8
627.565	1	12
627.904	1	1
628.243	1	-2
628.583	1	3
628.922	1	-2
629.261	1	12
629.600	1	9
629.940	1	3
630.279	1	5
630.618	1	8
630.957	1	0
631.297	1	-3
631.636	1	6
631.975	1	9
632.314	1	6
632.653	1	-9
632.993	1	3
633.332	1	12
633.671	1	3
634.010	1	1
634.349	1	14
634.689	1	11
635.028	1	6
635.367	1	7
635.706	1	-4
636.045	1	6
636.384	1	16
636.724	1	8
637.063	1	7
637.402	1	13
637.741	1	9
638.080	1	12
638.419	1	15
638.759	1	8
639.098	1	8
639.437	1	1
639.776	1	2
640.115	1	5
640.454	1	16
640.793	1	12
641.132	1	11
641.472	1	-5
641.811	1	11
642.150	1	5
642.489	1	7
642.828	1	3
643.167	1	17
643.506	1	-7
643.845	1	9
644.184	1	8
644.524	1	0
644.863	1	1
645.202	1	8
645.541	1	-5
645.880	1	6
646.219	1	13
646.558	1	9
646.897	1	2
647.236	1	3
647.575	1	7
647.914	1	3
648.253	1	6
648.592	1	0
648.931	1	14
649.270	1	13
649.610	1	17
649.949	1	4
650.288	1	10
650.627	1	4
650.966	1	7
651.305	1	-1
651.644	1	0
651.983	1	8
652.322	1	14
652.661	1	4
653.000	1	4
653.339	1	10
653.678	1	4
654.017	1	9
654.356	1	3
654.695	1	3
655.034	1	4
655.373	1	1
655.712	1	6
656.051	1	12
656.390	1	1
656.729	1	15
657.068	1	4
657.406	1	4
657.745	1	-2
658.084	1	16
658.423	1	6
658.762	1	2
659.101	1	-1
659.440	1	14
659.779	1	3
660.118	1	9
660.457	1	3
660.796	1	-5
661.135	1	3
661.474	1	7
661.813	1	3
662.152	1	0
662.491	1	0
662.829	1	0
663.168	1	-2
663.507	1	0
663.846	1	14
664.185	1	4
664.524	1	-6
664.863	1	8
665.202	1	-6
665.541	1	9
665.879	1	-3
666.218	1	3
666.557	1	7
666.896	1	3
667.235	1	3
667.574	1	5
667.913	1	5
668.251	1	5
668.590	1	2
668.929	1	9
669.268	1	7
669.607	1	-7
669.946	1	22
670.285	1	15
670.623	1	5
670.962	1	2
671.301	1	-3
671.640	1	-6
671.979	1	10
672.317	1	5
672.656	1	5
672.995	1	8
673.334	1	-1
673.673	1	15
674.011	1	7
674.350	1	-8
674.689	1	-2
675.028	1	5
675.367	1	9
675.705	1	-4
676.044	1	-3
676.383	1	6
676.722	1	11
677.060	1	10
677.399	1	-5
677.738	1	3
678.077	1	14
678.416	1	-2
678.754	1	10
679.093	1	3
679.432	1	-5
679.771	1	1
680.109	1	8
680.448	1	3
680.787	1	0
681.125	1	5
681.464	1	6
681.803	1	-9
682.142	1	19
682.480	1	3
682.819	1	8
683.158	1	11
683.496	1	-5
683.835	1	4
684.174	1	1
684.512	1	11
684.851	1	8
685.190	1	11
685.529	1	9
685.867	1	-1
686.206	1	23
686.545	1	7
686.883	1	-3
687.222	1	-4
687.561	1	11
687.899	1	7
688.238	1	10
688.577	1	2
688.746	1	-3