File: Analysis/GaN_68K_200ms/GaN_sample E_spot4_UVVIS_68 K_200um_200 ms 2x2mm1_409.txt
340.368	1	4
340.710	1	-9
341.052	1	7
341.394	1	1
341.737	1	7
342.079	1	-1
342.421	1	-10
342.763	1	-5
343.105	1	3
343.447	1	10
343.789	1	-6
344.131	1	-4
344.473	1	-10
344.815	1	4
345.157	1	2
345.499	1	2
345.841	1	2
346.183	1	-1
346.526	1	14
346.868	1	0
347.210	1	-1
347.552	1	6
347.894	1	-2
348.236	1	2
348.578	1	1
348.920	1	7
349.262	1	2
349.604	1	11
349.946	1	15
350.288	1	6
350.630	1	-5
350.972	1	2
351.314	1	-7
351.656	1	2
351.998	1	3
352.340	1	-1
352.682	1	-3
353.024	1	-7
353.366	1	-7
353.708	1	6
354.050	1	1
354.392	1	6
354.734	1	2
355.076	1	8
355.418	1	-7
355.760	1	4
356.102	1	-8
356.444	1	3
356.785	1	11
357.127	1	9
357.469	1	-4
357.811	1	21
358.153	1	4
358.495	1	15
358.837	1	-1
359.179	1	1
359.521	1	0
359.863	1	-8
360.205	1	1
360.547	1	-2
360.889	1	2
361.231	1	-2
361.572	1	-1
361.914	1	-8
362.256	1	12
362.598	1	-2
362.940	1	7
363.282	1	0
363.624	1	5
363.966	1	0
364.308	1	8
364.649	1	10
364.991	1	3
365.333	1	17
365.675	1	9
366.017	1	12
366.359	1	1
366.701	1	-8
367.042	1	17
367.384	1	17
367.726	1	23
368.068	1	-5
368.410	1	6
368.752	1	-2
369.093	1	5
369.435	1	-1
369.777	1	-4
370.119	1	3
370.461	1	-2
370.803	1	-1
371.144	1	17
371.486	1	17
371.828	1	10
372.170	1	12
372.512	1	-3
372.853	1	12
373.195	1	-8
373.537	1	4
373.879	1	10
374.220	1	-5
374.562	1	0
374.904	1	13
375.246	1	3
375.588	1	-4
375.929	1	2
376.271	1	-2
376.613	1	4
376.955	1	-3
377.296	1	0
377.638	1	8
377.980	1	13
378.321	1	6
378.663	1	-9
379.005	1	4
379.347	1	3
379.688	1	0
380.030	1	-7
380.372	1	0
380.714	1	7
381.055	1	0
381.397	1	6
381.739	1	12
382.080	1	-7
382.422	1	6
382.764	1	10
383.105	1	-5
383.447	1	12
383.789	1	-4
384.130	1	2
384.472	1	-3
384.814	1	10
385.156	1	15
385.497	1	18
385.839	1	6
386.180	1	13
386.522	1	17
386.864	1	3
387.205	1	-5
387.547	1	2
387.889	1	22
388.230	1	5
388.572	1	5
388.914	1	7
389.255	1	8
389.597	1	-4
389.939	1	1
390.280	1	16
390.622	1	11
390.963	1	8
391.305	1	16
391.647	1	0
391.988	1	1
392.330	1	12
392.671	1	19
393.013	1	17
393.355	1	18
393.696	1	1
394.038	1	-3
394.379	1	0
394.721	1	11
395.062	1	-7
395.404	1	2
395.746	1	5
396.087	1	9
396.429	1	8
396.770	1	4
397.112	1	1
397.453	1	-1
397.795	1	4
398.136	1	10
398.478	1	2
398.819	1	15
399.161	1	11
399.503	1	4
399.844	1	-2
400.186	1	9
400.527	1	7
400.869	1	20
401.210	1	-2
401.552	1	20
401.893	1	3
402.235	1	13
402.576	1	14
402.918	1	-1
403.259	1	2
403.601	1	-2
403.942	1	11
404.284	1	-2
404.625	1	7
404.967	1	1
405.308	1	0
405.649	1	-4
405.991	1	17
406.332	1	-3
406.674	1	-4
407.015	1	-3
407.357	1	9
407.698	1	-4
408.040	1	-3
408.381	1	-6
408.722	1	0
409.064	1	12
409.405	1	9
409.747	1	2
410.088	1	13
410.430	1	6
410.771	1	-2
411.112	1	7
411.454	1	14
411.795	1	4
412.137	1	15
412.478	1	9
412.819	1	-6
413.161	1	-9
413.502	1	-1
413.844	1	8
414.185	1	-3
414.526	1	10
414.868	1	10
415.209	1	2
415.550	1	1
415.892	1	3
416.233	1	1
416.575	1	-12
416.916	1	2
417.257	1	9
417.599	1	17
417.940	1	3
418.281	1	2
418.623	1	-3
418.964	1	-3
419.305	1	3
419.647	1	7
419.988	1	0
420.329	1	5
420.671	1	5
421.012	1	8
421.353	1	9
421.695	1	2
422.036	1	-2
422.377	1	0
422.718	1	-7
423.060	1	-7
423.401	1	1
423.742	1	-5
424.084	1	9
424.425	1	-3
424.766	1	12
425.107	1	1
425.449	1	4
425.790	1	0
426.131	1	7
426.472	1	1
426.814	1	19
427.155	1	-4
427.496	1	11
427.837	1	0
428.179	1	-2
428.520	1	-7
428.861	1	0
429.202	1	4
429.544	1	5
429.885	1	5
430.226	1	1
430.567	1	1
430.909	1	-9
431.250	1	-11
431.591	1	9
431.932	1	5
432.273	1	-2
432.615	1	6
432.956	1	2
433.297	1	12
433.638	1	-1
433.979	1	-5
434.320	1	3
434.662	1	-4
435.003	1	-2
435.344	1	2
435.685	1	4
436.026	1	5
436.368	1	-3
436.709	1	9
437.050	1	9
437.391	1	3
437.732	1	10
438.073	1	8
438.414	1	-7
438.756	1	9
439.097	1	6
439.438	1	8
439.779	1	-2
440.120	1	1
440.461	1	-9
440.802	1	4
441.143	1	16
441.485	1	3
441.826	1	-9
442.167	1	1
442.508	1	5
442.849	1	14
443.190	1	-3
443.531	1	-1
443.872	1	0
444.213	1	-4
444.554	1	-4
444.895	1	-4
445.237	1	0
445.578	1	18
445.919	1	-5
446.260	1	2
446.601	1	-6
446.942	1	-2
447.283	1	-1
447.624	1	4
447.965	1	7
448.306	1	-2
448.647	1	10
448.988	1	-9
449.329	1	0
449.670	1	6
450.011	1	6
450.352	1	7
450.693	1	0
451.034	1	8
451.375	1	15
451.716	1	5
452.057	1	2
452.398	1	-1
452.739	1	-3
453.080	1	9
453.421	1	1
453.762	1	9
454.103	1	8
454.444	1	7
454.785	1	-1
455.126	1	-5
455.467	1	5
455.808	1	1
456.149	1	-3
456.490	1	-4
456.831	1	10
457.172	1	0
457.513	1	10
457.854	1	4
458.195	1	-6
458.536	1	7
458.877	1	-6
459.218	1	3
459.559	1	7
459.899	1	8
460.240	1	1
460.581	1	9
460.922	1	-2
461.263	1	6
461.604	1	4
461.945	1	-1
462.286	1	13
462.627	1	4
462.968	1	-2
463.309	1	1
463.649	1	8
463.990	1	4
464.331	1	5
464.672	1	-2
465.013	1	-11
465.354	1	-4
465.695	1	4
466.036	1	9
466.376	1	-3
466.717	1	-9
467.058	1	2
467.399	1	2
467.740	1	-9
468.081	1	1
468.422	1	2
468.762	1	0
469.103	1	-5
469.444	1	3
469.785	1	5
470.126	1	9
470.467	1	0
470.807	1	-9
471.148	1	0
471.489	1	4
471.830	1	10
472.171	1	-3
472.511	1	15
472.852	1	-7
473.193	1	-3
473.534	1	0
473.875	1	3
474.215	1	6
474.556	1	-11
474.897	1	-4
475.238	1	2
475.578	1	6
475.919	1	2
476.260	1	-1
476.601	1	4
476.942	1	-4
477.282	1	-4
477.623	1	11
477.964	1	2
478.305	1	3
478.645	1	-4
478.986	1	10
479.327	1	-4
479.667	1	4
480.008	1	3
480.349	1	3
480.690	1	0
481.030	1	-1
481.371	1	-1
481.712	1	4
482.053	1	8
482.393	1	-9
482.734	1	7
483.075	1	6
483.415	1	4
483.756	1	6
484.097	1	2
484.437	1	-5
484.778	1	6
485.119	1	7
485.459	1	5
485.800	1	-9
486.141	1	-7
486.481	1	5
486.822	1	0
487.163	1	-8
487.503	1	-16
487.844	1	3
488.185	1	-6
488.525	1	-1
488.866	1	5
489.207	1	14
489.547	1	-4
489.888	1	6
490.228	1	-4
490.569	1	13
490.910	1	1
491.250	1	8
491.591	1	-1
491.932	1	9
492.272	1	10
492.613	1	4
492.953	1	13
493.294	1	4
493.635	1	-13
493.975	1	-6
494.316	1	8
494.656	1	8
494.997	1	-1
495.337	1	6
495.678	1	7
496.019	1	2
496.359	1	4
496.700	1	4
497.040	1	6
497.381	1	-16
497.721	1	-3
498.062	1	2
498.403	1	2
498.743	1	-2
499.084	1	-12
499.424	1	15
499.765	1	4
500.105	1	2
500.446	1	11
500.786	1	10
501.127	1	3
501.467	1	5
501.808	1	-12
502.148	1	6
502.489	1	2
502.829	1	0
503.170	1	-2
503.510	1	3
503.851	1	-6
504.191	1	15
504.532	1	-4
504.872	1	-3
505.213	1	1
505.553	1	4
505.894	1	6
506.234	1	18
506.575	1	-10
506.915	1	8
507.256	1	0
507.596	1	5
507.936	1	10
508.277	1	5
508.617	1	13
508.958	1	11
509.298	1	15
509.639	1	9
509.979	1	10
510.319	1	-3
510.660	1	-1
511.000	1	5
511.341	1	-6
511.681	1	3
512.022	1	-2
512.362	1	-3
512.702	1	-9
513.043	1	-1
513.383	1	0
513.724	1	12
514.064	1	2
514.404	1	0
514.745	1	-6
515.085	1	7
515.425	1	0
515.766	1	-2
516.106	1	-1
516.447	1	12
516.787	1	-7
517.127	1	3
517.468	1	4
517.808	1	4
518.148	1	4
518.489	1	8
518.829	1	-1
519.169	1	10
519.510	1	7
519.850	1	2
520.190	1	-1
520.531	1	4
520.871	1	4
521.211	1	10
521.552	1	6
521.892	1	3
522.232	1	-3
522.573	1	3
522.913	1	10
523.253	1	0
523.593	1	-9
523.934	1	12
524.274	1	0
524.614	1	5
524.955	1	-1
525.295	1	-7
525.635	1	7
525.975	1	-4
526.316	1	-4
526.656	1	23
526.996	1	8
527.337	1	6
527.677	1	16
528.017	1	-8
528.357	1	10
528.698	1	-2
529.038	1	3
529.378	1	7
529.718	1	10
530.058	1	-8
530.399	1	12
530.739	1	0
531.079	1	-2
531.419	1	14
531.760	1	5
532.100	1	15
532.440	1	0
532.780	1	-3
533.120	1	0
533.461	1	11
533.801	1	8
534.141	1	11
534.481	1	6
534.821	1	7
535.162	1	4
535.502	1	11
535.842	1	9
536.182	1	1
536.522	1	10
536.862	1	5
537.203	1	8
537.543	1	-2
537.883	1	11
538.223	1	7
538.563	1	6
538.903	1	-1
539.243	1	7
539.584	1	7
539.924	1	-1
540.264	1	10
540.604	1	11
540.944	1	0
541.284	1	3
541.624	1	9
541.964	1	0
542.305	1	-5
542.645	1	0
542.985	1	1
543.325	1	-5
543.665	1	10
544.005	1	0
544.345	1	-4
544.685	1	19
545.025	1	-7
545.365	1	2
545.705	1	6
546.045	1	8
546.386	1	5
546.726	1	-1
547.066	1	-6
547.406	1	13
547.746	1	0
548.086	1	5
548.426	1	-2
548.766	1	-4
549.106	1	11
549.446	1	5
549.786	1	-1
550.126	1	-2
550.466	1	-4
550.806	1	10
551.146	1	4
551.486	1	11
551.826	1	14
552.166	1	-1
552.506	1	5
552.846	1	5
553.186	1	10
553.526	1	1
553.866	1	2
554.206	1	3
554.546	1	-8
554.886	1	7
555.226	1	-6
555.566	1	4
555.906	1	10
556.246	1	12
556.586	1	9
556.926	1	7
557.266	1	19
557.606	1	-5
557.946	1	10
558.286	1	9
558.626	1	5
558.966	1	0
559.306	1	4
559.646	1	1
559.986	1	-9
560.325	1	-8
560.665	1	6
561.005	1	8
561.345	1	0
561.685	1	11
562.025	1	2
562.365	1	6
562.705	1	7
563.045	1	1
563.385	1	-12
563.725	1	3
564.064	1	15
564.404	1	-1
564.744	1	7
565.084	1	-12
565.424	1	4
565.764	1	6
566.104	1	5
566.444	1	10
566.783	1	-9
567.123	1	21
567.463	1	-5
567.803	1	-6
568.143	1	-5
568.483	1	-7
568.823	1	12
569.162	1	10
569.502	1	4
569.842	1	5
570.182	1	4
570.522	1	7
570.862	1	6
571.201	1	8
571.541	1	-8
571.881	1	2
572.221	1	13
572.561	1	-11
572.900	1	11
573.240	1	-12
573.580	1	3
573.920	1	-2
574.260	1	-2
574.599	1	0
574.939	1	-3
575.279	1	2
575.619	1	1
575.959	1	1
576.298	1	-4
576.638	1	0
576.978	1	5
577.318	1	2
577.657	1	-7
577.997	1	-4
578.337	1	-1
578.677	1	-6
579.016	1	12
579.356	1	-2
579.696	1	5
580.036	1	-11
580.375	1	4
580.715	1	7
581.055	1	6
581.394	1	-6
581.734	1	16
582.074	1	-2
582.414	1	6
582.753	1	2
583.093	1	-2
583.433	1	-6
583.772	1	-5
584.112	1	5
584.452	1	-11
584.791	1	-1
585.131	1	-9
585.471	1	-2
585.811	1	4
586.150	1	3
586.490	1	-4
586.830	1	-5
587.169	1	5
587.509	1	5
587.849	1	5
588.188	1	-9
588.528	1	3
588.867	1	11
589.207	1	-9
589.547	1	-7
589.886	1	-3
590.226	1	7
590.566	1	-7
590.905	1	7
591.245	1	8
591.585	1	0
591.924	1	-6
592.264	1	-7
592.603	1	-4
592.943	1	2
593.283	1	9
593.622	1	0
593.962	1	10
594.301	1	-4
594.641	1	4
594.981	1	3
595.320	1	8
595.660	1	2
595.999	1	3
596.339	1	5
596.678	1	-4
597.018	1	0
597.358	1	6
597.697	1	-9
598.037	1	-1
598.376	1	5
598.716	1	-11
599.055	1	5
599.395	1	12
599.734	1	-2
600.074	1	3
600.413	1	-2
600.753	1	0
601.092	1	-4
601.432	1	-1
601.771	1	3
602.111	1	-10
602.451	1	7
602.790	1	4
603.130	1	3
603.469	1	-1
603.809	1	12
604.148	1	8
604.487	1	-1
604.827	1	-9
605.166	1	-5
605.506	1	11
605.845	1	1
606.185	1	6
606.524	1	-5
606.864	1	-2
607.203	1	17
607.543	1	0
607.882	1	-3
608.222	1	-1
608.561	1	2
608.901	1	-2
609.240	1	6
609.579	1	5
609.919	1	-10
610.258	1	1
610.598	1	4
610.937	1	1
611.277	1	3
611.616	1	-6
611.955	1	11
612.295	1	4
612.634	1	-6
612.974	1	6
613.313	1	2
613.652	1	-1
613.992	1	10
614.331	1	11
614.671	1	0
615.010	1	1
615.349	1	3
615.689	1	2
616.028	1	2
616.368	1	2
616.707	1	-7
617.046	1	12
617.386	1	-7
617.725	1	8
618.064	1	2
618.404	1	9
618.743	1	0
619.082	1	1
619.422	1	-1
619.761	1	5
620.100	1	5
620.440	1	4
620.779	1	-3
621.118	1	-3
621.458	1	2
621.797	1	4
622.136	1	5
622.476	1	8
622.815	1	0
623.154	1	-2
623.494	1	9
623.833	1	-2
624.172	1	14
624.511	1	-1
624.851	1	-11
625.190	1	2
625.529	1	5
625.869	1	2
626.208	1	2
626.547	1	1
626.886	1	-6
627.226	1	6
627.565	1	10
627.904	1	0
628.243	1	-12
628.583	1	-4
628.922	1	0
629.261	1	9
629.600	1	11
629.940	1	7
630.279	1	0
630.618	1	-6
630.957	1	-3
631.297	1	-10
631.636	1	-3
631.975	1	10
632.314	1	15
632.653	1	-8
632.993	1	1
633.332	1	2
633.671	1	9
634.010	1	5
634.349	1	5
634.689	1	13
635.028	1	5
635.367	1	-2
635.706	1	1
636.045	1	2
636.384	1	7
636.724	1	-3
637.063	1	5
637.402	1	12
637.741	1	11
638.080	1	-9
638.419	1	7
638.759	1	1
639.098	1	7
639.437	1	-6
639.776	1	1
640.115	1	-8
640.454	1	10
640.793	1	2
641.132	1	4
641.472	1	-8
641.811	1	3
642.150	1	5
642.489	1	-1
642.828	1	9
643.167	1	5
643.506	1	3
643.845	1	0
644.184	1	5
644.524	1	-4
644.863	1	0
645.202	1	2
645.541	1	-11
645.880	1	4
646.219	1	7
646.558	1	-4
646.897	1	-5
647.236	1	8
647.575	1	12
647.914	1	-2
648.253	1	-1
648.592	1	2
648.931	1	13
649.270	1	9
649.610	1	10
649.949	1	4
650.288	1	-5
650.627	1	1
650.966	1	3
651.305	1	-5
651.644	1	2
651.983	1	0
652.322	1	5
652.661	1	6
653.000	1	0
653.339	1	5
653.678	1	4
654.017	1	-1
654.356	1	2
654.695	1	10
655.034	1	5
655.373	1	2
655.712	1	-12
656.051	1	11
656.390	1	5
656.729	1	7
657.068	1	-4
657.406	1	10
657.745	1	3
658.084	1	-1
658.423	1	-2
658.762	1	-4
659.101	1	0
659.440	1	5
659.779	1	-4
660.118	1	7
660.457	1	2
660.796	1	2
661.135	1	3
661.474	1	-1
661.813	1	3
662.152	1	6
662.491	1	3
662.829	1	-6
663.168	1	0
663.507	1	5
663.846	1	8
664.185	1	-1
664.524	1	-8
664.863	1	4
665.202	1	-7
665.541	1	2
665.879	1	3
666.218	1	-12
666.557	1	6
666.896	1	4
667.235	1	1
667.574	1	5
667.913	1	0
668.251	1	0
668.590	1	1
668.929	1	-1
669.268	1	5
669.607	1	-9
669.946	1	12
670.285	1	7
670.623	1	17
670.962	1	0
671.301	1	0
671.640	1	-15
671.979	1	9
672.317	1	-4
672.656	1	7
672.995	1	7
673.334	1	1
673.673	1	15
674.011	1	10
674.350	1	-5
674.689	1	-8
675.028	1	3
675.367	1	1
675.705	1	-2
676.044	1	-3
676.383	1	-11
676.722	1	1
677.060	1	0
677.399	1	-4
677.738	1	-9
678.077	1	-1
678.416	1	4
678.754	1	6
679.093	1	-4
679.432	1	-1
679.771	1	-4
680.109	1	17
680.448	1	0
680.787	1	-10
681.125	1	7
681.464	1	-6
681.803	1	-7
682.142	1	16
682.480	1	-7
682.819	1	-5
683.158	1	-2
683.496	1	-10
683.835	1	5
684.174	1	6
684.512	1	-5
684.851	1	0
685.190	1	11
685.529	1	3
685.867	1	-1
686.206	1	4
686.545	1	6
686.883	1	2
687.222	1	-1
687.561	1	0
687.899	1	3
688.238	1	4
688.577	1	-7
688.746	1	6