File: Analysis/GaN_68K_200ms/GaN_sample E_spot4_UVVIS_68 K_200um_200 ms 2x2mm1_173.txt
340.368	1	3
340.710	1	-3
341.052	1	12
341.394	1	2
341.737	1	7
342.079	1	-6
342.421	1	6
342.763	1	-1
343.105	1	14
343.447	1	7
343.789	1	1
344.131	1	-5
344.473	1	8
344.815	1	10
345.157	1	14
345.499	1	11
345.841	1	5
346.183	1	-2
346.526	1	6
346.868	1	5
347.210	1	0
347.552	1	1
347.894	1	9
348.236	1	10
348.578	1	12
348.920	1	8
349.262	1	3
349.604	1	18
349.946	1	10
350.288	1	-2
350.630	1	3
350.972	1	-2
351.314	1	2
351.656	1	2
351.998	1	0
352.340	1	0
352.682	1	-2
353.024	1	-4
353.366	1	10
353.708	1	10
354.050	1	5
354.392	1	3
354.734	1	3
355.076	1	10
355.418	1	7
355.760	1	11
356.102	1	-1
356.444	1	10
356.785	1	18
357.127	1	8
357.469	1	0
357.811	1	11
358.153	1	9
358.495	1	9
358.837	1	12
359.179	1	7
359.521	1	9
359.863	1	3
360.205	1	5
360.547	1	12
360.889	1	17
361.231	1	7
361.572	1	19
361.914	1	9
362.256	1	26
362.598	1	21
362.940	1	22
363.282	1	22
363.624	1	22
363.966	1	30
364.308	1	20
364.649	1	22
364.991	1	22
365.333	1	30
365.675	1	23
366.017	1	20
366.359	1	28
366.701	1	11
367.042	1	39
367.384	1	32
367.726	1	36
368.068	1	35
368.410	1	37
368.752	1	15
369.093	1	37
369.435	1	38
369.777	1	29
370.119	1	34
370.461	1	22
370.803	1	9
371.144	1	38
371.486	1	23
371.828	1	19
372.170	1	25
372.512	1	16
372.853	1	19
373.195	1	15
373.537	1	13
373.879	1	24
374.220	1	9
374.562	1	19
374.904	1	16
375.246	1	8
375.588	1	10
375.929	1	20
376.271	1	13
376.613	1	20
376.955	1	8
377.296	1	13
377.638	1	13
377.980	1	18
378.321	1	24
378.663	1	11
379.005	1	22
379.347	1	15
379.688	1	13
380.030	1	6
380.372	1	12
380.714	1	18
381.055	1	15
381.397	1	8
381.739	1	21
382.080	1	1
382.422	1	23
382.764	1	13
383.105	1	15
383.447	1	28
383.789	1	26
384.130	1	21
384.472	1	18
384.814	1	18
385.156	1	38
385.497	1	20
385.839	1	30
386.180	1	36
386.522	1	38
386.864	1	35
387.205	1	33
387.547	1	38
387.889	1	47
388.230	1	37
388.572	1	34
388.914	1	43
389.255	1	45
389.597	1	27
389.939	1	39
390.280	1	42
390.622	1	28
390.963	1	42
391.305	1	45
391.647	1	28
391.988	1	30
392.330	1	31
392.671	1	32
393.013	1	40
393.355	1	39
393.696	1	25
394.038	1	20
394.379	1	15
394.721	1	33
395.062	1	18
395.404	1	38
395.746	1	24
396.087	1	29
396.429	1	44
396.770	1	35
397.112	1	21
397.453	1	21
397.795	1	36
398.136	1	43
398.478	1	34
398.819	1	42
399.161	1	33
399.503	1	21
399.844	1	34
400.186	1	38
400.527	1	32
400.869	1	34
401.210	1	22
401.552	1	42
401.893	1	24
402.235	1	21
402.576	1	24
402.918	1	18
403.259	1	16
403.601	1	15
403.942	1	26
404.284	1	33
404.625	1	27
404.967	1	24
405.308	1	13
405.649	1	22
405.991	1	30
406.332	1	13
406.674	1	20
407.015	1	20
407.357	1	18
407.698	1	18
408.040	1	11
408.381	1	14
408.722	1	17
409.064	1	19
409.405	1	21
409.747	1	30
410.088	1	14
410.430	1	18
410.771	1	26
411.112	1	20
411.454	1	30
411.795	1	27
412.137	1	30
412.478	1	17
412.819	1	14
413.161	1	15
413.502	1	18
413.844	1	19
414.185	1	25
414.526	1	10
414.868	1	20
415.209	1	0
415.550	1	6
415.892	1	14
416.233	1	12
416.575	1	4
416.916	1	18
417.257	1	17
417.599	1	24
417.940	1	9
418.281	1	15
418.623	1	18
418.964	1	25
419.305	1	11
419.647	1	21
419.988	1	10
420.329	1	22
420.671	1	15
421.012	1	24
421.353	1	18
421.695	1	11
422.036	1	7
422.377	1	20
422.718	1	19
423.060	1	11
423.401	1	14
423.742	1	14
424.084	1	20
424.425	1	15
424.766	1	18
425.107	1	15
425.449	1	16
425.790	1	13
426.131	1	18
426.472	1	15
426.814	1	10
427.155	1	5
427.496	1	12
427.837	1	-3
428.179	1	8
428.520	1	8
428.861	1	10
429.202	1	20
429.544	1	9
429.885	1	14
430.226	1	12
430.567	1	12
430.909	1	3
431.250	1	4
431.591	1	15
431.932	1	20
432.273	1	10
432.615	1	8
432.956	1	13
433.297	1	19
433.638	1	18
433.979	1	11
434.320	1	-3
434.662	1	5
435.003	1	14
435.344	1	8
435.685	1	11
436.026	1	6
436.368	1	9
436.709	1	6
437.050	1	19
437.391	1	16
437.732	1	10
438.073	1	21
438.414	1	8
438.756	1	14
439.097	1	11
439.438	1	24
439.779	1	3
440.120	1	8
440.461	1	4
440.802	1	11
441.143	1	11
441.485	1	7
441.826	1	6
442.167	1	5
442.508	1	2
442.849	1	15
443.190	1	-6
443.531	1	-3
443.872	1	2
444.213	1	5
444.554	1	-1
444.895	1	14
445.237	1	11
445.578	1	13
445.919	1	10
446.260	1	6
446.601	1	6
446.942	1	21
447.283	1	4
447.624	1	17
447.965	1	3
448.306	1	6
448.647	1	18
448.988	1	0
449.329	1	12
449.670	1	20
450.011	1	10
450.352	1	17
450.693	1	12
451.034	1	11
451.375	1	17
451.716	1	9
452.057	1	16
452.398	1	13
452.739	1	7
453.080	1	18
453.421	1	6
453.762	1	7
454.103	1	0
454.444	1	15
454.785	1	4
455.126	1	3
455.467	1	12
455.808	1	0
456.149	1	2
456.490	1	12
456.831	1	8
457.172	1	2
457.513	1	22
457.854	1	0
458.195	1	6
458.536	1	15
458.877	1	6
459.218	1	11
459.559	1	14
459.899	1	12
460.240	1	17
460.581	1	9
460.922	1	1
461.263	1	14
461.604	1	9
461.945	1	5
462.286	1	12
462.627	1	1
462.968	1	2
463.309	1	4
463.649	1	11
463.990	1	6
464.331	1	6
464.672	1	6
465.013	1	-4
465.354	1	7
465.695	1	10
466.036	1	16
466.376	1	6
466.717	1	-2
467.058	1	23
467.399	1	10
467.740	1	-1
468.081	1	10
468.422	1	13
468.762	1	-8
469.103	1	7
469.444	1	5
469.785	1	16
470.126	1	10
470.467	1	5
470.807	1	5
471.148	1	-5
471.489	1	-2
471.830	1	14
472.171	1	-1
472.511	1	17
472.852	1	2
473.193	1	4
473.534	1	2
473.875	1	4
474.215	1	3
474.556	1	-7
474.897	1	9
475.238	1	6
475.578	1	6
475.919	1	7
476.260	1	2
476.601	1	12
476.942	1	9
477.282	1	6
477.623	1	13
477.964	1	13
478.305	1	11
478.645	1	3
478.986	1	-3
479.327	1	-5
479.667	1	1
480.008	1	12
480.349	1	11
480.690	1	5
481.030	1	4
481.371	1	9
481.712	1	10
482.053	1	14
482.393	1	1
482.734	1	11
483.075	1	6
483.415	1	9
483.756	1	7
484.097	1	-8
484.437	1	-8
484.778	1	7
485.119	1	8
485.459	1	11
485.800	1	0
486.141	1	3
486.481	1	12
486.822	1	7
487.163	1	4
487.503	1	-2
487.844	1	11
488.185	1	-2
488.525	1	2
488.866	1	16
489.207	1	14
489.547	1	-5
489.888	1	6
490.228	1	-1
490.569	1	12
490.910	1	9
491.250	1	7
491.591	1	1
491.932	1	12
492.272	1	25
492.613	1	14
492.953	1	7
493.294	1	9
493.635	1	5
493.975	1	11
494.316	1	16
494.656	1	14
494.997	1	-2
495.337	1	15
495.678	1	19
496.019	1	1
496.359	1	11
496.700	1	18
497.040	1	14
497.381	1	-5
497.721	1	8
498.062	1	13
498.403	1	10
498.743	1	18
499.084	1	9
499.424	1	11
499.765	1	2
500.105	1	12
500.446	1	17
500.786	1	13
501.127	1	12
501.467	1	9
501.808	1	2
502.148	1	24
502.489	1	17
502.829	1	14
503.170	1	15
503.510	1	11
503.851	1	-3
504.191	1	17
504.532	1	3
504.872	1	7
505.213	1	18
505.553	1	20
505.894	1	25
506.234	1	24
506.575	1	21
506.915	1	18
507.256	1	15
507.596	1	19
507.936	1	25
508.277	1	21
508.617	1	26
508.958	1	23
509.298	1	26
509.639	1	23
509.979	1	7
510.319	1	11
510.660	1	23
511.000	1	27
511.341	1	7
511.681	1	17
512.022	1	13
512.362	1	24
512.702	1	8
513.043	1	20
513.383	1	9
513.724	1	19
514.064	1	11
514.404	1	21
514.745	1	15
515.085	1	16
515.425	1	17
515.766	1	14
516.106	1	22
516.447	1	16
516.787	1	17
517.127	1	22
517.468	1	21
517.808	1	21
518.148	1	20
518.489	1	30
518.829	1	4
519.169	1	32
519.510	1	12
519.850	1	17
520.190	1	22
520.531	1	31
520.871	1	18
521.211	1	15
521.552	1	34
521.892	1	11
522.232	1	27
522.573	1	16
522.913	1	18
523.253	1	14
523.593	1	21
523.934	1	30
524.274	1	13
524.614	1	25
524.955	1	21
525.295	1	22
525.635	1	21
525.975	1	13
526.316	1	23
526.656	1	29
526.996	1	32
527.337	1	26
527.677	1	28
528.017	1	22
528.357	1	29
528.698	1	18
529.038	1	28
529.378	1	33
529.718	1	29
530.058	1	15
530.399	1	37
530.739	1	23
531.079	1	30
531.419	1	33
531.760	1	35
532.100	1	23
532.440	1	30
532.780	1	19
533.120	1	28
533.461	1	29
533.801	1	31
534.141	1	42
534.481	1	28
534.821	1	30
535.162	1	29
535.502	1	34
535.842	1	31
536.182	1	24
536.522	1	33
536.862	1	35
537.203	1	36
537.543	1	27
537.883	1	25
538.223	1	42
538.563	1	18
538.903	1	25
539.243	1	12
539.584	1	34
539.924	1	18
540.264	1	29
540.604	1	28
540.944	1	25
541.284	1	23
541.624	1	24
541.964	1	31
542.305	1	13
542.645	1	27
542.985	1	16
543.325	1	19
543.665	1	24
544.005	1	18
544.345	1	16
544.685	1	32
545.025	1	16
545.365	1	17
545.705	1	30
546.045	1	24
546.386	1	24
546.726	1	17
547.066	1	15
547.406	1	31
547.746	1	25
548.086	1	26
548.426	1	5
548.766	1	27
549.106	1	25
549.446	1	26
549.786	1	21
550.126	1	19
550.466	1	18
550.806	1	29
551.146	1	16
551.486	1	14
551.826	1	29
552.166	1	14
552.506	1	20
552.846	1	17
553.186	1	21
553.526	1	11
553.866	1	22
554.206	1	29
554.546	1	11
554.886	1	21
555.226	1	5
555.566	1	19
555.906	1	26
556.246	1	17
556.586	1	27
556.926	1	27
557.266	1	17
557.606	1	15
557.946	1	18
558.286	1	26
558.626	1	21
558.966	1	21
559.306	1	13
559.646	1	8
559.986	1	14
560.325	1	8
560.665	1	24
561.005	1	18
561.345	1	13
561.685	1	9
562.025	1	5
562.365	1	19
562.705	1	18
563.045	1	14
563.385	1	12
563.725	1	5
564.064	1	24
564.404	1	8
564.744	1	18
565.084	1	6
565.424	1	13
565.764	1	16
566.104	1	6
566.444	1	25
566.783	1	12
567.123	1	28
567.463	1	9
567.803	1	3
568.143	1	2
568.483	1	5
568.823	1	22
569.162	1	17
569.502	1	16
569.842	1	11
570.182	1	11
570.522	1	18
570.862	1	18
571.201	1	12
571.541	1	8
571.881	1	16
572.221	1	26
572.561	1	1
572.900	1	26
573.240	1	0
573.580	1	20
573.920	1	16
574.260	1	9
574.599	1	4
574.939	1	3
575.279	1	15
575.619	1	17
575.959	1	5
576.298	1	1
576.638	1	8
576.978	1	16
577.318	1	16
577.657	1	-12
577.997	1	-2
578.337	1	16
578.677	1	14
579.016	1	23
579.356	1	8
579.696	1	22
580.036	1	2
580.375	1	9
580.715	1	25
581.055	1	18
581.394	1	12
581.734	1	13
582.074	1	3
582.414	1	11
582.753	1	17
583.093	1	2
583.433	1	1
583.772	1	10
584.112	1	6
584.452	1	5
584.791	1	5
585.131	1	4
585.471	1	5
585.811	1	7
586.150	1	6
586.490	1	-4
586.830	1	-3
587.169	1	2
587.509	1	8
587.849	1	19
588.188	1	3
588.528	1	10
588.867	1	6
589.207	1	-2
589.547	1	6
589.886	1	7
590.226	1	11
590.566	1	12
590.905	1	10
591.245	1	0
591.585	1	9
591.924	1	0
592.264	1	15
592.603	1	-5
592.943	1	12
593.283	1	17
593.622	1	8
593.962	1	6
594.301	1	18
594.641	1	-4
594.981	1	13
595.320	1	12
595.660	1	1
595.999	1	9
596.339	1	8
596.678	1	12
597.018	1	9
597.358	1	2
597.697	1	7
598.037	1	6
598.376	1	15
598.716	1	3
599.055	1	9
599.395	1	13
599.734	1	8
600.074	1	2
600.413	1	10
600.753	1	10
601.092	1	0
601.432	1	10
601.771	1	9
602.111	1	4
602.451	1	9
602.790	1	9
603.130	1	7
603.469	1	6
603.809	1	16
604.148	1	5
604.487	1	8
604.827	1	-3
605.166	1	0
605.506	1	4
605.845	1	5
606.185	1	4
606.524	1	-1
606.864	1	3
607.203	1	17
607.543	1	-6
607.882	1	2
608.222	1	10
608.561	1	14
608.901	1	15
609.240	1	-1
609.579	1	12
609.919	1	0
610.258	1	14
610.598	1	9
610.937	1	5
611.277	1	6
611.616	1	2
611.955	1	10
612.295	1	5
612.634	1	0
612.974	1	16
613.313	1	2
613.652	1	0
613.992	1	7
614.331	1	6
614.671	1	12
615.010	1	7
615.349	1	-2
615.689	1	8
616.028	1	3
616.368	1	2
616.707	1	2
617.046	1	5
617.386	1	7
617.725	1	16
618.064	1	17
618.404	1	7
618.743	1	9
619.082	1	7
619.422	1	18
619.761	1	7
620.100	1	6
620.440	1	1
620.779	1	5
621.118	1	5
621.458	1	10
621.797	1	0
622.136	1	7
622.476	1	10
622.815	1	7
623.154	1	11
623.494	1	6
623.833	1	0
624.172	1	22
624.511	1	7
624.851	1	-3
625.190	1	3
625.529	1	-2
625.869	1	9
626.208	1	5
626.547	1	8
626.886	1	-2
627.226	1	11
627.565	1	12
627.904	1	13
628.243	1	-1
628.583	1	-1
628.922	1	2
629.261	1	10
629.600	1	7
629.940	1	13
630.279	1	6
630.618	1	9
630.957	1	-2
631.297	1	5
631.636	1	0
631.975	1	4
632.314	1	13
632.653	1	-4
632.993	1	12
633.332	1	3
633.671	1	5
634.010	1	6
634.349	1	7
634.689	1	13
635.028	1	0
635.367	1	5
635.706	1	-2
636.045	1	2
636.384	1	8
636.724	1	-1
637.063	1	8
637.402	1	17
637.741	1	9
638.080	1	2
638.419	1	10
638.759	1	4
639.098	1	7
639.437	1	-5
639.776	1	4
640.115	1	4
640.454	1	14
640.793	1	5
641.132	1	15
641.472	1	6
641.811	1	4
642.150	1	9
642.489	1	11
642.828	1	3
643.167	1	20
643.506	1	-5
643.845	1	6
644.184	1	7
644.524	1	-11
644.863	1	-3
645.202	1	7
645.541	1	2
645.880	1	6
646.219	1	12
646.558	1	4
646.897	1	-2
647.236	1	1
647.575	1	4
647.914	1	0
648.253	1	6
648.592	1	6
648.931	1	11
649.270	1	13
649.610	1	18
649.949	1	1
650.288	1	-3
650.627	1	3
650.966	1	0
651.305	1	1
651.644	1	6
651.983	1	11
652.322	1	-1
652.661	1	10
653.000	1	-4
653.339	1	4
653.678	1	-1
654.017	1	3
654.356	1	12
654.695	1	3
655.034	1	16
655.373	1	7
655.712	1	1
656.051	1	7
656.390	1	4
656.729	1	8
657.068	1	7
657.406	1	13
657.745	1	-9
658.084	1	12
658.423	1	-10
658.762	1	2
659.101	1	7
659.440	1	17
659.779	1	4
660.118	1	4
660.457	1	-4
660.796	1	0
661.135	1	17
661.474	1	7
661.813	1	9
662.152	1	5
662.491	1	0
662.829	1	6
663.168	1	-4
663.507	1	9
663.846	1	11
664.185	1	0
664.524	1	0
664.863	1	9
665.202	1	3
665.541	1	-2
665.879	1	-1
666.218	1	4
666.557	1	8
666.896	1	-3
667.235	1	5
667.574	1	6
667.913	1	4
668.251	1	4
668.590	1	1
668.929	1	7
669.268	1	2
669.607	1	-4
669.946	1	10
670.285	1	10
670.623	1	-1
670.962	1	0
671.301	1	5
671.640	1	0
671.979	1	19
672.317	1	8
672.656	1	11
672.995	1	4
673.334	1	8
673.673	1	16
674.011	1	2
674.350	1	-3
674.689	1	3
675.028	1	16
675.367	1	-7
675.705	1	-1
676.044	1	2
676.383	1	12
676.722	1	2
677.060	1	7
677.399	1	1
677.738	1	3
678.077	1	1
678.416	1	13
678.754	1	1
679.093	1	10
679.432	1	6
679.771	1	7
680.109	1	7
680.448	1	4
680.787	1	10
681.125	1	8
681.464	1	-1
681.803	1	-5
682.142	1	24
682.480	1	0
682.819	1	2
683.158	1	5
683.496	1	2
683.835	1	9
684.174	1	-6
684.512	1	7
684.851	1	8
685.190	1	13
685.529	1	4
685.867	1	4
686.206	1	11
686.545	1	10
686.883	1	-2
687.222	1	2
687.561	1	6
687.899	1	6
688.238	1	6
688.577	1	-5
688.746	1	4