File: Analysis/GaN_68K_200ms/GaN_sample E_spot4_UVVIS_68 K_200um_200 ms 2x2mm1_315.txt
340.368	1	6
340.710	1	-4
341.052	1	-5
341.394	1	-3
341.737	1	7
342.079	1	0
342.421	1	-7
342.763	1	6
343.105	1	4
343.447	1	5
343.789	1	-1
344.131	1	1
344.473	1	-8
344.815	1	9
345.157	1	12
345.499	1	7
345.841	1	4
346.183	1	5
346.526	1	15
346.868	1	16
347.210	1	4
347.552	1	2
347.894	1	4
348.236	1	5
348.578	1	1
348.920	1	19
349.262	1	3
349.604	1	13
349.946	1	16
350.288	1	3
350.630	1	-4
350.972	1	7
351.314	1	-8
351.656	1	9
351.998	1	-3
352.340	1	2
352.682	1	-4
353.024	1	-4
353.366	1	5
353.708	1	5
354.050	1	1
354.392	1	8
354.734	1	-2
355.076	1	-2
355.418	1	0
355.760	1	7
356.102	1	-5
356.444	1	8
356.785	1	17
357.127	1	6
357.469	1	1
357.811	1	7
358.153	1	3
358.495	1	10
358.837	1	-3
359.179	1	13
359.521	1	2
359.863	1	-1
360.205	1	9
360.547	1	3
360.889	1	7
361.231	1	5
361.572	1	3
361.914	1	1
362.256	1	9
362.598	1	8
362.940	1	9
363.282	1	18
363.624	1	9
363.966	1	11
364.308	1	-1
364.649	1	-4
364.991	1	8
365.333	1	17
365.675	1	4
366.017	1	6
366.359	1	7
366.701	1	8
367.042	1	22
367.384	1	21
367.726	1	10
368.068	1	-6
368.410	1	5
368.752	1	0
369.093	1	12
369.435	1	10
369.777	1	6
370.119	1	8
370.461	1	7
370.803	1	4
371.144	1	14
371.486	1	22
371.828	1	11
372.170	1	10
372.512	1	4
372.853	1	7
373.195	1	-3
373.537	1	8
373.879	1	8
374.220	1	-1
374.562	1	6
374.904	1	4
375.246	1	0
375.588	1	11
375.929	1	6
376.271	1	-3
376.613	1	16
376.955	1	-1
377.296	1	8
377.638	1	8
377.980	1	19
378.321	1	9
378.663	1	-3
379.005	1	5
379.347	1	-4
379.688	1	1
380.030	1	-3
380.372	1	6
380.714	1	3
381.055	1	3
381.397	1	-2
381.739	1	3
382.080	1	-7
382.422	1	16
382.764	1	-4
383.105	1	6
383.447	1	12
383.789	1	3
384.130	1	-1
384.472	1	3
384.814	1	8
385.156	1	9
385.497	1	14
385.839	1	12
386.180	1	8
386.522	1	7
386.864	1	2
387.205	1	8
387.547	1	5
387.889	1	16
388.230	1	-1
388.572	1	2
388.914	1	21
389.255	1	12
389.597	1	10
389.939	1	19
390.280	1	15
390.622	1	4
390.963	1	22
391.305	1	15
391.647	1	9
391.988	1	5
392.330	1	7
392.671	1	13
393.013	1	14
393.355	1	19
393.696	1	6
394.038	1	0
394.379	1	9
394.721	1	10
395.062	1	1
395.404	1	7
395.746	1	6
396.087	1	6
396.429	1	4
396.770	1	9
397.112	1	0
397.453	1	-3
397.795	1	10
398.136	1	8
398.478	1	13
398.819	1	14
399.161	1	9
399.503	1	1
399.844	1	3
400.186	1	12
400.527	1	3
400.869	1	9
401.210	1	-1
401.552	1	15
401.893	1	7
402.235	1	16
402.576	1	26
402.918	1	3
403.259	1	-7
403.601	1	0
403.942	1	11
404.284	1	4
404.625	1	8
404.967	1	8
405.308	1	4
405.649	1	7
405.991	1	11
406.332	1	4
406.674	1	10
407.015	1	-2
407.357	1	8
407.698	1	1
408.040	1	9
408.381	1	9
408.722	1	4
409.064	1	3
409.405	1	7
409.747	1	1
410.088	1	3
410.430	1	14
410.771	1	9
411.112	1	12
411.454	1	23
411.795	1	2
412.137	1	22
412.478	1	5
412.819	1	5
413.161	1	6
413.502	1	2
413.844	1	-2
414.185	1	4
414.526	1	8
414.868	1	9
415.209	1	5
415.550	1	1
415.892	1	1
416.233	1	6
416.575	1	4
416.916	1	1
417.257	1	15
417.599	1	6
417.940	1	-3
418.281	1	7
418.623	1	8
418.964	1	5
419.305	1	9
419.647	1	13
419.988	1	0
420.329	1	1
420.671	1	8
421.012	1	9
421.353	1	5
421.695	1	8
422.036	1	7
422.377	1	7
422.718	1	8
423.060	1	7
423.401	1	6
423.742	1	6
424.084	1	4
424.425	1	-6
424.766	1	11
425.107	1	-2
425.449	1	3
425.790	1	-3
426.131	1	7
426.472	1	-1
426.814	1	10
427.155	1	3
427.496	1	7
427.837	1	-2
428.179	1	-4
428.520	1	-1
428.861	1	0
429.202	1	6
429.544	1	10
429.885	1	6
430.226	1	3
430.567	1	18
430.909	1	-11
431.250	1	-11
431.591	1	10
431.932	1	1
432.273	1	7
432.615	1	2
432.956	1	-2
433.297	1	18
433.638	1	-2
433.979	1	12
434.320	1	9
434.662	1	-1
435.003	1	14
435.344	1	7
435.685	1	6
436.026	1	2
436.368	1	-6
436.709	1	-8
437.050	1	8
437.391	1	7
437.732	1	-2
438.073	1	6
438.414	1	6
438.756	1	13
439.097	1	8
439.438	1	11
439.779	1	2
440.120	1	2
440.461	1	-3
440.802	1	12
441.143	1	12
441.485	1	1
441.826	1	-3
442.167	1	1
442.508	1	7
442.849	1	6
443.190	1	-3
443.531	1	-1
443.872	1	6
444.213	1	0
444.554	1	-2
444.895	1	8
445.237	1	-1
445.578	1	4
445.919	1	2
446.260	1	3
446.601	1	-6
446.942	1	-2
447.283	1	3
447.624	1	11
447.965	1	-3
448.306	1	3
448.647	1	17
448.988	1	-7
449.329	1	5
449.670	1	3
450.011	1	10
450.352	1	4
450.693	1	8
451.034	1	-1
451.375	1	17
451.716	1	8
452.057	1	8
452.398	1	8
452.739	1	0
453.080	1	13
453.421	1	0
453.762	1	5
454.103	1	10
454.444	1	5
454.785	1	2
455.126	1	3
455.467	1	-1
455.808	1	5
456.149	1	0
456.490	1	-4
456.831	1	17
457.172	1	1
457.513	1	9
457.854	1	-5
458.195	1	-7
458.536	1	5
458.877	1	2
459.218	1	3
459.559	1	-3
459.899	1	11
460.240	1	4
460.581	1	13
460.922	1	-2
461.263	1	-3
461.604	1	2
461.945	1	15
462.286	1	16
462.627	1	0
462.968	1	-10
463.309	1	0
463.649	1	3
463.990	1	5
464.331	1	-5
464.672	1	2
465.013	1	1
465.354	1	5
465.695	1	13
466.036	1	6
466.376	1	-3
466.717	1	2
467.058	1	13
467.399	1	4
467.740	1	1
468.081	1	6
468.422	1	11
468.762	1	-6
469.103	1	-2
469.444	1	-3
469.785	1	5
470.126	1	2
470.467	1	3
470.807	1	-2
471.148	1	0
471.489	1	7
471.830	1	22
472.171	1	6
472.511	1	10
472.852	1	4
473.193	1	-1
473.534	1	2
473.875	1	11
474.215	1	-7
474.556	1	-4
474.897	1	-3
475.238	1	10
475.578	1	-1
475.919	1	-2
476.260	1	-4
476.601	1	2
476.942	1	3
477.282	1	-10
477.623	1	4
477.964	1	10
478.305	1	1
478.645	1	6
478.986	1	5
479.327	1	-2
479.667	1	-9
480.008	1	9
480.349	1	1
480.690	1	-3
481.030	1	2
481.371	1	3
481.712	1	5
482.053	1	7
482.393	1	1
482.734	1	3
483.075	1	6
483.415	1	10
483.756	1	13
484.097	1	7
484.437	1	-11
484.778	1	7
485.119	1	11
485.459	1	7
485.800	1	-2
486.141	1	0
486.481	1	6
486.822	1	11
487.163	1	-13
487.503	1	-2
487.844	1	-9
488.185	1	-3
488.525	1	0
488.866	1	7
489.207	1	13
489.547	1	-7
489.888	1	1
490.228	1	-7
490.569	1	11
490.910	1	-2
491.250	1	1
491.591	1	-5
491.932	1	8
492.272	1	4
492.613	1	7
492.953	1	-7
493.294	1	7
493.635	1	4
493.975	1	3
494.316	1	12
494.656	1	4
494.997	1	4
495.337	1	4
495.678	1	8
496.019	1	-5
496.359	1	8
496.700	1	4
497.040	1	5
497.381	1	-11
497.721	1	-1
498.062	1	-5
498.403	1	3
498.743	1	8
499.084	1	-14
499.424	1	4
499.765	1	3
500.105	1	7
500.446	1	13
500.786	1	6
501.127	1	15
501.467	1	-2
501.808	1	-11
502.148	1	9
502.489	1	15
502.829	1	6
503.170	1	0
503.510	1	8
503.851	1	-2
504.191	1	0
504.532	1	-2
504.872	1	-4
505.213	1	-3
505.553	1	10
505.894	1	5
506.234	1	11
506.575	1	-12
506.915	1	2
507.256	1	-1
507.596	1	5
507.936	1	-3
508.277	1	-4
508.617	1	11
508.958	1	14
509.298	1	15
509.639	1	13
509.979	1	7
510.319	1	4
510.660	1	3
511.000	1	11
511.341	1	-3
511.681	1	-2
512.022	1	-1
512.362	1	-6
512.702	1	1
513.043	1	9
513.383	1	-7
513.724	1	7
514.064	1	7
514.404	1	9
514.745	1	-1
515.085	1	2
515.425	1	-2
515.766	1	8
516.106	1	5
516.447	1	9
516.787	1	-6
517.127	1	13
517.468	1	13
517.808	1	6
518.148	1	2
518.489	1	3
518.829	1	6
519.169	1	12
519.510	1	5
519.850	1	2
520.190	1	2
520.531	1	5
520.871	1	-5
521.211	1	11
521.552	1	9
521.892	1	-10
522.232	1	-6
522.573	1	11
522.913	1	7
523.253	1	16
523.593	1	4
523.934	1	11
524.274	1	-3
524.614	1	4
524.955	1	1
525.295	1	4
525.635	1	10
525.975	1	7
526.316	1	2
526.656	1	17
526.996	1	15
527.337	1	3
527.677	1	23
528.017	1	-5
528.357	1	8
528.698	1	9
529.038	1	10
529.378	1	1
529.718	1	1
530.058	1	9
530.399	1	10
530.739	1	9
531.079	1	18
531.419	1	6
531.760	1	12
532.100	1	5
532.440	1	2
532.780	1	11
533.120	1	-10
533.461	1	15
533.801	1	4
534.141	1	16
534.481	1	7
534.821	1	7
535.162	1	6
535.502	1	15
535.842	1	3
536.182	1	3
536.522	1	5
536.862	1	17
537.203	1	8
537.543	1	14
537.883	1	7
538.223	1	20
538.563	1	9
538.903	1	0
539.243	1	11
539.584	1	5
539.924	1	9
540.264	1	10
540.604	1	17
540.944	1	-2
541.284	1	4
541.624	1	6
541.964	1	15
542.305	1	-3
542.645	1	0
542.985	1	8
543.325	1	9
543.665	1	20
544.005	1	-1
544.345	1	-2
544.685	1	12
545.025	1	4
545.365	1	5
545.705	1	8
546.045	1	-2
546.386	1	7
546.726	1	7
547.066	1	-5
547.406	1	10
547.746	1	9
548.086	1	8
548.426	1	-4
548.766	1	5
549.106	1	10
549.446	1	-6
549.786	1	10
550.126	1	7
550.466	1	-1
550.806	1	3
551.146	1	-6
551.486	1	12
551.826	1	-2
552.166	1	-2
552.506	1	-3
552.846	1	8
553.186	1	-3
553.526	1	-2
553.866	1	10
554.206	1	9
554.546	1	-1
554.886	1	2
555.226	1	-3
555.566	1	7
555.906	1	14
556.246	1	8
556.586	1	10
556.926	1	8
557.266	1	7
557.606	1	-3
557.946	1	10
558.286	1	12
558.626	1	-1
558.966	1	2
559.306	1	2
559.646	1	5
559.986	1	4
560.325	1	-6
560.665	1	10
561.005	1	-4
561.345	1	1
561.685	1	5
562.025	1	-5
562.365	1	0
562.705	1	5
563.045	1	7
563.385	1	8
563.725	1	7
564.064	1	1
564.404	1	9
564.744	1	7
565.084	1	-3
565.424	1	-1
565.764	1	9
566.104	1	-3
566.444	1	11
566.783	1	4
567.123	1	6
567.463	1	12
567.803	1	10
568.143	1	-6
568.483	1	1
568.823	1	10
569.162	1	-2
569.502	1	4
569.842	1	-4
570.182	1	-1
570.522	1	7
570.862	1	8
571.201	1	8
571.541	1	-6
571.881	1	6
572.221	1	15
572.561	1	-6
572.900	1	17
573.240	1	2
573.580	1	2
573.920	1	-1
574.260	1	3
574.599	1	1
574.939	1	-3
575.279	1	11
575.619	1	3
575.959	1	-5
576.298	1	-4
576.638	1	11
576.978	1	5
577.318	1	16
577.657	1	-13
577.997	1	-16
578.337	1	1
578.677	1	-3
579.016	1	14
579.356	1	0
579.696	1	0
580.036	1	-4
580.375	1	0
580.715	1	1
581.055	1	14
581.394	1	-2
581.734	1	4
582.074	1	4
582.414	1	2
582.753	1	8
583.093	1	1
583.433	1	2
583.772	1	0
584.112	1	8
584.452	1	0
584.791	1	2
585.131	1	-7
585.471	1	1
585.811	1	7
586.150	1	-1
586.490	1	5
586.830	1	3
587.169	1	3
587.509	1	2
587.849	1	4
588.188	1	6
588.528	1	2
588.867	1	6
589.207	1	-4
589.547	1	-1
589.886	1	1
590.226	1	0
590.566	1	0
590.905	1	6
591.245	1	7
591.585	1	-2
591.924	1	-3
592.264	1	4
592.603	1	2
592.943	1	-2
593.283	1	-1
593.622	1	6
593.962	1	7
594.301	1	12
594.641	1	2
594.981	1	-3
595.320	1	8
595.660	1	8
595.999	1	14
596.339	1	3
596.678	1	-4
597.018	1	8
597.358	1	12
597.697	1	-3
598.037	1	-5
598.376	1	8
598.716	1	-13
599.055	1	4
599.395	1	19
599.734	1	13
600.074	1	4
600.413	1	1
600.753	1	8
601.092	1	-8
601.432	1	3
601.771	1	15
602.111	1	-2
602.451	1	3
602.790	1	5
603.130	1	15
603.469	1	1
603.809	1	8
604.148	1	8
604.487	1	9
604.827	1	-12
605.166	1	1
605.506	1	3
605.845	1	-5
606.185	1	-3
606.524	1	-7
606.864	1	2
607.203	1	18
607.543	1	-2
607.882	1	-9
608.222	1	3
608.561	1	4
608.901	1	6
609.240	1	8
609.579	1	2
609.919	1	-3
610.258	1	4
610.598	1	4
610.937	1	9
611.277	1	-2
611.616	1	-3
611.955	1	-1
612.295	1	7
612.634	1	5
612.974	1	17
613.313	1	11
613.652	1	-8
613.992	1	7
614.331	1	7
614.671	1	2
615.010	1	1
615.349	1	2
615.689	1	6
616.028	1	3
616.368	1	-2
616.707	1	-3
617.046	1	5
617.386	1	2
617.725	1	11
618.064	1	-1
618.404	1	7
618.743	1	-3
619.082	1	8
619.422	1	-3
619.761	1	-4
620.100	1	4
620.440	1	4
620.779	1	4
621.118	1	-1
621.458	1	-1
621.797	1	3
622.136	1	7
622.476	1	5
622.815	1	-5
623.154	1	12
623.494	1	0
623.833	1	6
624.172	1	12
624.511	1	7
624.851	1	-13
625.190	1	7
625.529	1	7
625.869	1	14
626.208	1	9
626.547	1	11
626.886	1	2
627.226	1	5
627.565	1	5
627.904	1	9
628.243	1	3
628.583	1	6
628.922	1	-6
629.261	1	10
629.600	1	10
629.940	1	3
630.279	1	-4
630.618	1	11
630.957	1	3
631.297	1	3
631.636	1	4
631.975	1	-3
632.314	1	8
632.653	1	-12
632.993	1	8
633.332	1	4
633.671	1	5
634.010	1	4
634.349	1	9
634.689	1	11
635.028	1	2
635.367	1	3
635.706	1	-5
636.045	1	0
636.384	1	8
636.724	1	4
637.063	1	1
637.402	1	8
637.741	1	5
638.080	1	0
638.419	1	3
638.759	1	8
639.098	1	4
639.437	1	-9
639.776	1	2
640.115	1	0
640.454	1	14
640.793	1	8
641.132	1	19
641.472	1	-6
641.811	1	4
642.150	1	-6
642.489	1	2
642.828	1	3
643.167	1	5
643.506	1	-11
643.845	1	5
644.184	1	10
644.524	1	-3
644.863	1	2
645.202	1	-3
645.541	1	-8
645.880	1	8
646.219	1	9
646.558	1	1
646.897	1	2
647.236	1	-1
647.575	1	8
647.914	1	0
648.253	1	-1
648.592	1	5
648.931	1	9
649.270	1	3
649.610	1	17
649.949	1	-3
650.288	1	-3
650.627	1	7
650.966	1	-4
651.305	1	-5
651.644	1	8
651.983	1	0
652.322	1	1
652.661	1	7
653.000	1	-3
653.339	1	2
653.678	1	1
654.017	1	2
654.356	1	13
654.695	1	-2
655.034	1	0
655.373	1	-2
655.712	1	-6
656.051	1	17
656.390	1	-3
656.729	1	0
657.068	1	3
657.406	1	11
657.745	1	-6
658.084	1	3
658.423	1	0
658.762	1	-3
659.101	1	-4
659.440	1	7
659.779	1	-6
660.118	1	11
660.457	1	-7
660.796	1	7
661.135	1	3
661.474	1	0
661.813	1	4
662.152	1	1
662.491	1	5
662.829	1	-4
663.168	1	-6
663.507	1	4
663.846	1	11
664.185	1	1
664.524	1	-7
664.863	1	-2
665.202	1	-6
665.541	1	-2
665.879	1	7
666.218	1	-7
666.557	1	3
666.896	1	-4
667.235	1	5
667.574	1	5
667.913	1	-2
668.251	1	-3
668.590	1	-7
668.929	1	-3
669.268	1	-1
669.607	1	-5
669.946	1	6
670.285	1	3
670.623	1	13
670.962	1	8
671.301	1	1
671.640	1	-16
671.979	1	19
672.317	1	6
672.656	1	6
672.995	1	9
673.334	1	9
673.673	1	7
674.011	1	0
674.350	1	2
674.689	1	-3
675.028	1	-5
675.367	1	4
675.705	1	-9
676.044	1	5
676.383	1	2
676.722	1	1
677.060	1	6
677.399	1	-6
677.738	1	-2
678.077	1	4
678.416	1	2
678.754	1	2
679.093	1	7
679.432	1	-3
679.771	1	6
680.109	1	9
680.448	1	-3
680.787	1	9
681.125	1	6
681.464	1	0
681.803	1	-10
682.142	1	10
682.480	1	3
682.819	1	4
683.158	1	0
683.496	1	-2
683.835	1	0
684.174	1	7
684.512	1	-9
684.851	1	-6
685.190	1	3
685.529	1	-4
685.867	1	1
686.206	1	-2
686.545	1	5
686.883	1	-8
687.222	1	-7
687.561	1	3
687.899	1	7
688.238	1	8
688.577	1	-8
688.746	1	-1