File: Analysis/GaN_68K_200ms/GaN_sample E_spot4_UVVIS_68 K_200um_200 ms 2x2mm1_380.txt
340.368	1	7
340.710	1	-3
341.052	1	3
341.394	1	3
341.737	1	1
342.079	1	-2
342.421	1	-12
342.763	1	6
343.105	1	12
343.447	1	12
343.789	1	-7
344.131	1	1
344.473	1	-4
344.815	1	10
345.157	1	11
345.499	1	10
345.841	1	7
346.183	1	-2
346.526	1	6
346.868	1	4
347.210	1	3
347.552	1	11
347.894	1	2
348.236	1	2
348.578	1	3
348.920	1	5
349.262	1	3
349.604	1	18
349.946	1	14
350.288	1	6
350.630	1	-13
350.972	1	-6
351.314	1	4
351.656	1	10
351.998	1	-3
352.340	1	-3
352.682	1	-2
353.024	1	-5
353.366	1	7
353.708	1	5
354.050	1	6
354.392	1	9
354.734	1	-1
355.076	1	7
355.418	1	-6
355.760	1	6
356.102	1	-2
356.444	1	4
356.785	1	5
357.127	1	3
357.469	1	5
357.811	1	5
358.153	1	4
358.495	1	1
358.837	1	11
359.179	1	2
359.521	1	-2
359.863	1	-8
360.205	1	4
360.547	1	-3
360.889	1	6
361.231	1	-3
361.572	1	-6
361.914	1	-2
362.256	1	5
362.598	1	7
362.940	1	1
363.282	1	1
363.624	1	2
363.966	1	7
364.308	1	1
364.649	1	-1
364.991	1	7
365.333	1	19
365.675	1	5
366.017	1	7
366.359	1	10
366.701	1	1
367.042	1	15
367.384	1	11
367.726	1	13
368.068	1	1
368.410	1	2
368.752	1	-1
369.093	1	0
369.435	1	5
369.777	1	-2
370.119	1	3
370.461	1	2
370.803	1	4
371.144	1	8
371.486	1	6
371.828	1	-1
372.170	1	1
372.512	1	-8
372.853	1	9
373.195	1	-7
373.537	1	2
373.879	1	9
374.220	1	2
374.562	1	-1
374.904	1	9
375.246	1	6
375.588	1	1
375.929	1	4
376.271	1	2
376.613	1	6
376.955	1	-4
377.296	1	7
377.638	1	-5
377.980	1	14
378.321	1	3
378.663	1	-4
379.005	1	14
379.347	1	11
379.688	1	4
380.030	1	2
380.372	1	-2
380.714	1	0
381.055	1	-3
381.397	1	2
381.739	1	4
382.080	1	0
382.422	1	13
382.764	1	4
383.105	1	8
383.447	1	14
383.789	1	3
384.130	1	-3
384.472	1	-2
384.814	1	10
385.156	1	15
385.497	1	9
385.839	1	6
386.180	1	4
386.522	1	3
386.864	1	-3
387.205	1	-3
387.547	1	-3
387.889	1	20
388.230	1	12
388.572	1	0
388.914	1	0
389.255	1	15
389.597	1	10
389.939	1	22
390.280	1	17
390.622	1	2
390.963	1	1
391.305	1	18
391.647	1	4
391.988	1	-1
392.330	1	12
392.671	1	10
393.013	1	4
393.355	1	16
393.696	1	0
394.038	1	-1
394.379	1	-1
394.721	1	5
395.062	1	2
395.404	1	7
395.746	1	4
396.087	1	11
396.429	1	7
396.770	1	3
397.112	1	-5
397.453	1	8
397.795	1	8
398.136	1	17
398.478	1	-1
398.819	1	11
399.161	1	5
399.503	1	-3
399.844	1	3
400.186	1	13
400.527	1	8
400.869	1	14
401.210	1	0
401.552	1	13
401.893	1	-3
402.235	1	14
402.576	1	15
402.918	1	-4
403.259	1	-6
403.601	1	-10
403.942	1	4
404.284	1	2
404.625	1	14
404.967	1	10
405.308	1	3
405.649	1	2
405.991	1	9
406.332	1	-2
406.674	1	7
407.015	1	-1
407.357	1	2
407.698	1	-3
408.040	1	-10
408.381	1	-1
408.722	1	3
409.064	1	4
409.405	1	12
409.747	1	0
410.088	1	4
410.430	1	9
410.771	1	10
411.112	1	5
411.454	1	13
411.795	1	18
412.137	1	15
412.478	1	4
412.819	1	-6
413.161	1	8
413.502	1	2
413.844	1	5
414.185	1	-3
414.526	1	9
414.868	1	2
415.209	1	3
415.550	1	-1
415.892	1	-4
416.233	1	6
416.575	1	4
416.916	1	3
417.257	1	11
417.599	1	1
417.940	1	-1
418.281	1	-6
418.623	1	3
418.964	1	14
419.305	1	6
419.647	1	2
419.988	1	2
420.329	1	7
420.671	1	12
421.012	1	11
421.353	1	13
421.695	1	3
422.036	1	3
422.377	1	9
422.718	1	-3
423.060	1	4
423.401	1	11
423.742	1	-2
424.084	1	-1
424.425	1	-3
424.766	1	5
425.107	1	5
425.449	1	3
425.790	1	-7
426.131	1	-1
426.472	1	1
426.814	1	11
427.155	1	2
427.496	1	3
427.837	1	-5
428.179	1	-4
428.520	1	1
428.861	1	-11
429.202	1	4
429.544	1	2
429.885	1	3
430.226	1	-6
430.567	1	12
430.909	1	-7
431.250	1	0
431.591	1	0
431.932	1	6
432.273	1	-2
432.615	1	6
432.956	1	-1
433.297	1	11
433.638	1	1
433.979	1	4
434.320	1	0
434.662	1	-4
435.003	1	7
435.344	1	14
435.685	1	2
436.026	1	6
436.368	1	-2
436.709	1	-1
437.050	1	1
437.391	1	8
437.732	1	0
438.073	1	4
438.414	1	10
438.756	1	12
439.097	1	6
439.438	1	2
439.779	1	0
440.120	1	0
440.461	1	-8
440.802	1	0
441.143	1	18
441.485	1	-6
441.826	1	-11
442.167	1	-7
442.508	1	1
442.849	1	10
443.190	1	-8
443.531	1	-2
443.872	1	-9
444.213	1	-4
444.554	1	0
444.895	1	-3
445.237	1	1
445.578	1	11
445.919	1	-2
446.260	1	0
446.601	1	-1
446.942	1	-1
447.283	1	5
447.624	1	12
447.965	1	-6
448.306	1	2
448.647	1	16
448.988	1	-10
449.329	1	2
449.670	1	7
450.011	1	-7
450.352	1	-1
450.693	1	3
451.034	1	1
451.375	1	4
451.716	1	8
452.057	1	8
452.398	1	1
452.739	1	8
453.080	1	10
453.421	1	1
453.762	1	5
454.103	1	-2
454.444	1	10
454.785	1	-9
455.126	1	-1
455.467	1	0
455.808	1	-2
456.149	1	-4
456.490	1	12
456.831	1	17
457.172	1	-6
457.513	1	8
457.854	1	-7
458.195	1	-5
458.536	1	13
458.877	1	3
459.218	1	6
459.559	1	-4
459.899	1	19
460.240	1	-6
460.581	1	16
460.922	1	6
461.263	1	0
461.604	1	2
461.945	1	-3
462.286	1	7
462.627	1	-10
462.968	1	9
463.309	1	1
463.649	1	4
463.990	1	-2
464.331	1	12
464.672	1	6
465.013	1	-7
465.354	1	-6
465.695	1	9
466.036	1	8
466.376	1	-2
466.717	1	-1
467.058	1	8
467.399	1	5
467.740	1	6
468.081	1	9
468.422	1	5
468.762	1	-6
469.103	1	-2
469.444	1	-5
469.785	1	4
470.126	1	7
470.467	1	0
470.807	1	6
471.148	1	0
471.489	1	4
471.830	1	6
472.171	1	5
472.511	1	12
472.852	1	0
473.193	1	-3
473.534	1	5
473.875	1	-4
474.215	1	-6
474.556	1	-7
474.897	1	6
475.238	1	0
475.578	1	17
475.919	1	5
476.260	1	1
476.601	1	-1
476.942	1	8
477.282	1	-10
477.623	1	7
477.964	1	11
478.305	1	9
478.645	1	6
478.986	1	-3
479.327	1	-8
479.667	1	5
480.008	1	12
480.349	1	0
480.690	1	8
481.030	1	5
481.371	1	1
481.712	1	5
482.053	1	10
482.393	1	-9
482.734	1	2
483.075	1	10
483.415	1	15
483.756	1	8
484.097	1	-6
484.437	1	-4
484.778	1	9
485.119	1	5
485.459	1	2
485.800	1	2
486.141	1	-8
486.481	1	3
486.822	1	4
487.163	1	-9
487.503	1	-9
487.844	1	0
488.185	1	2
488.525	1	5
488.866	1	7
489.207	1	9
489.547	1	-6
489.888	1	-4
490.228	1	-6
490.569	1	-1
490.910	1	1
491.250	1	0
491.591	1	-11
491.932	1	9
492.272	1	7
492.613	1	6
492.953	1	6
493.294	1	15
493.635	1	-4
493.975	1	4
494.316	1	10
494.656	1	3
494.997	1	-3
495.337	1	6
495.678	1	4
496.019	1	1
496.359	1	12
496.700	1	4
497.040	1	0
497.381	1	-18
497.721	1	0
498.062	1	-5
498.403	1	6
498.743	1	9
499.084	1	-4
499.424	1	11
499.765	1	6
500.105	1	4
500.446	1	7
500.786	1	9
501.127	1	7
501.467	1	13
501.808	1	-10
502.148	1	-1
502.489	1	8
502.829	1	10
503.170	1	12
503.510	1	3
503.851	1	-8
504.191	1	-1
504.532	1	0
504.872	1	-1
505.213	1	5
505.553	1	14
505.894	1	12
506.234	1	14
506.575	1	-2
506.915	1	0
507.256	1	-1
507.596	1	4
507.936	1	-2
508.277	1	-3
508.617	1	10
508.958	1	10
509.298	1	12
509.639	1	14
509.979	1	2
510.319	1	0
510.660	1	2
511.000	1	7
511.341	1	-5
511.681	1	1
512.022	1	-3
512.362	1	8
512.702	1	-6
513.043	1	6
513.383	1	-8
513.724	1	17
514.064	1	10
514.404	1	-5
514.745	1	-2
515.085	1	7
515.425	1	-2
515.766	1	5
516.106	1	-3
516.447	1	12
516.787	1	-4
517.127	1	3
517.468	1	3
517.808	1	1
518.148	1	5
518.489	1	-6
518.829	1	2
519.169	1	3
519.510	1	6
519.850	1	-7
520.190	1	6
520.531	1	11
520.871	1	0
521.211	1	9
521.552	1	8
521.892	1	-9
522.232	1	-5
522.573	1	5
522.913	1	12
523.253	1	1
523.593	1	-12
523.934	1	9
524.274	1	-4
524.614	1	7
524.955	1	-4
525.295	1	-8
525.635	1	23
525.975	1	5
526.316	1	5
526.656	1	22
526.996	1	12
527.337	1	-3
527.677	1	12
528.017	1	-5
528.357	1	4
528.698	1	-2
529.038	1	12
529.378	1	8
529.718	1	-3
530.058	1	-4
530.399	1	8
530.739	1	-7
531.079	1	8
531.419	1	5
531.760	1	15
532.100	1	10
532.440	1	-1
532.780	1	2
533.120	1	2
533.461	1	14
533.801	1	7
534.141	1	6
534.481	1	-5
534.821	1	12
535.162	1	10
535.502	1	16
535.842	1	-9
536.182	1	8
536.522	1	6
536.862	1	3
537.203	1	4
537.543	1	5
537.883	1	8
538.223	1	6
538.563	1	9
538.903	1	-2
539.243	1	5
539.584	1	0
539.924	1	2
540.264	1	12
540.604	1	7
540.944	1	-6
541.284	1	5
541.624	1	5
541.964	1	4
542.305	1	-2
542.645	1	1
542.985	1	-1
543.325	1	0
543.665	1	13
544.005	1	-8
544.345	1	-5
544.685	1	8
545.025	1	-1
545.365	1	3
545.705	1	3
546.045	1	8
546.386	1	4
546.726	1	-1
547.066	1	-1
547.406	1	15
547.746	1	9
548.086	1	0
548.426	1	3
548.766	1	8
549.106	1	5
549.446	1	-2
549.786	1	12
550.126	1	5
550.466	1	-9
550.806	1	7
551.146	1	1
551.486	1	13
551.826	1	13
552.166	1	-6
552.506	1	1
552.846	1	5
553.186	1	11
553.526	1	-2
553.866	1	4
554.206	1	8
554.546	1	-11
554.886	1	8
555.226	1	-2
555.566	1	2
555.906	1	10
556.246	1	-1
556.586	1	10
556.926	1	12
557.266	1	17
557.606	1	-11
557.946	1	12
558.286	1	7
558.626	1	8
558.966	1	-7
559.306	1	-7
559.646	1	-7
559.986	1	4
560.325	1	-4
560.665	1	3
561.005	1	8
561.345	1	5
561.685	1	1
562.025	1	-1
562.365	1	-2
562.705	1	12
563.045	1	6
563.385	1	-2
563.725	1	0
564.064	1	9
564.404	1	-9
564.744	1	15
565.084	1	-11
565.424	1	3
565.764	1	11
566.104	1	-6
566.444	1	10
566.783	1	5
567.123	1	18
567.463	1	-3
567.803	1	-1
568.143	1	-1
568.483	1	-8
568.823	1	5
569.162	1	5
569.502	1	0
569.842	1	-2
570.182	1	-2
570.522	1	14
570.862	1	2
571.201	1	10
571.541	1	-1
571.881	1	1
572.221	1	3
572.561	1	1
572.900	1	12
573.240	1	-8
573.580	1	5
573.920	1	2
574.260	1	-3
574.599	1	-7
574.939	1	4
575.279	1	2
575.619	1	2
575.959	1	0
576.298	1	-3
576.638	1	-2
576.978	1	1
577.318	1	6
577.657	1	-9
577.997	1	-13
578.337	1	-5
578.677	1	-3
579.016	1	20
579.356	1	-3
579.696	1	-2
580.036	1	-6
580.375	1	-6
580.715	1	9
581.055	1	4
581.394	1	2
581.734	1	4
582.074	1	3
582.414	1	0
582.753	1	13
583.093	1	3
583.433	1	-11
583.772	1	6
584.112	1	0
584.452	1	1
584.791	1	7
585.131	1	-1
585.471	1	-3
585.811	1	-1
586.150	1	4
586.490	1	5
586.830	1	-4
587.169	1	-2
587.509	1	-1
587.849	1	11
588.188	1	2
588.528	1	4
588.867	1	-1
589.207	1	-10
589.547	1	-6
589.886	1	-2
590.226	1	3
590.566	1	3
590.905	1	5
591.245	1	2
591.585	1	-2
591.924	1	0
592.264	1	5
592.603	1	-5
592.943	1	3
593.283	1	11
593.622	1	-2
593.962	1	15
594.301	1	6
594.641	1	-6
594.981	1	-1
595.320	1	11
595.660	1	-2
595.999	1	-2
596.339	1	0
596.678	1	0
597.018	1	11
597.358	1	5
597.697	1	-5
598.037	1	2
598.376	1	12
598.716	1	-4
599.055	1	10
599.395	1	9
599.734	1	-3
600.074	1	-3
600.413	1	7
600.753	1	4
601.092	1	-8
601.432	1	-12
601.771	1	15
602.111	1	-3
602.451	1	1
602.790	1	5
603.130	1	-1
603.469	1	-1
603.809	1	8
604.148	1	10
604.487	1	4
604.827	1	-12
605.166	1	-7
605.506	1	19
605.845	1	6
606.185	1	4
606.524	1	5
606.864	1	-6
607.203	1	12
607.543	1	-7
607.882	1	4
608.222	1	10
608.561	1	8
608.901	1	12
609.240	1	6
609.579	1	3
609.919	1	-2
610.258	1	11
610.598	1	7
610.937	1	-2
611.277	1	4
611.616	1	-6
611.955	1	13
612.295	1	3
612.634	1	-1
612.974	1	8
613.313	1	22
613.652	1	-1
613.992	1	0
614.331	1	6
614.671	1	0
615.010	1	1
615.349	1	-5
615.689	1	-2
616.028	1	2
616.368	1	6
616.707	1	6
617.046	1	12
617.386	1	-2
617.725	1	3
618.064	1	10
618.404	1	6
618.743	1	8
619.082	1	3
619.422	1	-2
619.761	1	7
620.100	1	2
620.440	1	10
620.779	1	-2
621.118	1	-1
621.458	1	-1
621.797	1	-6
622.136	1	1
622.476	1	9
622.815	1	0
623.154	1	2
623.494	1	7
623.833	1	1
624.172	1	8
624.511	1	1
624.851	1	-9
625.190	1	4
625.529	1	-3
625.869	1	8
626.208	1	-1
626.547	1	-3
626.886	1	-5
627.226	1	6
627.565	1	13
627.904	1	-2
628.243	1	-3
628.583	1	7
628.922	1	1
629.261	1	7
629.600	1	3
629.940	1	7
630.279	1	-4
630.618	1	2
630.957	1	-10
631.297	1	-4
631.636	1	3
631.975	1	0
632.314	1	13
632.653	1	-12
632.993	1	9
633.332	1	0
633.671	1	6
634.010	1	-5
634.349	1	10
634.689	1	7
635.028	1	3
635.367	1	1
635.706	1	-7
636.045	1	3
636.384	1	7
636.724	1	0
637.063	1	-1
637.402	1	1
637.741	1	4
638.080	1	3
638.419	1	8
638.759	1	3
639.098	1	2
639.437	1	-10
639.776	1	7
640.115	1	-4
640.454	1	7
640.793	1	7
641.132	1	10
641.472	1	-6
641.811	1	3
642.150	1	-1
642.489	1	-3
642.828	1	5
643.167	1	4
643.506	1	-2
643.845	1	0
644.184	1	7
644.524	1	-8
644.863	1	-10
645.202	1	2
645.541	1	-5
645.880	1	1
646.219	1	2
646.558	1	8
646.897	1	-5
647.236	1	-3
647.575	1	7
647.914	1	-9
648.253	1	3
648.592	1	1
648.931	1	3
649.270	1	11
649.610	1	15
649.949	1	-7
650.288	1	-4
650.627	1	-2
650.966	1	9
651.305	1	2
651.644	1	0
651.983	1	4
652.322	1	0
652.661	1	1
653.000	1	-5
653.339	1	9
653.678	1	3
654.017	1	11
654.356	1	6
654.695	1	8
655.034	1	4
655.373	1	2
655.712	1	-2
656.051	1	8
656.390	1	5
656.729	1	-2
657.068	1	-7
657.406	1	6
657.745	1	-8
658.084	1	10
658.423	1	4
658.762	1	-8
659.101	1	-4
659.440	1	8
659.779	1	6
660.118	1	10
660.457	1	-10
660.796	1	3
661.135	1	1
661.474	1	4
661.813	1	1
662.152	1	5
662.491	1	2
662.829	1	2
663.168	1	-16
663.507	1	5
663.846	1	-2
664.185	1	7
664.524	1	-5
664.863	1	10
665.202	1	-8
665.541	1	0
665.879	1	12
666.218	1	-2
666.557	1	5
666.896	1	4
667.235	1	4
667.574	1	5
667.913	1	-3
668.251	1	1
668.590	1	-5
668.929	1	0
669.268	1	3
669.607	1	-1
669.946	1	4
670.285	1	4
670.623	1	1
670.962	1	1
671.301	1	-5
671.640	1	-21
671.979	1	6
672.317	1	4
672.656	1	5
672.995	1	4
673.334	1	7
673.673	1	8
674.011	1	2
674.350	1	2
674.689	1	8
675.028	1	-2
675.367	1	6
675.705	1	-5
676.044	1	-4
676.383	1	0
676.722	1	7
677.060	1	1
677.399	1	-1
677.738	1	-2
678.077	1	3
678.416	1	0
678.754	1	2
679.093	1	5
679.432	1	-9
679.771	1	-2
680.109	1	6
680.448	1	-1
680.787	1	4
681.125	1	7
681.464	1	-3
681.803	1	-13
682.142	1	18
682.480	1	1
682.819	1	4
683.158	1	4
683.496	1	-11
683.835	1	3
684.174	1	-4
684.512	1	9
684.851	1	0
685.190	1	3
685.529	1	-8
685.867	1	6
686.206	1	3
686.545	1	14
686.883	1	-3
687.222	1	-5
687.561	1	0
687.899	1	0
688.238	1	-1
688.577	1	0
688.746	1	6