File: Analysis/GaN_68K_200ms/GaN_sample E_spot4_UVVIS_68 K_200um_200 ms 2x2mm1_191.txt
340.368	1	2
340.710	1	-8
341.052	1	11
341.394	1	-8
341.737	1	7
342.079	1	-13
342.421	1	-4
342.763	1	1
343.105	1	18
343.447	1	7
343.789	1	-3
344.131	1	6
344.473	1	0
344.815	1	3
345.157	1	9
345.499	1	6
345.841	1	5
346.183	1	-6
346.526	1	7
346.868	1	5
347.210	1	6
347.552	1	2
347.894	1	5
348.236	1	2
348.578	1	9
348.920	1	14
349.262	1	-2
349.604	1	10
349.946	1	10
350.288	1	9
350.630	1	-5
350.972	1	12
351.314	1	1
351.656	1	14
351.998	1	6
352.340	1	7
352.682	1	0
353.024	1	-1
353.366	1	7
353.708	1	9
354.050	1	13
354.392	1	12
354.734	1	4
355.076	1	5
355.418	1	-1
355.760	1	3
356.102	1	6
356.444	1	4
356.785	1	15
357.127	1	7
357.469	1	9
357.811	1	20
358.153	1	2
358.495	1	10
358.837	1	4
359.179	1	8
359.521	1	2
359.863	1	-4
360.205	1	6
360.547	1	12
360.889	1	12
361.231	1	10
361.572	1	10
361.914	1	12
362.256	1	11
362.598	1	13
362.940	1	11
363.282	1	20
363.624	1	18
363.966	1	16
364.308	1	13
364.649	1	18
364.991	1	18
365.333	1	24
365.675	1	11
366.017	1	20
366.359	1	16
366.701	1	9
367.042	1	30
367.384	1	27
367.726	1	40
368.068	1	18
368.410	1	14
368.752	1	12
369.093	1	18
369.435	1	16
369.777	1	11
370.119	1	28
370.461	1	21
370.803	1	7
371.144	1	17
371.486	1	30
371.828	1	16
372.170	1	23
372.512	1	15
372.853	1	16
373.195	1	4
373.537	1	13
373.879	1	20
374.220	1	24
374.562	1	13
374.904	1	13
375.246	1	6
375.588	1	15
375.929	1	18
376.271	1	13
376.613	1	12
376.955	1	6
377.296	1	17
377.638	1	7
377.980	1	18
378.321	1	9
378.663	1	6
379.005	1	25
379.347	1	7
379.688	1	12
380.030	1	4
380.372	1	18
380.714	1	13
381.055	1	16
381.397	1	11
381.739	1	11
382.080	1	2
382.422	1	24
382.764	1	9
383.105	1	22
383.447	1	21
383.789	1	14
384.130	1	11
384.472	1	14
384.814	1	24
385.156	1	31
385.497	1	27
385.839	1	23
386.180	1	25
386.522	1	32
386.864	1	26
387.205	1	24
387.547	1	25
387.889	1	32
388.230	1	29
388.572	1	23
388.914	1	31
389.255	1	34
389.597	1	16
389.939	1	20
390.280	1	32
390.622	1	27
390.963	1	27
391.305	1	34
391.647	1	25
391.988	1	14
392.330	1	19
392.671	1	25
393.013	1	37
393.355	1	35
393.696	1	28
394.038	1	16
394.379	1	18
394.721	1	20
395.062	1	17
395.404	1	20
395.746	1	19
396.087	1	21
396.429	1	23
396.770	1	21
397.112	1	19
397.453	1	16
397.795	1	27
398.136	1	31
398.478	1	20
398.819	1	27
399.161	1	25
399.503	1	27
399.844	1	28
400.186	1	32
400.527	1	17
400.869	1	32
401.210	1	7
401.552	1	33
401.893	1	17
402.235	1	41
402.576	1	25
402.918	1	10
403.259	1	10
403.601	1	10
403.942	1	29
404.284	1	21
404.625	1	19
404.967	1	9
405.308	1	20
405.649	1	15
405.991	1	31
406.332	1	17
406.674	1	22
407.015	1	11
407.357	1	19
407.698	1	15
408.040	1	8
408.381	1	16
408.722	1	13
409.064	1	15
409.405	1	13
409.747	1	18
410.088	1	19
410.430	1	22
410.771	1	26
411.112	1	25
411.454	1	26
411.795	1	22
412.137	1	13
412.478	1	24
412.819	1	13
413.161	1	7
413.502	1	21
413.844	1	6
414.185	1	19
414.526	1	17
414.868	1	31
415.209	1	11
415.550	1	11
415.892	1	9
416.233	1	13
416.575	1	11
416.916	1	11
417.257	1	8
417.599	1	18
417.940	1	10
418.281	1	21
418.623	1	11
418.964	1	17
419.305	1	24
419.647	1	16
419.988	1	8
420.329	1	12
420.671	1	14
421.012	1	21
421.353	1	19
421.695	1	10
422.036	1	5
422.377	1	16
422.718	1	3
423.060	1	10
423.401	1	16
423.742	1	15
424.084	1	11
424.425	1	6
424.766	1	21
425.107	1	13
425.449	1	15
425.790	1	7
426.131	1	15
426.472	1	9
426.814	1	32
427.155	1	6
427.496	1	9
427.837	1	7
428.179	1	2
428.520	1	6
428.861	1	9
429.202	1	14
429.544	1	9
429.885	1	11
430.226	1	10
430.567	1	18
430.909	1	3
431.250	1	-4
431.591	1	12
431.932	1	10
432.273	1	12
432.615	1	20
432.956	1	10
433.297	1	15
433.638	1	6
433.979	1	12
434.320	1	7
434.662	1	11
435.003	1	14
435.344	1	8
435.685	1	13
436.026	1	7
436.368	1	7
436.709	1	-4
437.050	1	7
437.391	1	4
437.732	1	5
438.073	1	7
438.414	1	14
438.756	1	16
439.097	1	8
439.438	1	14
439.779	1	10
440.120	1	13
440.461	1	1
440.802	1	10
441.143	1	18
441.485	1	8
441.826	1	-3
442.167	1	3
442.508	1	13
442.849	1	8
443.190	1	-6
443.531	1	8
443.872	1	5
444.213	1	2
444.554	1	6
444.895	1	5
445.237	1	-4
445.578	1	18
445.919	1	14
446.260	1	6
446.601	1	-6
446.942	1	6
447.283	1	4
447.624	1	21
447.965	1	-1
448.306	1	0
448.647	1	8
448.988	1	-3
449.329	1	5
449.670	1	18
450.011	1	6
450.352	1	18
450.693	1	3
451.034	1	17
451.375	1	22
451.716	1	15
452.057	1	23
452.398	1	6
452.739	1	5
453.080	1	16
453.421	1	8
453.762	1	7
454.103	1	10
454.444	1	12
454.785	1	5
455.126	1	8
455.467	1	9
455.808	1	9
456.149	1	-1
456.490	1	5
456.831	1	18
457.172	1	5
457.513	1	11
457.854	1	1
458.195	1	-1
458.536	1	4
458.877	1	6
459.218	1	7
459.559	1	4
459.899	1	8
460.240	1	11
460.581	1	15
460.922	1	6
461.263	1	13
461.604	1	3
461.945	1	10
462.286	1	11
462.627	1	5
462.968	1	1
463.309	1	5
463.649	1	7
463.990	1	12
464.331	1	14
464.672	1	2
465.013	1	0
465.354	1	4
465.695	1	19
466.036	1	7
466.376	1	5
466.717	1	-8
467.058	1	19
467.399	1	3
467.740	1	-2
468.081	1	12
468.422	1	14
468.762	1	-6
469.103	1	-6
469.444	1	3
469.785	1	9
470.126	1	3
470.467	1	1
470.807	1	4
471.148	1	6
471.489	1	6
471.830	1	18
472.171	1	2
472.511	1	17
472.852	1	-1
473.193	1	-2
473.534	1	4
473.875	1	0
474.215	1	1
474.556	1	-2
474.897	1	9
475.238	1	2
475.578	1	8
475.919	1	6
476.260	1	1
476.601	1	8
476.942	1	4
477.282	1	-1
477.623	1	6
477.964	1	13
478.305	1	6
478.645	1	3
478.986	1	-3
479.327	1	-5
479.667	1	2
480.008	1	15
480.349	1	7
480.690	1	4
481.030	1	3
481.371	1	6
481.712	1	6
482.053	1	12
482.393	1	-6
482.734	1	17
483.075	1	14
483.415	1	19
483.756	1	14
484.097	1	-5
484.437	1	0
484.778	1	9
485.119	1	5
485.459	1	4
485.800	1	-3
486.141	1	2
486.481	1	4
486.822	1	-3
487.163	1	4
487.503	1	-4
487.844	1	-1
488.185	1	3
488.525	1	1
488.866	1	12
489.207	1	7
489.547	1	4
489.888	1	7
490.228	1	0
490.569	1	14
490.910	1	3
491.250	1	10
491.591	1	7
491.932	1	9
492.272	1	12
492.613	1	6
492.953	1	13
493.294	1	14
493.635	1	2
493.975	1	-1
494.316	1	21
494.656	1	13
494.997	1	10
495.337	1	14
495.678	1	12
496.019	1	-1
496.359	1	8
496.700	1	7
497.040	1	8
497.381	1	-5
497.721	1	6
498.062	1	5
498.403	1	13
498.743	1	14
499.084	1	-4
499.424	1	16
499.765	1	0
500.105	1	14
500.446	1	12
500.786	1	14
501.127	1	16
501.467	1	12
501.808	1	-4
502.148	1	4
502.489	1	12
502.829	1	12
503.170	1	1
503.510	1	15
503.851	1	-3
504.191	1	12
504.532	1	2
504.872	1	6
505.213	1	6
505.553	1	18
505.894	1	18
506.234	1	19
506.575	1	10
506.915	1	17
507.256	1	9
507.596	1	21
507.936	1	19
508.277	1	9
508.617	1	19
508.958	1	24
509.298	1	24
509.639	1	18
509.979	1	8
510.319	1	12
510.660	1	22
511.000	1	20
511.341	1	9
511.681	1	9
512.022	1	6
512.362	1	15
512.702	1	11
513.043	1	14
513.383	1	2
513.724	1	23
514.064	1	12
514.404	1	17
514.745	1	0
515.085	1	13
515.425	1	13
515.766	1	14
516.106	1	22
516.447	1	22
516.787	1	7
517.127	1	16
517.468	1	7
517.808	1	13
518.148	1	14
518.489	1	16
518.829	1	10
519.169	1	15
519.510	1	10
519.850	1	12
520.190	1	15
520.531	1	20
520.871	1	13
521.211	1	25
521.552	1	21
521.892	1	13
522.232	1	12
522.573	1	14
522.913	1	17
523.253	1	6
523.593	1	10
523.934	1	23
524.274	1	13
524.614	1	16
524.955	1	14
525.295	1	14
525.635	1	29
525.975	1	16
526.316	1	12
526.656	1	32
526.996	1	20
527.337	1	12
527.677	1	26
528.017	1	9
528.357	1	28
528.698	1	20
529.038	1	23
529.378	1	14
529.718	1	13
530.058	1	23
530.399	1	29
530.739	1	17
531.079	1	19
531.419	1	33
531.760	1	34
532.100	1	23
532.440	1	16
532.780	1	21
533.120	1	18
533.461	1	26
533.801	1	29
534.141	1	29
534.481	1	14
534.821	1	29
535.162	1	25
535.502	1	21
535.842	1	22
536.182	1	19
536.522	1	24
536.862	1	22
537.203	1	26
537.543	1	10
537.883	1	17
538.223	1	21
538.563	1	26
538.903	1	18
539.243	1	15
539.584	1	17
539.924	1	24
540.264	1	22
540.604	1	15
540.944	1	14
541.284	1	8
541.624	1	21
541.964	1	19
542.305	1	13
542.645	1	15
542.985	1	4
543.325	1	22
543.665	1	27
544.005	1	19
544.345	1	7
544.685	1	18
545.025	1	17
545.365	1	21
545.705	1	25
546.045	1	25
546.386	1	22
546.726	1	14
547.066	1	11
547.406	1	22
547.746	1	21
548.086	1	21
548.426	1	13
548.766	1	15
549.106	1	18
549.446	1	2
549.786	1	16
550.126	1	12
550.466	1	7
550.806	1	23
551.146	1	17
551.486	1	15
551.826	1	23
552.166	1	10
552.506	1	13
552.846	1	12
553.186	1	15
553.526	1	14
553.866	1	20
554.206	1	14
554.546	1	5
554.886	1	15
555.226	1	11
555.566	1	20
555.906	1	10
556.246	1	19
556.586	1	20
556.926	1	22
557.266	1	19
557.606	1	3
557.946	1	26
558.286	1	17
558.626	1	15
558.966	1	13
559.306	1	10
559.646	1	7
559.986	1	8
560.325	1	-7
560.665	1	17
561.005	1	8
561.345	1	16
561.685	1	5
562.025	1	4
562.365	1	10
562.705	1	22
563.045	1	19
563.385	1	13
563.725	1	6
564.064	1	19
564.404	1	3
564.744	1	11
565.084	1	4
565.424	1	3
565.764	1	13
566.104	1	11
566.444	1	13
566.783	1	9
567.123	1	27
567.463	1	11
567.803	1	10
568.143	1	0
568.483	1	5
568.823	1	20
569.162	1	25
569.502	1	15
569.842	1	11
570.182	1	4
570.522	1	15
570.862	1	19
571.201	1	12
571.541	1	-1
571.881	1	14
572.221	1	8
572.561	1	5
572.900	1	17
573.240	1	5
573.580	1	6
573.920	1	11
574.260	1	7
574.599	1	3
574.939	1	3
575.279	1	12
575.619	1	6
575.959	1	1
576.298	1	4
576.638	1	12
576.978	1	19
577.318	1	20
577.657	1	0
577.997	1	3
578.337	1	2
578.677	1	-7
579.016	1	13
579.356	1	-4
579.696	1	8
580.036	1	0
580.375	1	-4
580.715	1	8
581.055	1	19
581.394	1	-2
581.734	1	9
582.074	1	-1
582.414	1	8
582.753	1	0
583.093	1	3
583.433	1	-1
583.772	1	11
584.112	1	6
584.452	1	4
584.791	1	5
585.131	1	3
585.471	1	7
585.811	1	12
586.150	1	12
586.490	1	-3
586.830	1	7
587.169	1	7
587.509	1	12
587.849	1	20
588.188	1	1
588.528	1	12
588.867	1	10
589.207	1	-1
589.547	1	-3
589.886	1	5
590.226	1	12
590.566	1	4
590.905	1	12
591.245	1	0
591.585	1	5
591.924	1	13
592.264	1	11
592.603	1	6
592.943	1	-1
593.283	1	7
593.622	1	5
593.962	1	18
594.301	1	16
594.641	1	-3
594.981	1	2
595.320	1	11
595.660	1	8
595.999	1	1
596.339	1	14
596.678	1	1
597.018	1	11
597.358	1	7
597.697	1	0
598.037	1	10
598.376	1	12
598.716	1	-6
599.055	1	7
599.395	1	15
599.734	1	8
600.074	1	5
600.413	1	7
600.753	1	11
601.092	1	-3
601.432	1	-3
601.771	1	9
602.111	1	1
602.451	1	8
602.790	1	2
603.130	1	9
603.469	1	3
603.809	1	8
604.148	1	12
604.487	1	14
604.827	1	0
605.166	1	-3
605.506	1	4
605.845	1	1
606.185	1	6
606.524	1	4
606.864	1	2
607.203	1	13
607.543	1	-2
607.882	1	6
608.222	1	11
608.561	1	18
608.901	1	12
609.240	1	0
609.579	1	-1
609.919	1	4
610.258	1	16
610.598	1	11
610.937	1	10
611.277	1	7
611.616	1	-4
611.955	1	10
612.295	1	8
612.634	1	4
612.974	1	14
613.313	1	11
613.652	1	9
613.992	1	11
614.331	1	13
614.671	1	8
615.010	1	-3
615.349	1	8
615.689	1	4
616.028	1	7
616.368	1	0
616.707	1	0
617.046	1	12
617.386	1	8
617.725	1	9
618.064	1	-2
618.404	1	12
618.743	1	6
619.082	1	4
619.422	1	5
619.761	1	-2
620.100	1	3
620.440	1	6
620.779	1	1
621.118	1	3
621.458	1	7
621.797	1	8
622.136	1	7
622.476	1	14
622.815	1	-1
623.154	1	9
623.494	1	13
623.833	1	10
624.172	1	9
624.511	1	5
624.851	1	-10
625.190	1	0
625.529	1	16
625.869	1	10
626.208	1	1
626.547	1	1
626.886	1	2
627.226	1	6
627.565	1	13
627.904	1	4
628.243	1	-2
628.583	1	2
628.922	1	0
629.261	1	7
629.600	1	4
629.940	1	1
630.279	1	-5
630.618	1	4
630.957	1	1
631.297	1	13
631.636	1	3
631.975	1	3
632.314	1	16
632.653	1	0
632.993	1	4
633.332	1	11
633.671	1	0
634.010	1	10
634.349	1	7
634.689	1	7
635.028	1	2
635.367	1	-4
635.706	1	-1
636.045	1	2
636.384	1	9
636.724	1	13
637.063	1	5
637.402	1	13
637.741	1	20
638.080	1	10
638.419	1	16
638.759	1	4
639.098	1	1
639.437	1	-2
639.776	1	-4
640.115	1	0
640.454	1	21
640.793	1	14
641.132	1	19
641.472	1	1
641.811	1	7
642.150	1	3
642.489	1	0
642.828	1	1
643.167	1	10
643.506	1	-1
643.845	1	11
644.184	1	14
644.524	1	10
644.863	1	-3
645.202	1	1
645.541	1	2
645.880	1	6
646.219	1	3
646.558	1	4
646.897	1	0
647.236	1	4
647.575	1	2
647.914	1	-2
648.253	1	-3
648.592	1	2
648.931	1	9
649.270	1	14
649.610	1	13
649.949	1	2
650.288	1	0
650.627	1	10
650.966	1	-5
651.305	1	-2
651.644	1	1
651.983	1	8
652.322	1	6
652.661	1	2
653.000	1	2
653.339	1	13
653.678	1	3
654.017	1	8
654.356	1	14
654.695	1	8
655.034	1	8
655.373	1	1
655.712	1	0
656.051	1	16
656.390	1	0
656.729	1	3
657.068	1	6
657.406	1	9
657.745	1	-10
658.084	1	7
658.423	1	0
658.762	1	-4
659.101	1	0
659.440	1	10
659.779	1	-2
660.118	1	12
660.457	1	-4
660.796	1	1
661.135	1	13
661.474	1	-5
661.813	1	9
662.152	1	10
662.491	1	2
662.829	1	-12
663.168	1	-5
663.507	1	4
663.846	1	7
664.185	1	3
664.524	1	-9
664.863	1	-1
665.202	1	-5
665.541	1	-2
665.879	1	3
666.218	1	-4
666.557	1	11
666.896	1	0
667.235	1	7
667.574	1	3
667.913	1	6
668.251	1	3
668.590	1	-1
668.929	1	5
669.268	1	1
669.607	1	-7
669.946	1	17
670.285	1	7
670.623	1	8
670.962	1	0
671.301	1	3
671.640	1	-5
671.979	1	12
672.317	1	0
672.656	1	3
672.995	1	1
673.334	1	18
673.673	1	13
674.011	1	1
674.350	1	11
674.689	1	-9
675.028	1	4
675.367	1	2
675.705	1	-4
676.044	1	-2
676.383	1	6
676.722	1	-4
677.060	1	14
677.399	1	3
677.738	1	-8
678.077	1	2
678.416	1	11
678.754	1	-5
679.093	1	18
679.432	1	-2
679.771	1	10
680.109	1	8
680.448	1	4
680.787	1	-1
681.125	1	10
681.464	1	-5
681.803	1	-1
682.142	1	7
682.480	1	3
682.819	1	0
683.158	1	1
683.496	1	5
683.835	1	2
684.174	1	6
684.512	1	2
684.851	1	-2
685.190	1	7
685.529	1	11
685.867	1	3
686.206	1	6
686.545	1	-4
686.883	1	2
687.222	1	-5
687.561	1	-2
687.899	1	6
688.238	1	8
688.577	1	0
688.746	1	11