File: Analysis/GaN_68K_200ms/GaN_sample E_spot4_UVVIS_68 K_200um_200 ms 2x2mm1_717.txt
340.368	1	5
340.710	1	-3
341.052	1	-3
341.394	1	1
341.737	1	4
342.079	1	-3
342.421	1	2
342.763	1	-1
343.105	1	9
343.447	1	5
343.789	1	-2
344.131	1	-5
344.473	1	-2
344.815	1	5
345.157	1	1
345.499	1	2
345.841	1	2
346.183	1	7
346.526	1	7
346.868	1	2
347.210	1	-3
347.552	1	-6
347.894	1	4
348.236	1	-1
348.578	1	3
348.920	1	8
349.262	1	0
349.604	1	6
349.946	1	5
350.288	1	-8
350.630	1	-10
350.972	1	0
351.314	1	-3
351.656	1	5
351.998	1	2
352.340	1	0
352.682	1	2
353.024	1	-16
353.366	1	1
353.708	1	3
354.050	1	8
354.392	1	5
354.734	1	-2
355.076	1	3
355.418	1	-4
355.760	1	8
356.102	1	-7
356.444	1	2
356.785	1	8
357.127	1	11
357.469	1	2
357.811	1	9
358.153	1	-1
358.495	1	12
358.837	1	-2
359.179	1	-3
359.521	1	-3
359.863	1	-11
360.205	1	3
360.547	1	-2
360.889	1	9
361.231	1	-3
361.572	1	-2
361.914	1	0
362.256	1	6
362.598	1	4
362.940	1	-1
363.282	1	6
363.624	1	-5
363.966	1	2
364.308	1	-11
364.649	1	3
364.991	1	4
365.333	1	11
365.675	1	-9
366.017	1	-4
366.359	1	12
366.701	1	-3
367.042	1	2
367.384	1	5
367.726	1	11
368.068	1	-2
368.410	1	3
368.752	1	-12
369.093	1	-5
369.435	1	-2
369.777	1	-7
370.119	1	1
370.461	1	-4
370.803	1	-2
371.144	1	8
371.486	1	8
371.828	1	1
372.170	1	-1
372.512	1	-4
372.853	1	7
373.195	1	-11
373.537	1	-3
373.879	1	5
374.220	1	-7
374.562	1	-1
374.904	1	1
375.246	1	-2
375.588	1	-2
375.929	1	7
376.271	1	-7
376.613	1	2
376.955	1	-9
377.296	1	7
377.638	1	-1
377.980	1	-5
378.321	1	7
378.663	1	2
379.005	1	9
379.347	1	8
379.688	1	-2
380.030	1	-6
380.372	1	0
380.714	1	8
381.055	1	-4
381.397	1	2
381.739	1	4
382.080	1	-11
382.422	1	15
382.764	1	-3
383.105	1	10
383.447	1	7
383.789	1	1
384.130	1	1
384.472	1	0
384.814	1	-1
385.156	1	9
385.497	1	2
385.839	1	7
386.180	1	4
386.522	1	-4
386.864	1	4
387.205	1	-10
387.547	1	1
387.889	1	6
388.230	1	-6
388.572	1	-2
388.914	1	9
389.255	1	4
389.597	1	-6
389.939	1	2
390.280	1	4
390.622	1	3
390.963	1	7
391.305	1	2
391.647	1	9
391.988	1	-7
392.330	1	14
392.671	1	6
393.013	1	10
393.355	1	11
393.696	1	5
394.038	1	-5
394.379	1	-1
394.721	1	1
395.062	1	-8
395.404	1	1
395.746	1	-2
396.087	1	7
396.429	1	3
396.770	1	8
397.112	1	1
397.453	1	-3
397.795	1	9
398.136	1	2
398.478	1	1
398.819	1	11
399.161	1	0
399.503	1	4
399.844	1	-3
400.186	1	9
400.527	1	3
400.869	1	8
401.210	1	-8
401.552	1	9
401.893	1	6
402.235	1	6
402.576	1	12
402.918	1	2
403.259	1	-8
403.601	1	-7
403.942	1	-1
404.284	1	-3
404.625	1	2
404.967	1	6
405.308	1	-2
405.649	1	-2
405.991	1	6
406.332	1	-9
406.674	1	6
407.015	1	-4
407.357	1	2
407.698	1	-7
408.040	1	-6
408.381	1	0
408.722	1	-1
409.064	1	-10
409.405	1	0
409.747	1	-3
410.088	1	0
410.430	1	6
410.771	1	5
411.112	1	9
411.454	1	11
411.795	1	10
412.137	1	2
412.478	1	-2
412.819	1	-8
413.161	1	-3
413.502	1	-8
413.844	1	-3
414.185	1	6
414.526	1	1
414.868	1	1
415.209	1	5
415.550	1	-10
415.892	1	-5
416.233	1	-4
416.575	1	4
416.916	1	0
417.257	1	9
417.599	1	2
417.940	1	0
418.281	1	-6
418.623	1	-3
418.964	1	-2
419.305	1	-1
419.647	1	-2
419.988	1	-4
420.329	1	-2
420.671	1	2
421.012	1	8
421.353	1	12
421.695	1	4
422.036	1	-1
422.377	1	6
422.718	1	-5
423.060	1	2
423.401	1	-1
423.742	1	2
424.084	1	-4
424.425	1	0
424.766	1	9
425.107	1	-4
425.449	1	0
425.790	1	2
426.131	1	-1
426.472	1	0
426.814	1	2
427.155	1	-4
427.496	1	3
427.837	1	-7
428.179	1	-11
428.520	1	-5
428.861	1	-6
429.202	1	4
429.544	1	2
429.885	1	-4
430.226	1	2
430.567	1	9
430.909	1	-5
431.250	1	-10
431.591	1	-5
431.932	1	11
432.273	1	-1
432.615	1	-1
432.956	1	0
433.297	1	8
433.638	1	5
433.979	1	-2
434.320	1	-3
434.662	1	-4
435.003	1	-1
435.344	1	5
435.685	1	6
436.026	1	3
436.368	1	0
436.709	1	-13
437.050	1	7
437.391	1	5
437.732	1	-2
438.073	1	11
438.414	1	-9
438.756	1	9
439.097	1	1
439.438	1	5
439.779	1	-7
440.120	1	1
440.461	1	-2
440.802	1	5
441.143	1	11
441.485	1	-7
441.826	1	-11
442.167	1	-9
442.508	1	1
442.849	1	4
443.190	1	-20
443.531	1	0
443.872	1	-6
444.213	1	1
444.554	1	-5
444.895	1	1
445.237	1	-7
445.578	1	5
445.919	1	-4
446.260	1	0
446.601	1	-10
446.942	1	7
447.283	1	2
447.624	1	12
447.965	1	-10
448.306	1	3
448.647	1	5
448.988	1	-9
449.329	1	1
449.670	1	2
450.011	1	-3
450.352	1	4
450.693	1	2
451.034	1	3
451.375	1	-1
451.716	1	5
452.057	1	5
452.398	1	6
452.739	1	-4
453.080	1	11
453.421	1	-5
453.762	1	5
454.103	1	1
454.444	1	-1
454.785	1	1
455.126	1	2
455.467	1	3
455.808	1	8
456.149	1	-4
456.490	1	1
456.831	1	13
457.172	1	-1
457.513	1	11
457.854	1	1
458.195	1	-4
458.536	1	1
458.877	1	-5
459.218	1	10
459.559	1	1
459.899	1	15
460.240	1	0
460.581	1	6
460.922	1	6
461.263	1	0
461.604	1	2
461.945	1	4
462.286	1	9
462.627	1	-2
462.968	1	-8
463.309	1	11
463.649	1	4
463.990	1	-2
464.331	1	-1
464.672	1	2
465.013	1	-5
465.354	1	-3
465.695	1	6
466.036	1	-1
466.376	1	0
466.717	1	-1
467.058	1	9
467.399	1	8
467.740	1	-1
468.081	1	5
468.422	1	7
468.762	1	-9
469.103	1	-10
469.444	1	-2
469.785	1	0
470.126	1	8
470.467	1	-8
470.807	1	4
471.148	1	-1
471.489	1	-3
471.830	1	12
472.171	1	7
472.511	1	9
472.852	1	1
473.193	1	-9
473.534	1	4
473.875	1	3
474.215	1	-9
474.556	1	-1
474.897	1	-1
475.238	1	-5
475.578	1	1
475.919	1	-1
476.260	1	6
476.601	1	0
476.942	1	-1
477.282	1	-10
477.623	1	4
477.964	1	7
478.305	1	-6
478.645	1	-6
478.986	1	-1
479.327	1	-5
479.667	1	-2
480.008	1	8
480.349	1	-2
480.690	1	-8
481.030	1	-2
481.371	1	-1
481.712	1	-2
482.053	1	1
482.393	1	-11
482.734	1	1
483.075	1	11
483.415	1	1
483.756	1	3
484.097	1	-8
484.437	1	-7
484.778	1	5
485.119	1	2
485.459	1	7
485.800	1	-6
486.141	1	-4
486.481	1	1
486.822	1	0
487.163	1	-7
487.503	1	-5
487.844	1	11
488.185	1	-12
488.525	1	-2
488.866	1	7
489.207	1	9
489.547	1	-5
489.888	1	-2
490.228	1	-3
490.569	1	8
490.910	1	-4
491.250	1	-3
491.591	1	-1
491.932	1	8
492.272	1	8
492.613	1	0
492.953	1	6
493.294	1	-1
493.635	1	0
493.975	1	-1
494.316	1	1
494.656	1	-7
494.997	1	3
495.337	1	6
495.678	1	11
496.019	1	-6
496.359	1	8
496.700	1	0
497.040	1	2
497.381	1	-13
497.721	1	2
498.062	1	-3
498.403	1	2
498.743	1	-2
499.084	1	-4
499.424	1	9
499.765	1	-1
500.105	1	9
500.446	1	5
500.786	1	5
501.127	1	7
501.467	1	3
501.808	1	-14
502.148	1	-1
502.489	1	0
502.829	1	7
503.170	1	7
503.510	1	-8
503.851	1	-9
504.191	1	-2
504.532	1	-9
504.872	1	-7
505.213	1	-4
505.553	1	1
505.894	1	-3
506.234	1	4
506.575	1	3
506.915	1	2
507.256	1	-5
507.596	1	5
507.936	1	3
508.277	1	-7
508.617	1	11
508.958	1	8
509.298	1	16
509.639	1	-1
509.979	1	3
510.319	1	-4
510.660	1	4
511.000	1	9
511.341	1	-14
511.681	1	4
512.022	1	-6
512.362	1	2
512.702	1	1
513.043	1	3
513.383	1	-6
513.724	1	11
514.064	1	3
514.404	1	1
514.745	1	2
515.085	1	0
515.425	1	-11
515.766	1	0
516.106	1	-3
516.447	1	5
516.787	1	-6
517.127	1	-3
517.468	1	0
517.808	1	8
518.148	1	0
518.489	1	6
518.829	1	-9
519.169	1	4
519.510	1	1
519.850	1	-10
520.190	1	6
520.531	1	-3
520.871	1	-5
521.211	1	-3
521.552	1	3
521.892	1	-8
522.232	1	2
522.573	1	-1
522.913	1	6
523.253	1	-8
523.593	1	-15
523.934	1	9
524.274	1	-8
524.614	1	5
524.955	1	0
525.295	1	-10
525.635	1	11
525.975	1	-4
526.316	1	1
526.656	1	10
526.996	1	13
527.337	1	-9
527.677	1	12
528.017	1	0
528.357	1	0
528.698	1	-18
529.038	1	2
529.378	1	10
529.718	1	5
530.058	1	-4
530.399	1	9
530.739	1	0
531.079	1	7
531.419	1	5
531.760	1	2
532.100	1	1
532.440	1	-2
532.780	1	3
533.120	1	-7
533.461	1	14
533.801	1	0
534.141	1	9
534.481	1	-2
534.821	1	8
535.162	1	5
535.502	1	6
535.842	1	4
536.182	1	-7
536.522	1	2
536.862	1	7
537.203	1	9
537.543	1	1
537.883	1	1
538.223	1	-6
538.563	1	1
538.903	1	-7
539.243	1	-7
539.584	1	0
539.924	1	5
540.264	1	3
540.604	1	4
540.944	1	-9
541.284	1	-10
541.624	1	-1
541.964	1	6
542.305	1	-10
542.645	1	3
542.985	1	-7
543.325	1	-6
543.665	1	7
544.005	1	1
544.345	1	-4
544.685	1	1
545.025	1	-9
545.365	1	7
545.705	1	3
546.045	1	5
546.386	1	0
546.726	1	-6
547.066	1	-11
547.406	1	5
547.746	1	2
548.086	1	0
548.426	1	0
548.766	1	6
549.106	1	1
549.446	1	7
549.786	1	3
550.126	1	-10
550.466	1	1
550.806	1	7
551.146	1	0
551.486	1	-2
551.826	1	4
552.166	1	0
552.506	1	-10
552.846	1	-5
553.186	1	0
553.526	1	4
553.866	1	7
554.206	1	5
554.546	1	-3
554.886	1	6
555.226	1	-4
555.566	1	-3
555.906	1	9
556.246	1	0
556.586	1	9
556.926	1	1
557.266	1	6
557.606	1	-11
557.946	1	2
558.286	1	5
558.626	1	6
558.966	1	3
559.306	1	-3
559.646	1	-2
559.986	1	-3
560.325	1	-11
560.665	1	1
561.005	1	10
561.345	1	-2
561.685	1	-11
562.025	1	1
562.365	1	9
562.705	1	7
563.045	1	7
563.385	1	-8
563.725	1	-3
564.064	1	2
564.404	1	6
564.744	1	2
565.084	1	-9
565.424	1	-1
565.764	1	13
566.104	1	-5
566.444	1	11
566.783	1	2
567.123	1	26
567.463	1	-1
567.803	1	-5
568.143	1	-6
568.483	1	-2
568.823	1	5
569.162	1	8
569.502	1	2
569.842	1	-6
570.182	1	-10
570.522	1	6
570.862	1	0
571.201	1	11
571.541	1	-7
571.881	1	3
572.221	1	-2
572.561	1	-6
572.900	1	11
573.240	1	-7
573.580	1	3
573.920	1	8
574.260	1	9
574.599	1	-1
574.939	1	6
575.279	1	3
575.619	1	6
575.959	1	-2
576.298	1	-8
576.638	1	2
576.978	1	-6
577.318	1	5
577.657	1	-13
577.997	1	-1
578.337	1	-2
578.677	1	0
579.016	1	10
579.356	1	-7
579.696	1	4
580.036	1	-4
580.375	1	-3
580.715	1	8
581.055	1	2
581.394	1	-12
581.734	1	1
582.074	1	-4
582.414	1	4
582.753	1	8
583.093	1	1
583.433	1	-7
583.772	1	0
584.112	1	9
584.452	1	0
584.791	1	0
585.131	1	-1
585.471	1	-4
585.811	1	2
586.150	1	-2
586.490	1	-6
586.830	1	-3
587.169	1	1
587.509	1	3
587.849	1	1
588.188	1	1
588.528	1	1
588.867	1	0
589.207	1	-9
589.547	1	-6
589.886	1	-14
590.226	1	2
590.566	1	-5
590.905	1	3
591.245	1	-2
591.585	1	-2
591.924	1	-1
592.264	1	1
592.603	1	-2
592.943	1	-4
593.283	1	3
593.622	1	-1
593.962	1	8
594.301	1	4
594.641	1	-6
594.981	1	-3
595.320	1	6
595.660	1	-5
595.999	1	3
596.339	1	11
596.678	1	5
597.018	1	2
597.358	1	0
597.697	1	-8
598.037	1	7
598.376	1	10
598.716	1	-9
599.055	1	2
599.395	1	10
599.734	1	1
600.074	1	-10
600.413	1	-3
600.753	1	1
601.092	1	-11
601.432	1	-1
601.771	1	9
602.111	1	-9
602.451	1	-5
602.790	1	1
603.130	1	-3
603.469	1	-3
603.809	1	1
604.148	1	7
604.487	1	2
604.827	1	-11
605.166	1	2
605.506	1	2
605.845	1	-2
606.185	1	-7
606.524	1	-6
606.864	1	-5
607.203	1	5
607.543	1	-10
607.882	1	-12
608.222	1	4
608.561	1	7
608.901	1	-6
609.240	1	-2
609.579	1	-2
609.919	1	-9
610.258	1	8
610.598	1	5
610.937	1	-3
611.277	1	7
611.616	1	-6
611.955	1	7
612.295	1	-2
612.634	1	-4
612.974	1	12
613.313	1	2
613.652	1	-10
613.992	1	-2
614.331	1	0
614.671	1	3
615.010	1	4
615.349	1	0
615.689	1	4
616.028	1	1
616.368	1	-2
616.707	1	-5
617.046	1	4
617.386	1	2
617.725	1	3
618.064	1	3
618.404	1	13
618.743	1	0
619.082	1	-7
619.422	1	-4
619.761	1	-3
620.100	1	-8
620.440	1	3
620.779	1	-4
621.118	1	-9
621.458	1	3
621.797	1	3
622.136	1	1
622.476	1	5
622.815	1	-6
623.154	1	-3
623.494	1	2
623.833	1	-8
624.172	1	7
624.511	1	-5
624.851	1	-3
625.190	1	1
625.529	1	3
625.869	1	5
626.208	1	-3
626.547	1	4
626.886	1	-3
627.226	1	10
627.565	1	2
627.904	1	-2
628.243	1	-4
628.583	1	-8
628.922	1	-12
629.261	1	-3
629.600	1	7
629.940	1	1
630.279	1	-1
630.618	1	2
630.957	1	-5
631.297	1	-4
631.636	1	3
631.975	1	10
632.314	1	8
632.653	1	-9
632.993	1	7
633.332	1	7
633.671	1	-3
634.010	1	-2
634.349	1	2
634.689	1	3
635.028	1	3
635.367	1	4
635.706	1	-10
636.045	1	-9
636.384	1	-2
636.724	1	4
637.063	1	0
637.402	1	8
637.741	1	1
638.080	1	0
638.419	1	10
638.759	1	3
639.098	1	1
639.437	1	-3
639.776	1	-5
640.115	1	-2
640.454	1	8
640.793	1	15
641.132	1	-5
641.472	1	-10
641.811	1	-5
642.150	1	-2
642.489	1	-2
642.828	1	-7
643.167	1	9
643.506	1	-5
643.845	1	3
644.184	1	2
644.524	1	-10
644.863	1	-2
645.202	1	-7
645.541	1	-7
645.880	1	2
646.219	1	6
646.558	1	-3
646.897	1	0
647.236	1	2
647.575	1	8
647.914	1	-1
648.253	1	-5
648.592	1	3
648.931	1	6
649.270	1	-1
649.610	1	9
649.949	1	-1
650.288	1	-3
650.627	1	5
650.966	1	-2
651.305	1	-1
651.644	1	-4
651.983	1	3
652.322	1	5
652.661	1	-2
653.000	1	2
653.339	1	4
653.678	1	-4
654.017	1	-6
654.356	1	6
654.695	1	5
655.034	1	4
655.373	1	2
655.712	1	-6
656.051	1	11
656.390	1	2
656.729	1	10
657.068	1	-4
657.406	1	2
657.745	1	-1
658.084	1	2
658.423	1	-4
658.762	1	-10
659.101	1	-10
659.440	1	3
659.779	1	1
660.118	1	-3
660.457	1	-3
660.796	1	2
661.135	1	-5
661.474	1	0
661.813	1	5
662.152	1	0
662.491	1	-2
662.829	1	2
663.168	1	-1
663.507	1	-6
663.846	1	3
664.185	1	-1
664.524	1	-6
664.863	1	-3
665.202	1	-1
665.541	1	-2
665.879	1	-3
666.218	1	-6
666.557	1	5
666.896	1	-3
667.235	1	5
667.574	1	4
667.913	1	2
668.251	1	2
668.590	1	-2
668.929	1	-2
669.268	1	2
669.607	1	-12
669.946	1	2
670.285	1	9
670.623	1	-6
670.962	1	-3
671.301	1	1
671.640	1	-13
671.979	1	9
672.317	1	1
672.656	1	4
672.995	1	5
673.334	1	5
673.673	1	13
674.011	1	7
674.350	1	-5
674.689	1	-3
675.028	1	-3
675.367	1	-1
675.705	1	-12
676.044	1	-1
676.383	1	-6
676.722	1	6
677.060	1	8
677.399	1	0
677.738	1	-4
678.077	1	0
678.416	1	-2
678.754	1	-7
679.093	1	4
679.432	1	-4
679.771	1	8
680.109	1	5
680.448	1	-2
680.787	1	1
681.125	1	-1
681.464	1	-2
681.803	1	-12
682.142	1	10
682.480	1	-3
682.819	1	3
683.158	1	3
683.496	1	-10
683.835	1	1
684.174	1	6
684.512	1	-3
684.851	1	2
685.190	1	5
685.529	1	4
685.867	1	5
686.206	1	3
686.545	1	5
686.883	1	-8
687.222	1	-4
687.561	1	0
687.899	1	-4
688.238	1	7
688.577	1	-2
688.746	1	0