File: Analysis/GaN_68K_200ms/GaN_sample E_spot4_UVVIS_68 K_200um_200 ms 2x2mm1_251.txt
340.368	1	0
340.710	1	-6
341.052	1	3
341.394	1	3
341.737	1	9
342.079	1	-10
342.421	1	-1
342.763	1	1
343.105	1	7
343.447	1	12
343.789	1	5
344.131	1	1
344.473	1	3
344.815	1	7
345.157	1	7
345.499	1	14
345.841	1	1
346.183	1	7
346.526	1	12
346.868	1	-1
347.210	1	0
347.552	1	14
347.894	1	6
348.236	1	-2
348.578	1	8
348.920	1	21
349.262	1	3
349.604	1	11
349.946	1	0
350.288	1	2
350.630	1	-1
350.972	1	4
351.314	1	3
351.656	1	5
351.998	1	2
352.340	1	-5
352.682	1	4
353.024	1	-1
353.366	1	7
353.708	1	9
354.050	1	11
354.392	1	12
354.734	1	-6
355.076	1	0
355.418	1	2
355.760	1	7
356.102	1	-1
356.444	1	0
356.785	1	11
357.127	1	2
357.469	1	9
357.811	1	14
358.153	1	9
358.495	1	12
358.837	1	6
359.179	1	14
359.521	1	-2
359.863	1	-5
360.205	1	2
360.547	1	3
360.889	1	8
361.231	1	7
361.572	1	-3
361.914	1	1
362.256	1	17
362.598	1	1
362.940	1	5
363.282	1	10
363.624	1	4
363.966	1	18
364.308	1	-1
364.649	1	10
364.991	1	9
365.333	1	24
365.675	1	15
366.017	1	18
366.359	1	24
366.701	1	11
367.042	1	14
367.384	1	12
367.726	1	20
368.068	1	7
368.410	1	1
368.752	1	-1
369.093	1	11
369.435	1	18
369.777	1	16
370.119	1	5
370.461	1	8
370.803	1	6
371.144	1	14
371.486	1	10
371.828	1	6
372.170	1	11
372.512	1	8
372.853	1	10
373.195	1	10
373.537	1	9
373.879	1	14
374.220	1	4
374.562	1	10
374.904	1	12
375.246	1	2
375.588	1	10
375.929	1	8
376.271	1	10
376.613	1	11
376.955	1	0
377.296	1	11
377.638	1	5
377.980	1	19
378.321	1	4
378.663	1	1
379.005	1	9
379.347	1	9
379.688	1	-1
380.030	1	5
380.372	1	7
380.714	1	9
381.055	1	3
381.397	1	9
381.739	1	15
382.080	1	3
382.422	1	14
382.764	1	10
383.105	1	12
383.447	1	19
383.789	1	2
384.130	1	-3
384.472	1	-1
384.814	1	17
385.156	1	9
385.497	1	17
385.839	1	13
386.180	1	20
386.522	1	25
386.864	1	10
387.205	1	15
387.547	1	-1
387.889	1	22
388.230	1	15
388.572	1	8
388.914	1	17
389.255	1	31
389.597	1	13
389.939	1	12
390.280	1	18
390.622	1	14
390.963	1	18
391.305	1	21
391.647	1	11
391.988	1	10
392.330	1	18
392.671	1	19
393.013	1	20
393.355	1	26
393.696	1	7
394.038	1	9
394.379	1	9
394.721	1	14
395.062	1	7
395.404	1	20
395.746	1	4
396.087	1	16
396.429	1	15
396.770	1	18
397.112	1	12
397.453	1	0
397.795	1	14
398.136	1	10
398.478	1	8
398.819	1	21
399.161	1	12
399.503	1	13
399.844	1	14
400.186	1	20
400.527	1	9
400.869	1	21
401.210	1	0
401.552	1	16
401.893	1	5
402.235	1	22
402.576	1	22
402.918	1	10
403.259	1	-4
403.601	1	1
403.942	1	15
404.284	1	11
404.625	1	17
404.967	1	9
405.308	1	6
405.649	1	17
405.991	1	16
406.332	1	6
406.674	1	9
407.015	1	2
407.357	1	7
407.698	1	-5
408.040	1	0
408.381	1	11
408.722	1	5
409.064	1	10
409.405	1	13
409.747	1	-1
410.088	1	12
410.430	1	11
410.771	1	8
411.112	1	13
411.454	1	30
411.795	1	19
412.137	1	12
412.478	1	15
412.819	1	-5
413.161	1	14
413.502	1	2
413.844	1	11
414.185	1	8
414.526	1	7
414.868	1	16
415.209	1	1
415.550	1	-3
415.892	1	-2
416.233	1	10
416.575	1	-2
416.916	1	-2
417.257	1	17
417.599	1	6
417.940	1	11
418.281	1	4
418.623	1	7
418.964	1	3
419.305	1	12
419.647	1	13
419.988	1	8
420.329	1	8
420.671	1	8
421.012	1	14
421.353	1	12
421.695	1	12
422.036	1	0
422.377	1	6
422.718	1	13
423.060	1	7
423.401	1	18
423.742	1	7
424.084	1	10
424.425	1	10
424.766	1	14
425.107	1	13
425.449	1	11
425.790	1	11
426.131	1	3
426.472	1	3
426.814	1	13
427.155	1	8
427.496	1	18
427.837	1	-2
428.179	1	0
428.520	1	-7
428.861	1	7
429.202	1	16
429.544	1	8
429.885	1	3
430.226	1	6
430.567	1	22
430.909	1	-2
431.250	1	-9
431.591	1	16
431.932	1	13
432.273	1	7
432.615	1	4
432.956	1	2
433.297	1	13
433.638	1	4
433.979	1	11
434.320	1	5
434.662	1	-2
435.003	1	7
435.344	1	-4
435.685	1	14
436.026	1	15
436.368	1	0
436.709	1	-1
437.050	1	6
437.391	1	9
437.732	1	7
438.073	1	8
438.414	1	2
438.756	1	7
439.097	1	8
439.438	1	16
439.779	1	2
440.120	1	-7
440.461	1	-3
440.802	1	9
441.143	1	21
441.485	1	0
441.826	1	-5
442.167	1	-5
442.508	1	15
442.849	1	11
443.190	1	2
443.531	1	0
443.872	1	7
444.213	1	0
444.554	1	0
444.895	1	8
445.237	1	-3
445.578	1	5
445.919	1	-1
446.260	1	10
446.601	1	-4
446.942	1	8
447.283	1	19
447.624	1	10
447.965	1	-3
448.306	1	5
448.647	1	19
448.988	1	-8
449.329	1	3
449.670	1	7
450.011	1	7
450.352	1	7
450.693	1	13
451.034	1	4
451.375	1	15
451.716	1	1
452.057	1	13
452.398	1	5
452.739	1	8
453.080	1	21
453.421	1	5
453.762	1	7
454.103	1	4
454.444	1	15
454.785	1	1
455.126	1	6
455.467	1	9
455.808	1	4
456.149	1	0
456.490	1	3
456.831	1	8
457.172	1	11
457.513	1	10
457.854	1	9
458.195	1	2
458.536	1	5
458.877	1	-3
459.218	1	4
459.559	1	4
459.899	1	17
460.240	1	6
460.581	1	8
460.922	1	4
461.263	1	7
461.604	1	10
461.945	1	5
462.286	1	7
462.627	1	4
462.968	1	-2
463.309	1	1
463.649	1	-5
463.990	1	3
464.331	1	1
464.672	1	0
465.013	1	-1
465.354	1	13
465.695	1	18
466.036	1	3
466.376	1	0
466.717	1	-5
467.058	1	13
467.399	1	7
467.740	1	5
468.081	1	8
468.422	1	1
468.762	1	-3
469.103	1	-3
469.444	1	3
469.785	1	13
470.126	1	8
470.467	1	5
470.807	1	0
471.148	1	7
471.489	1	2
471.830	1	13
472.171	1	7
472.511	1	11
472.852	1	-1
473.193	1	3
473.534	1	2
473.875	1	15
474.215	1	-4
474.556	1	-9
474.897	1	3
475.238	1	13
475.578	1	11
475.919	1	16
476.260	1	2
476.601	1	2
476.942	1	3
477.282	1	1
477.623	1	2
477.964	1	10
478.305	1	5
478.645	1	-2
478.986	1	-5
479.327	1	-12
479.667	1	7
480.008	1	11
480.349	1	5
480.690	1	-3
481.030	1	-3
481.371	1	10
481.712	1	2
482.053	1	7
482.393	1	-12
482.734	1	5
483.075	1	10
483.415	1	5
483.756	1	11
484.097	1	-6
484.437	1	-2
484.778	1	7
485.119	1	8
485.459	1	8
485.800	1	1
486.141	1	-2
486.481	1	6
486.822	1	13
487.163	1	-2
487.503	1	-6
487.844	1	-2
488.185	1	7
488.525	1	1
488.866	1	8
489.207	1	10
489.547	1	5
489.888	1	1
490.228	1	-12
490.569	1	8
490.910	1	3
491.250	1	4
491.591	1	-3
491.932	1	11
492.272	1	15
492.613	1	4
492.953	1	3
493.294	1	9
493.635	1	13
493.975	1	5
494.316	1	9
494.656	1	10
494.997	1	11
495.337	1	13
495.678	1	12
496.019	1	4
496.359	1	15
496.700	1	0
497.040	1	8
497.381	1	-14
497.721	1	-6
498.062	1	6
498.403	1	12
498.743	1	9
499.084	1	-8
499.424	1	7
499.765	1	7
500.105	1	10
500.446	1	11
500.786	1	14
501.127	1	12
501.467	1	6
501.808	1	-5
502.148	1	8
502.489	1	8
502.829	1	-3
503.170	1	8
503.510	1	5
503.851	1	-3
504.191	1	7
504.532	1	2
504.872	1	2
505.213	1	14
505.553	1	10
505.894	1	5
506.234	1	8
506.575	1	7
506.915	1	10
507.256	1	-3
507.596	1	7
507.936	1	9
508.277	1	0
508.617	1	12
508.958	1	19
509.298	1	19
509.639	1	20
509.979	1	12
510.319	1	5
510.660	1	14
511.000	1	12
511.341	1	-6
511.681	1	2
512.022	1	3
512.362	1	15
512.702	1	-1
513.043	1	12
513.383	1	-1
513.724	1	19
514.064	1	11
514.404	1	12
514.745	1	1
515.085	1	7
515.425	1	2
515.766	1	12
516.106	1	12
516.447	1	22
516.787	1	6
517.127	1	15
517.468	1	10
517.808	1	6
518.148	1	14
518.489	1	3
518.829	1	6
519.169	1	15
519.510	1	-6
519.850	1	12
520.190	1	9
520.531	1	16
520.871	1	7
521.211	1	12
521.552	1	12
521.892	1	-6
522.232	1	3
522.573	1	8
522.913	1	13
523.253	1	5
523.593	1	-4
523.934	1	15
524.274	1	4
524.614	1	12
524.955	1	11
525.295	1	4
525.635	1	18
525.975	1	4
526.316	1	-2
526.656	1	25
526.996	1	17
527.337	1	11
527.677	1	24
528.017	1	9
528.357	1	6
528.698	1	-1
529.038	1	9
529.378	1	10
529.718	1	9
530.058	1	5
530.399	1	27
530.739	1	3
531.079	1	11
531.419	1	13
531.760	1	19
532.100	1	18
532.440	1	5
532.780	1	9
533.120	1	6
533.461	1	21
533.801	1	13
534.141	1	16
534.481	1	8
534.821	1	13
535.162	1	12
535.502	1	5
535.842	1	10
536.182	1	13
536.522	1	13
536.862	1	12
537.203	1	18
537.543	1	12
537.883	1	14
538.223	1	14
538.563	1	4
538.903	1	3
539.243	1	12
539.584	1	10
539.924	1	15
540.264	1	10
540.604	1	9
540.944	1	6
541.284	1	5
541.624	1	14
541.964	1	9
542.305	1	4
542.645	1	15
542.985	1	7
543.325	1	2
543.665	1	23
544.005	1	3
544.345	1	2
544.685	1	14
545.025	1	1
545.365	1	10
545.705	1	14
546.045	1	16
546.386	1	9
546.726	1	9
547.066	1	2
547.406	1	20
547.746	1	12
548.086	1	3
548.426	1	3
548.766	1	8
549.106	1	18
549.446	1	2
549.786	1	8
550.126	1	9
550.466	1	4
550.806	1	15
551.146	1	-5
551.486	1	7
551.826	1	11
552.166	1	6
552.506	1	5
552.846	1	-1
553.186	1	7
553.526	1	3
553.866	1	16
554.206	1	9
554.546	1	4
554.886	1	9
555.226	1	1
555.566	1	12
555.906	1	18
556.246	1	9
556.586	1	21
556.926	1	11
557.266	1	20
557.606	1	-6
557.946	1	13
558.286	1	7
558.626	1	13
558.966	1	-6
559.306	1	7
559.646	1	3
559.986	1	1
560.325	1	0
560.665	1	12
561.005	1	3
561.345	1	7
561.685	1	7
562.025	1	3
562.365	1	10
562.705	1	16
563.045	1	7
563.385	1	5
563.725	1	12
564.064	1	22
564.404	1	-2
564.744	1	11
565.084	1	-5
565.424	1	2
565.764	1	7
566.104	1	-1
566.444	1	19
566.783	1	5
567.123	1	20
567.463	1	-5
567.803	1	-7
568.143	1	1
568.483	1	-3
568.823	1	11
569.162	1	7
569.502	1	5
569.842	1	10
570.182	1	5
570.522	1	0
570.862	1	8
571.201	1	4
571.541	1	-3
571.881	1	12
572.221	1	2
572.561	1	-4
572.900	1	20
573.240	1	-4
573.580	1	9
573.920	1	5
574.260	1	4
574.599	1	2
574.939	1	3
575.279	1	13
575.619	1	4
575.959	1	-2
576.298	1	-2
576.638	1	7
576.978	1	1
577.318	1	2
577.657	1	1
577.997	1	0
578.337	1	4
578.677	1	-2
579.016	1	8
579.356	1	4
579.696	1	8
580.036	1	0
580.375	1	1
580.715	1	19
581.055	1	5
581.394	1	6
581.734	1	7
582.074	1	5
582.414	1	7
582.753	1	9
583.093	1	0
583.433	1	0
583.772	1	2
584.112	1	5
584.452	1	5
584.791	1	7
585.131	1	-9
585.471	1	8
585.811	1	-2
586.150	1	3
586.490	1	-8
586.830	1	-4
587.169	1	1
587.509	1	10
587.849	1	8
588.188	1	3
588.528	1	7
588.867	1	13
589.207	1	4
589.547	1	8
589.886	1	-8
590.226	1	6
590.566	1	6
590.905	1	4
591.245	1	4
591.585	1	-5
591.924	1	-12
592.264	1	-2
592.603	1	0
592.943	1	-9
593.283	1	7
593.622	1	-4
593.962	1	8
594.301	1	13
594.641	1	-3
594.981	1	7
595.320	1	4
595.660	1	0
595.999	1	4
596.339	1	14
596.678	1	5
597.018	1	9
597.358	1	6
597.697	1	4
598.037	1	3
598.376	1	3
598.716	1	-11
599.055	1	-2
599.395	1	15
599.734	1	3
600.074	1	1
600.413	1	4
600.753	1	6
601.092	1	-9
601.432	1	-1
601.771	1	8
602.111	1	-4
602.451	1	4
602.790	1	5
603.130	1	11
603.469	1	-1
603.809	1	4
604.148	1	5
604.487	1	2
604.827	1	-3
605.166	1	-4
605.506	1	8
605.845	1	2
606.185	1	3
606.524	1	7
606.864	1	4
607.203	1	12
607.543	1	-2
607.882	1	-1
608.222	1	12
608.561	1	3
608.901	1	2
609.240	1	3
609.579	1	8
609.919	1	2
610.258	1	16
610.598	1	10
610.937	1	3
611.277	1	4
611.616	1	-1
611.955	1	8
612.295	1	-1
612.634	1	-5
612.974	1	15
613.313	1	4
613.652	1	-8
613.992	1	6
614.331	1	2
614.671	1	1
615.010	1	4
615.349	1	7
615.689	1	4
616.028	1	9
616.368	1	1
616.707	1	-1
617.046	1	4
617.386	1	2
617.725	1	1
618.064	1	4
618.404	1	14
618.743	1	0
619.082	1	3
619.422	1	3
619.761	1	3
620.100	1	6
620.440	1	7
620.779	1	-1
621.118	1	-2
621.458	1	9
621.797	1	2
622.136	1	9
622.476	1	4
622.815	1	3
623.154	1	10
623.494	1	10
623.833	1	-1
624.172	1	16
624.511	1	4
624.851	1	-8
625.190	1	8
625.529	1	8
625.869	1	8
626.208	1	4
626.547	1	2
626.886	1	1
627.226	1	9
627.565	1	8
627.904	1	3
628.243	1	-2
628.583	1	6
628.922	1	-5
629.261	1	8
629.600	1	9
629.940	1	12
630.279	1	-8
630.618	1	7
630.957	1	-3
631.297	1	-4
631.636	1	4
631.975	1	3
632.314	1	15
632.653	1	1
632.993	1	6
633.332	1	5
633.671	1	13
634.010	1	4
634.349	1	5
634.689	1	12
635.028	1	4
635.367	1	2
635.706	1	1
636.045	1	2
636.384	1	16
636.724	1	-2
637.063	1	10
637.402	1	9
637.741	1	7
638.080	1	11
638.419	1	11
638.759	1	3
639.098	1	1
639.437	1	-4
639.776	1	3
640.115	1	5
640.454	1	15
640.793	1	5
641.132	1	8
641.472	1	-9
641.811	1	7
642.150	1	-1
642.489	1	-5
642.828	1	8
643.167	1	12
643.506	1	-7
643.845	1	-2
644.184	1	13
644.524	1	-3
644.863	1	-14
645.202	1	10
645.541	1	-14
645.880	1	-1
646.219	1	9
646.558	1	7
646.897	1	1
647.236	1	0
647.575	1	3
647.914	1	1
648.253	1	5
648.592	1	1
648.931	1	-2
649.270	1	14
649.610	1	21
649.949	1	0
650.288	1	0
650.627	1	3
650.966	1	2
651.305	1	0
651.644	1	8
651.983	1	0
652.322	1	9
652.661	1	15
653.000	1	-4
653.339	1	11
653.678	1	3
654.017	1	7
654.356	1	13
654.695	1	15
655.034	1	-1
655.373	1	-1
655.712	1	-4
656.051	1	3
656.390	1	4
656.729	1	10
657.068	1	-2
657.406	1	14
657.745	1	4
658.084	1	7
658.423	1	1
658.762	1	-3
659.101	1	-5
659.440	1	25
659.779	1	-2
660.118	1	10
660.457	1	1
660.796	1	3
661.135	1	8
661.474	1	4
661.813	1	12
662.152	1	10
662.491	1	-3
662.829	1	-4
663.168	1	4
663.507	1	5
663.846	1	13
664.185	1	0
664.524	1	-13
664.863	1	7
665.202	1	-6
665.541	1	2
665.879	1	6
666.218	1	-5
666.557	1	-1
666.896	1	-2
667.235	1	4
667.574	1	4
667.913	1	8
668.251	1	-7
668.590	1	3
668.929	1	3
669.268	1	-1
669.607	1	-1
669.946	1	12
670.285	1	17
670.623	1	2
670.962	1	-2
671.301	1	7
671.640	1	-4
671.979	1	11
672.317	1	-3
672.656	1	13
672.995	1	9
673.334	1	7
673.673	1	15
674.011	1	5
674.350	1	2
674.689	1	2
675.028	1	5
675.367	1	11
675.705	1	-6
676.044	1	-1
676.383	1	-2
676.722	1	11
677.060	1	2
677.399	1	7
677.738	1	-8
678.077	1	7
678.416	1	14
678.754	1	12
679.093	1	4
679.432	1	-10
679.771	1	4
680.109	1	13
680.448	1	0
680.787	1	5
681.125	1	4
681.464	1	1
681.803	1	-7
682.142	1	20
682.480	1	6
682.819	1	5
683.158	1	9
683.496	1	-5
683.835	1	6
684.174	1	11
684.512	1	3
684.851	1	0
685.190	1	8
685.529	1	2
685.867	1	4
686.206	1	3
686.545	1	9
686.883	1	-4
687.222	1	-4
687.561	1	0
687.899	1	7
688.238	1	5
688.577	1	-4
688.746	1	6