File: Analysis/GaN_68K_200ms/GaN_sample E_spot4_UVVIS_68 K_200um_200 ms 2x2mm1_699.txt
340.368	1	0
340.710	1	-10
341.052	1	-6
341.394	1	-3
341.737	1	6
342.079	1	-3
342.421	1	1
342.763	1	2
343.105	1	3
343.447	1	0
343.789	1	1
344.131	1	0
344.473	1	-3
344.815	1	0
345.157	1	3
345.499	1	9
345.841	1	2
346.183	1	5
346.526	1	6
346.868	1	5
347.210	1	-5
347.552	1	7
347.894	1	5
348.236	1	6
348.578	1	3
348.920	1	-1
349.262	1	0
349.604	1	12
349.946	1	3
350.288	1	3
350.630	1	-6
350.972	1	4
351.314	1	-12
351.656	1	6
351.998	1	-9
352.340	1	-4
352.682	1	-8
353.024	1	1
353.366	1	2
353.708	1	2
354.050	1	7
354.392	1	-1
354.734	1	-7
355.076	1	-6
355.418	1	-3
355.760	1	0
356.102	1	-2
356.444	1	2
356.785	1	5
357.127	1	7
357.469	1	4
357.811	1	10
358.153	1	6
358.495	1	3
358.837	1	-4
359.179	1	14
359.521	1	-2
359.863	1	-1
360.205	1	-9
360.547	1	3
360.889	1	2
361.231	1	-4
361.572	1	0
361.914	1	1
362.256	1	-1
362.598	1	7
362.940	1	-2
363.282	1	-2
363.624	1	6
363.966	1	4
364.308	1	-3
364.649	1	-7
364.991	1	3
365.333	1	9
365.675	1	-3
366.017	1	0
366.359	1	11
366.701	1	-15
367.042	1	13
367.384	1	3
367.726	1	8
368.068	1	-9
368.410	1	-1
368.752	1	-6
369.093	1	5
369.435	1	-4
369.777	1	-5
370.119	1	7
370.461	1	-4
370.803	1	-6
371.144	1	1
371.486	1	12
371.828	1	-6
372.170	1	5
372.512	1	10
372.853	1	-2
373.195	1	-6
373.537	1	2
373.879	1	5
374.220	1	-3
374.562	1	0
374.904	1	8
375.246	1	-2
375.588	1	-5
375.929	1	3
376.271	1	-6
376.613	1	-4
376.955	1	-4
377.296	1	9
377.638	1	-2
377.980	1	-3
378.321	1	-5
378.663	1	0
379.005	1	10
379.347	1	-3
379.688	1	-5
380.030	1	-9
380.372	1	1
380.714	1	10
381.055	1	3
381.397	1	-12
381.739	1	6
382.080	1	-8
382.422	1	4
382.764	1	-13
383.105	1	9
383.447	1	7
383.789	1	1
384.130	1	-7
384.472	1	-13
384.814	1	3
385.156	1	16
385.497	1	9
385.839	1	3
386.180	1	7
386.522	1	10
386.864	1	-17
387.205	1	-5
387.547	1	-2
387.889	1	8
388.230	1	-5
388.572	1	7
388.914	1	16
389.255	1	-3
389.597	1	-5
389.939	1	6
390.280	1	18
390.622	1	-7
390.963	1	8
391.305	1	15
391.647	1	-3
391.988	1	6
392.330	1	4
392.671	1	9
393.013	1	4
393.355	1	11
393.696	1	-7
394.038	1	-1
394.379	1	-1
394.721	1	5
395.062	1	-3
395.404	1	8
395.746	1	-6
396.087	1	1
396.429	1	3
396.770	1	2
397.112	1	-4
397.453	1	-14
397.795	1	1
398.136	1	1
398.478	1	-2
398.819	1	12
399.161	1	4
399.503	1	1
399.844	1	-6
400.186	1	16
400.527	1	3
400.869	1	11
401.210	1	-8
401.552	1	16
401.893	1	-2
402.235	1	3
402.576	1	7
402.918	1	-2
403.259	1	-7
403.601	1	-8
403.942	1	3
404.284	1	-3
404.625	1	2
404.967	1	-2
405.308	1	3
405.649	1	-7
405.991	1	9
406.332	1	-3
406.674	1	-2
407.015	1	-1
407.357	1	-5
407.698	1	-18
408.040	1	-11
408.381	1	2
408.722	1	3
409.064	1	-2
409.405	1	-2
409.747	1	-4
410.088	1	9
410.430	1	10
410.771	1	5
411.112	1	4
411.454	1	3
411.795	1	-10
412.137	1	6
412.478	1	12
412.819	1	2
413.161	1	0
413.502	1	0
413.844	1	2
414.185	1	-1
414.526	1	0
414.868	1	9
415.209	1	1
415.550	1	-7
415.892	1	7
416.233	1	2
416.575	1	-8
416.916	1	3
417.257	1	11
417.599	1	7
417.940	1	-2
418.281	1	7
418.623	1	5
418.964	1	0
419.305	1	2
419.647	1	5
419.988	1	-1
420.329	1	5
420.671	1	1
421.012	1	-1
421.353	1	6
421.695	1	-3
422.036	1	-6
422.377	1	3
422.718	1	1
423.060	1	2
423.401	1	0
423.742	1	-1
424.084	1	5
424.425	1	-7
424.766	1	-1
425.107	1	-2
425.449	1	-4
425.790	1	-3
426.131	1	-1
426.472	1	-9
426.814	1	16
427.155	1	-9
427.496	1	8
427.837	1	-3
428.179	1	-6
428.520	1	0
428.861	1	-1
429.202	1	3
429.544	1	0
429.885	1	1
430.226	1	-11
430.567	1	8
430.909	1	-8
431.250	1	-7
431.591	1	0
431.932	1	1
432.273	1	-6
432.615	1	5
432.956	1	-7
433.297	1	3
433.638	1	-3
433.979	1	-3
434.320	1	-1
434.662	1	-8
435.003	1	14
435.344	1	1
435.685	1	1
436.026	1	-6
436.368	1	-1
436.709	1	-3
437.050	1	5
437.391	1	1
437.732	1	-3
438.073	1	12
438.414	1	2
438.756	1	-1
439.097	1	8
439.438	1	7
439.779	1	-8
440.120	1	0
440.461	1	0
440.802	1	8
441.143	1	4
441.485	1	-7
441.826	1	-4
442.167	1	5
442.508	1	1
442.849	1	1
443.190	1	-13
443.531	1	2
443.872	1	-5
444.213	1	-7
444.554	1	-1
444.895	1	-6
445.237	1	-13
445.578	1	-1
445.919	1	-2
446.260	1	6
446.601	1	-6
446.942	1	0
447.283	1	2
447.624	1	2
447.965	1	-13
448.306	1	1
448.647	1	14
448.988	1	-9
449.329	1	4
449.670	1	-1
450.011	1	3
450.352	1	6
450.693	1	-1
451.034	1	10
451.375	1	5
451.716	1	-2
452.057	1	6
452.398	1	8
452.739	1	-3
453.080	1	16
453.421	1	2
453.762	1	3
454.103	1	-6
454.444	1	2
454.785	1	-8
455.126	1	3
455.467	1	10
455.808	1	-7
456.149	1	0
456.490	1	11
456.831	1	5
457.172	1	-5
457.513	1	7
457.854	1	1
458.195	1	-6
458.536	1	4
458.877	1	-1
459.218	1	-7
459.559	1	8
459.899	1	5
460.240	1	1
460.581	1	2
460.922	1	-5
461.263	1	4
461.604	1	3
461.945	1	1
462.286	1	0
462.627	1	-7
462.968	1	-7
463.309	1	2
463.649	1	3
463.990	1	1
464.331	1	1
464.672	1	0
465.013	1	-3
465.354	1	1
465.695	1	5
466.036	1	-1
466.376	1	4
466.717	1	-3
467.058	1	15
467.399	1	0
467.740	1	-1
468.081	1	3
468.422	1	3
468.762	1	-8
469.103	1	0
469.444	1	-5
469.785	1	6
470.126	1	15
470.467	1	-5
470.807	1	1
471.148	1	-4
471.489	1	3
471.830	1	14
472.171	1	0
472.511	1	8
472.852	1	-7
473.193	1	-4
473.534	1	-10
473.875	1	7
474.215	1	-6
474.556	1	-2
474.897	1	2
475.238	1	7
475.578	1	0
475.919	1	4
476.260	1	-5
476.601	1	-9
476.942	1	-1
477.282	1	-7
477.623	1	7
477.964	1	2
478.305	1	4
478.645	1	-9
478.986	1	0
479.327	1	-11
479.667	1	1
480.008	1	4
480.349	1	1
480.690	1	-7
481.030	1	-9
481.371	1	-2
481.712	1	-5
482.053	1	0
482.393	1	-12
482.734	1	4
483.075	1	13
483.415	1	4
483.756	1	6
484.097	1	-8
484.437	1	-7
484.778	1	6
485.119	1	-2
485.459	1	6
485.800	1	-14
486.141	1	-17
486.481	1	0
486.822	1	6
487.163	1	-5
487.503	1	-18
487.844	1	-4
488.185	1	-5
488.525	1	-5
488.866	1	7
489.207	1	17
489.547	1	-6
489.888	1	-1
490.228	1	-11
490.569	1	3
490.910	1	3
491.250	1	-1
491.591	1	-7
491.932	1	9
492.272	1	4
492.613	1	5
492.953	1	-2
493.294	1	3
493.635	1	-1
493.975	1	8
494.316	1	8
494.656	1	1
494.997	1	-8
495.337	1	6
495.678	1	7
496.019	1	-10
496.359	1	1
496.700	1	2
497.040	1	7
497.381	1	-16
497.721	1	-3
498.062	1	2
498.403	1	6
498.743	1	-3
499.084	1	-5
499.424	1	13
499.765	1	3
500.105	1	5
500.446	1	10
500.786	1	4
501.127	1	15
501.467	1	-4
501.808	1	-11
502.148	1	-1
502.489	1	-2
502.829	1	-2
503.170	1	-3
503.510	1	3
503.851	1	-11
504.191	1	5
504.532	1	-14
504.872	1	-10
505.213	1	-1
505.553	1	3
505.894	1	7
506.234	1	3
506.575	1	-8
506.915	1	-6
507.256	1	-7
507.596	1	4
507.936	1	10
508.277	1	-5
508.617	1	3
508.958	1	10
509.298	1	2
509.639	1	2
509.979	1	-11
510.319	1	-4
510.660	1	5
511.000	1	6
511.341	1	-13
511.681	1	2
512.022	1	-5
512.362	1	2
512.702	1	-1
513.043	1	1
513.383	1	-13
513.724	1	8
514.064	1	4
514.404	1	7
514.745	1	-14
515.085	1	-1
515.425	1	-2
515.766	1	-1
516.106	1	1
516.447	1	5
516.787	1	1
517.127	1	8
517.468	1	-3
517.808	1	2
518.148	1	-2
518.489	1	10
518.829	1	-8
519.169	1	8
519.510	1	-2
519.850	1	-1
520.190	1	-3
520.531	1	1
520.871	1	-6
521.211	1	4
521.552	1	6
521.892	1	-7
522.232	1	-12
522.573	1	-9
522.913	1	6
523.253	1	-1
523.593	1	-12
523.934	1	0
524.274	1	-10
524.614	1	0
524.955	1	-6
525.295	1	-3
525.635	1	8
525.975	1	-8
526.316	1	0
526.656	1	16
526.996	1	17
527.337	1	1
527.677	1	13
528.017	1	-14
528.357	1	-1
528.698	1	-15
529.038	1	-4
529.378	1	-1
529.718	1	7
530.058	1	-2
530.399	1	7
530.739	1	2
531.079	1	11
531.419	1	10
531.760	1	15
532.100	1	7
532.440	1	1
532.780	1	-8
533.120	1	-3
533.461	1	15
533.801	1	2
534.141	1	5
534.481	1	-5
534.821	1	6
535.162	1	13
535.502	1	8
535.842	1	-2
536.182	1	-8
536.522	1	8
536.862	1	3
537.203	1	-2
537.543	1	4
537.883	1	-4
538.223	1	2
538.563	1	0
538.903	1	-3
539.243	1	1
539.584	1	7
539.924	1	5
540.264	1	-2
540.604	1	-1
540.944	1	-5
541.284	1	9
541.624	1	-7
541.964	1	4
542.305	1	-9
542.645	1	2
542.985	1	-17
543.325	1	-4
543.665	1	8
544.005	1	-6
544.345	1	-2
544.685	1	3
545.025	1	-1
545.365	1	8
545.705	1	9
546.045	1	0
546.386	1	-3
546.726	1	-5
547.066	1	-10
547.406	1	12
547.746	1	7
548.086	1	5
548.426	1	-5
548.766	1	4
549.106	1	10
549.446	1	-1
549.786	1	4
550.126	1	-3
550.466	1	8
550.806	1	7
551.146	1	-3
551.486	1	5
551.826	1	11
552.166	1	-8
552.506	1	-5
552.846	1	-2
553.186	1	-7
553.526	1	1
553.866	1	5
554.206	1	2
554.546	1	-8
554.886	1	-3
555.226	1	-8
555.566	1	3
555.906	1	4
556.246	1	3
556.586	1	6
556.926	1	11
557.266	1	7
557.606	1	-5
557.946	1	11
558.286	1	3
558.626	1	4
558.966	1	-5
559.306	1	-3
559.646	1	-3
559.986	1	-1
560.325	1	-3
560.665	1	3
561.005	1	-2
561.345	1	-1
561.685	1	-5
562.025	1	-7
562.365	1	-1
562.705	1	13
563.045	1	-1
563.385	1	-2
563.725	1	-6
564.064	1	-1
564.404	1	-5
564.744	1	6
565.084	1	-7
565.424	1	2
565.764	1	6
566.104	1	-2
566.444	1	2
566.783	1	-1
567.123	1	16
567.463	1	-3
567.803	1	-11
568.143	1	-1
568.483	1	-2
568.823	1	4
569.162	1	4
569.502	1	4
569.842	1	4
570.182	1	-5
570.522	1	6
570.862	1	9
571.201	1	6
571.541	1	-9
571.881	1	4
572.221	1	3
572.561	1	-15
572.900	1	10
573.240	1	-7
573.580	1	6
573.920	1	3
574.260	1	1
574.599	1	-2
574.939	1	0
575.279	1	10
575.619	1	6
575.959	1	0
576.298	1	-6
576.638	1	0
576.978	1	8
577.318	1	9
577.657	1	-12
577.997	1	-4
578.337	1	-5
578.677	1	-4
579.016	1	11
579.356	1	-5
579.696	1	6
580.036	1	-8
580.375	1	-5
580.715	1	3
581.055	1	8
581.394	1	-1
581.734	1	-3
582.074	1	-12
582.414	1	-1
582.753	1	8
583.093	1	-4
583.433	1	1
583.772	1	-5
584.112	1	6
584.452	1	1
584.791	1	-8
585.131	1	-10
585.471	1	-3
585.811	1	-6
586.150	1	-1
586.490	1	-3
586.830	1	-4
587.169	1	6
587.509	1	-4
587.849	1	11
588.188	1	5
588.528	1	0
588.867	1	6
589.207	1	-7
589.547	1	-2
589.886	1	-9
590.226	1	4
590.566	1	0
590.905	1	4
591.245	1	-3
591.585	1	4
591.924	1	1
592.264	1	-7
592.603	1	-5
592.943	1	-2
593.283	1	-1
593.622	1	3
593.962	1	11
594.301	1	11
594.641	1	-2
594.981	1	-1
595.320	1	4
595.660	1	-6
595.999	1	14
596.339	1	4
596.678	1	-3
597.018	1	10
597.358	1	7
597.697	1	-1
598.037	1	4
598.376	1	3
598.716	1	-12
599.055	1	4
599.395	1	13
599.734	1	-14
600.074	1	-4
600.413	1	1
600.753	1	0
601.092	1	-20
601.432	1	-1
601.771	1	6
602.111	1	-5
602.451	1	1
602.790	1	-2
603.130	1	3
603.469	1	-5
603.809	1	6
604.148	1	-1
604.487	1	6
604.827	1	-10
605.166	1	4
605.506	1	3
605.845	1	-10
606.185	1	-1
606.524	1	-7
606.864	1	-1
607.203	1	16
607.543	1	-12
607.882	1	-2
608.222	1	-6
608.561	1	4
608.901	1	0
609.240	1	13
609.579	1	3
609.919	1	-2
610.258	1	1
610.598	1	-5
610.937	1	-11
611.277	1	-8
611.616	1	-7
611.955	1	2
612.295	1	2
612.634	1	-6
612.974	1	2
613.313	1	-2
613.652	1	5
613.992	1	-1
614.331	1	0
614.671	1	1
615.010	1	1
615.349	1	3
615.689	1	-2
616.028	1	-6
616.368	1	-11
616.707	1	-1
617.046	1	-2
617.386	1	2
617.725	1	6
618.064	1	5
618.404	1	15
618.743	1	-2
619.082	1	0
619.422	1	-1
619.761	1	2
620.100	1	17
620.440	1	-1
620.779	1	-5
621.118	1	2
621.458	1	4
621.797	1	1
622.136	1	7
622.476	1	2
622.815	1	1
623.154	1	-3
623.494	1	2
623.833	1	-4
624.172	1	-3
624.511	1	-2
624.851	1	-13
625.190	1	-2
625.529	1	5
625.869	1	4
626.208	1	-4
626.547	1	3
626.886	1	-8
627.226	1	0
627.565	1	7
627.904	1	2
628.243	1	2
628.583	1	-13
628.922	1	-8
629.261	1	1
629.600	1	7
629.940	1	9
630.279	1	-6
630.618	1	6
630.957	1	-8
631.297	1	-4
631.636	1	-8
631.975	1	1
632.314	1	10
632.653	1	-4
632.993	1	6
633.332	1	-3
633.671	1	1
634.010	1	-2
634.349	1	7
634.689	1	2
635.028	1	-1
635.367	1	-1
635.706	1	-5
636.045	1	-1
636.384	1	9
636.724	1	4
637.063	1	0
637.402	1	2
637.741	1	12
638.080	1	-2
638.419	1	3
638.759	1	1
639.098	1	4
639.437	1	-7
639.776	1	-4
640.115	1	-11
640.454	1	6
640.793	1	3
641.132	1	9
641.472	1	-8
641.811	1	0
642.150	1	-3
642.489	1	1
642.828	1	0
643.167	1	16
643.506	1	-11
643.845	1	-2
644.184	1	-1
644.524	1	2
644.863	1	-6
645.202	1	-9
645.541	1	-4
645.880	1	0
646.219	1	9
646.558	1	7
646.897	1	-9
647.236	1	1
647.575	1	-1
647.914	1	-5
648.253	1	-4
648.592	1	-6
648.931	1	4
649.270	1	14
649.610	1	16
649.949	1	-1
650.288	1	0
650.627	1	6
650.966	1	-4
651.305	1	-1
651.644	1	-3
651.983	1	2
652.322	1	-2
652.661	1	0
653.000	1	-4
653.339	1	4
653.678	1	0
654.017	1	2
654.356	1	-1
654.695	1	1
655.034	1	-3
655.373	1	-3
655.712	1	-5
656.051	1	8
656.390	1	-3
656.729	1	8
657.068	1	-1
657.406	1	0
657.745	1	-4
658.084	1	8
658.423	1	1
658.762	1	-12
659.101	1	-3
659.440	1	4
659.779	1	1
660.118	1	-2
660.457	1	-4
660.796	1	-8
661.135	1	0
661.474	1	-1
661.813	1	5
662.152	1	-5
662.491	1	-6
662.829	1	-6
663.168	1	-5
663.507	1	-1
663.846	1	8
664.185	1	-2
664.524	1	-8
664.863	1	2
665.202	1	-10
665.541	1	-4
665.879	1	0
666.218	1	-7
666.557	1	1
666.896	1	-13
667.235	1	-2
667.574	1	4
667.913	1	3
668.251	1	-5
668.590	1	-10
668.929	1	5
669.268	1	-1
669.607	1	-4
669.946	1	8
670.285	1	3
670.623	1	8
670.962	1	2
671.301	1	-6
671.640	1	-26
671.979	1	5
672.317	1	2
672.656	1	1
672.995	1	-1
673.334	1	3
673.673	1	6
674.011	1	7
674.350	1	-4
674.689	1	-10
675.028	1	-3
675.367	1	1
675.705	1	-5
676.044	1	-3
676.383	1	-3
676.722	1	4
677.060	1	-2
677.399	1	-6
677.738	1	-7
678.077	1	9
678.416	1	-1
678.754	1	2
679.093	1	-4
679.432	1	-9
679.771	1	-5
680.109	1	3
680.448	1	-4
680.787	1	-3
681.125	1	0
681.464	1	0
681.803	1	-5
682.142	1	10
682.480	1	-1
682.819	1	8
683.158	1	4
683.496	1	-15
683.835	1	1
684.174	1	1
684.512	1	2
684.851	1	-1
685.190	1	14
685.529	1	0
685.867	1	2
686.206	1	-2
686.545	1	1
686.883	1	-4
687.222	1	-1
687.561	1	-4
687.899	1	0
688.238	1	-6
688.577	1	-9
688.746	1	3