File: Analysis/GaN_68K_200ms/GaN_sample E_spot4_UVVIS_68 K_200um_200 ms 2x2mm1_350.txt
340.368	1	0
340.710	1	-4
341.052	1	7
341.394	1	-4
341.737	1	12
342.079	1	-3
342.421	1	0
342.763	1	4
343.105	1	8
343.447	1	1
343.789	1	12
344.131	1	-1
344.473	1	-9
344.815	1	2
345.157	1	12
345.499	1	5
345.841	1	7
346.183	1	5
346.526	1	9
346.868	1	-2
347.210	1	-1
347.552	1	-5
347.894	1	-2
348.236	1	5
348.578	1	2
348.920	1	5
349.262	1	2
349.604	1	13
349.946	1	10
350.288	1	1
350.630	1	-10
350.972	1	-4
351.314	1	-3
351.656	1	1
351.998	1	-2
352.340	1	-1
352.682	1	-4
353.024	1	-7
353.366	1	5
353.708	1	0
354.050	1	9
354.392	1	9
354.734	1	8
355.076	1	10
355.418	1	4
355.760	1	9
356.102	1	2
356.444	1	-4
356.785	1	11
357.127	1	3
357.469	1	-9
357.811	1	18
358.153	1	3
358.495	1	11
358.837	1	3
359.179	1	-1
359.521	1	-4
359.863	1	-8
360.205	1	1
360.547	1	4
360.889	1	11
361.231	1	1
361.572	1	5
361.914	1	-6
362.256	1	11
362.598	1	-1
362.940	1	3
363.282	1	3
363.624	1	-8
363.966	1	6
364.308	1	-3
364.649	1	-1
364.991	1	13
365.333	1	14
365.675	1	7
366.017	1	12
366.359	1	-3
366.701	1	-6
367.042	1	11
367.384	1	11
367.726	1	16
368.068	1	-1
368.410	1	-7
368.752	1	-4
369.093	1	4
369.435	1	5
369.777	1	3
370.119	1	0
370.461	1	6
370.803	1	4
371.144	1	15
371.486	1	13
371.828	1	0
372.170	1	13
372.512	1	-4
372.853	1	3
373.195	1	-5
373.537	1	1
373.879	1	4
374.220	1	6
374.562	1	6
374.904	1	1
375.246	1	4
375.588	1	12
375.929	1	3
376.271	1	-8
376.613	1	0
376.955	1	-2
377.296	1	7
377.638	1	-3
377.980	1	5
378.321	1	1
378.663	1	1
379.005	1	10
379.347	1	3
379.688	1	7
380.030	1	-7
380.372	1	6
380.714	1	7
381.055	1	0
381.397	1	-1
381.739	1	9
382.080	1	-5
382.422	1	11
382.764	1	8
383.105	1	-8
383.447	1	13
383.789	1	5
384.130	1	3
384.472	1	1
384.814	1	8
385.156	1	13
385.497	1	10
385.839	1	14
386.180	1	10
386.522	1	15
386.864	1	5
387.205	1	5
387.547	1	7
387.889	1	18
388.230	1	4
388.572	1	5
388.914	1	12
389.255	1	7
389.597	1	5
389.939	1	6
390.280	1	14
390.622	1	0
390.963	1	10
391.305	1	21
391.647	1	8
391.988	1	-8
392.330	1	14
392.671	1	5
393.013	1	19
393.355	1	12
393.696	1	2
394.038	1	-3
394.379	1	-1
394.721	1	15
395.062	1	-2
395.404	1	7
395.746	1	-2
396.087	1	5
396.429	1	17
396.770	1	8
397.112	1	3
397.453	1	2
397.795	1	15
398.136	1	7
398.478	1	0
398.819	1	9
399.161	1	7
399.503	1	8
399.844	1	6
400.186	1	18
400.527	1	8
400.869	1	10
401.210	1	2
401.552	1	17
401.893	1	-6
402.235	1	15
402.576	1	9
402.918	1	6
403.259	1	-4
403.601	1	-8
403.942	1	10
404.284	1	7
404.625	1	14
404.967	1	7
405.308	1	11
405.649	1	2
405.991	1	10
406.332	1	1
406.674	1	8
407.015	1	-1
407.357	1	6
407.698	1	3
408.040	1	-5
408.381	1	-1
408.722	1	6
409.064	1	5
409.405	1	5
409.747	1	-7
410.088	1	9
410.430	1	8
410.771	1	10
411.112	1	12
411.454	1	8
411.795	1	4
412.137	1	14
412.478	1	9
412.819	1	6
413.161	1	-1
413.502	1	-3
413.844	1	0
414.185	1	9
414.526	1	5
414.868	1	19
415.209	1	8
415.550	1	-4
415.892	1	4
416.233	1	5
416.575	1	-2
416.916	1	1
417.257	1	0
417.599	1	12
417.940	1	-4
418.281	1	6
418.623	1	7
418.964	1	5
419.305	1	-2
419.647	1	10
419.988	1	2
420.329	1	6
420.671	1	7
421.012	1	6
421.353	1	10
421.695	1	5
422.036	1	-2
422.377	1	-5
422.718	1	7
423.060	1	9
423.401	1	6
423.742	1	4
424.084	1	4
424.425	1	1
424.766	1	5
425.107	1	0
425.449	1	12
425.790	1	-3
426.131	1	7
426.472	1	4
426.814	1	10
427.155	1	-2
427.496	1	10
427.837	1	2
428.179	1	-6
428.520	1	7
428.861	1	-4
429.202	1	7
429.544	1	6
429.885	1	8
430.226	1	5
430.567	1	17
430.909	1	-3
431.250	1	-9
431.591	1	3
431.932	1	11
432.273	1	-4
432.615	1	13
432.956	1	-1
433.297	1	14
433.638	1	-9
433.979	1	4
434.320	1	6
434.662	1	8
435.003	1	3
435.344	1	2
435.685	1	13
436.026	1	-2
436.368	1	-3
436.709	1	-13
437.050	1	7
437.391	1	1
437.732	1	13
438.073	1	2
438.414	1	2
438.756	1	1
439.097	1	7
439.438	1	11
439.779	1	-2
440.120	1	1
440.461	1	-4
440.802	1	8
441.143	1	10
441.485	1	1
441.826	1	-8
442.167	1	-2
442.508	1	-5
442.849	1	13
443.190	1	-8
443.531	1	0
443.872	1	4
444.213	1	-9
444.554	1	3
444.895	1	-1
445.237	1	-2
445.578	1	15
445.919	1	-3
446.260	1	-4
446.601	1	-2
446.942	1	5
447.283	1	1
447.624	1	13
447.965	1	-3
448.306	1	-5
448.647	1	16
448.988	1	-5
449.329	1	8
449.670	1	8
450.011	1	2
450.352	1	6
450.693	1	6
451.034	1	3
451.375	1	15
451.716	1	10
452.057	1	3
452.398	1	13
452.739	1	0
453.080	1	0
453.421	1	3
453.762	1	4
454.103	1	5
454.444	1	13
454.785	1	5
455.126	1	7
455.467	1	5
455.808	1	-3
456.149	1	-2
456.490	1	-2
456.831	1	4
457.172	1	0
457.513	1	8
457.854	1	3
458.195	1	-6
458.536	1	5
458.877	1	0
459.218	1	4
459.559	1	5
459.899	1	9
460.240	1	0
460.581	1	9
460.922	1	3
461.263	1	11
461.604	1	-2
461.945	1	-2
462.286	1	14
462.627	1	5
462.968	1	-2
463.309	1	5
463.649	1	6
463.990	1	3
464.331	1	0
464.672	1	3
465.013	1	-1
465.354	1	3
465.695	1	16
466.036	1	1
466.376	1	-3
466.717	1	-10
467.058	1	5
467.399	1	-1
467.740	1	-8
468.081	1	7
468.422	1	0
468.762	1	-5
469.103	1	-3
469.444	1	-4
469.785	1	-4
470.126	1	7
470.467	1	2
470.807	1	-1
471.148	1	3
471.489	1	0
471.830	1	15
472.171	1	1
472.511	1	13
472.852	1	-5
473.193	1	-4
473.534	1	-2
473.875	1	5
474.215	1	-3
474.556	1	5
474.897	1	0
475.238	1	0
475.578	1	-8
475.919	1	2
476.260	1	1
476.601	1	4
476.942	1	-2
477.282	1	-9
477.623	1	12
477.964	1	10
478.305	1	-3
478.645	1	-7
478.986	1	0
479.327	1	-2
479.667	1	-1
480.008	1	11
480.349	1	-2
480.690	1	4
481.030	1	-1
481.371	1	4
481.712	1	2
482.053	1	2
482.393	1	-4
482.734	1	8
483.075	1	1
483.415	1	8
483.756	1	6
484.097	1	-1
484.437	1	-2
484.778	1	10
485.119	1	5
485.459	1	8
485.800	1	3
486.141	1	-2
486.481	1	2
486.822	1	3
487.163	1	0
487.503	1	-8
487.844	1	10
488.185	1	-5
488.525	1	-1
488.866	1	8
489.207	1	6
489.547	1	-1
489.888	1	0
490.228	1	-7
490.569	1	11
490.910	1	-8
491.250	1	0
491.591	1	0
491.932	1	6
492.272	1	6
492.613	1	3
492.953	1	5
493.294	1	0
493.635	1	4
493.975	1	1
494.316	1	8
494.656	1	1
494.997	1	3
495.337	1	2
495.678	1	5
496.019	1	-5
496.359	1	-3
496.700	1	-5
497.040	1	-8
497.381	1	-14
497.721	1	-1
498.062	1	3
498.403	1	7
498.743	1	-1
499.084	1	-2
499.424	1	9
499.765	1	1
500.105	1	15
500.446	1	-1
500.786	1	1
501.127	1	11
501.467	1	1
501.808	1	-4
502.148	1	7
502.489	1	-6
502.829	1	1
503.170	1	8
503.510	1	9
503.851	1	-15
504.191	1	3
504.532	1	-3
504.872	1	-2
505.213	1	-1
505.553	1	5
505.894	1	7
506.234	1	6
506.575	1	1
506.915	1	3
507.256	1	0
507.596	1	7
507.936	1	8
508.277	1	2
508.617	1	7
508.958	1	8
509.298	1	18
509.639	1	16
509.979	1	-4
510.319	1	-2
510.660	1	12
511.000	1	5
511.341	1	-10
511.681	1	3
512.022	1	-2
512.362	1	5
512.702	1	-5
513.043	1	3
513.383	1	-2
513.724	1	12
514.064	1	1
514.404	1	5
514.745	1	5
515.085	1	0
515.425	1	-1
515.766	1	2
516.106	1	-5
516.447	1	0
516.787	1	-2
517.127	1	7
517.468	1	-4
517.808	1	11
518.148	1	2
518.489	1	1
518.829	1	-3
519.169	1	15
519.510	1	0
519.850	1	0
520.190	1	10
520.531	1	4
520.871	1	3
521.211	1	3
521.552	1	8
521.892	1	-11
522.232	1	-10
522.573	1	-4
522.913	1	9
523.253	1	4
523.593	1	-5
523.934	1	9
524.274	1	-1
524.614	1	6
524.955	1	4
525.295	1	-8
525.635	1	22
525.975	1	-1
526.316	1	-4
526.656	1	13
526.996	1	14
527.337	1	5
527.677	1	15
528.017	1	-2
528.357	1	4
528.698	1	4
529.038	1	2
529.378	1	4
529.718	1	3
530.058	1	-5
530.399	1	20
530.739	1	-1
531.079	1	10
531.419	1	8
531.760	1	3
532.100	1	11
532.440	1	-9
532.780	1	7
533.120	1	-1
533.461	1	18
533.801	1	-4
534.141	1	20
534.481	1	1
534.821	1	13
535.162	1	2
535.502	1	5
535.842	1	0
536.182	1	15
536.522	1	4
536.862	1	6
537.203	1	8
537.543	1	1
537.883	1	7
538.223	1	9
538.563	1	-1
538.903	1	0
539.243	1	10
539.584	1	5
539.924	1	4
540.264	1	9
540.604	1	4
540.944	1	2
541.284	1	-1
541.624	1	3
541.964	1	0
542.305	1	-2
542.645	1	2
542.985	1	0
543.325	1	1
543.665	1	9
544.005	1	5
544.345	1	-2
544.685	1	3
545.025	1	7
545.365	1	11
545.705	1	9
546.045	1	8
546.386	1	5
546.726	1	1
547.066	1	2
547.406	1	9
547.746	1	14
548.086	1	11
548.426	1	-6
548.766	1	4
549.106	1	3
549.446	1	1
549.786	1	8
550.126	1	-3
550.466	1	4
550.806	1	5
551.146	1	-1
551.486	1	11
551.826	1	12
552.166	1	15
552.506	1	5
552.846	1	9
553.186	1	2
553.526	1	1
553.866	1	4
554.206	1	8
554.546	1	2
554.886	1	-1
555.226	1	1
555.566	1	16
555.906	1	-2
556.246	1	4
556.586	1	11
556.926	1	2
557.266	1	16
557.606	1	5
557.946	1	15
558.286	1	13
558.626	1	4
558.966	1	0
559.306	1	5
559.646	1	4
559.986	1	6
560.325	1	-12
560.665	1	9
561.005	1	4
561.345	1	-5
561.685	1	6
562.025	1	-1
562.365	1	-5
562.705	1	14
563.045	1	6
563.385	1	-7
563.725	1	3
564.064	1	7
564.404	1	3
564.744	1	9
565.084	1	-10
565.424	1	-11
565.764	1	7
566.104	1	8
566.444	1	2
566.783	1	6
567.123	1	15
567.463	1	1
567.803	1	-2
568.143	1	-2
568.483	1	-4
568.823	1	15
569.162	1	10
569.502	1	1
569.842	1	4
570.182	1	7
570.522	1	4
570.862	1	6
571.201	1	8
571.541	1	-8
571.881	1	0
572.221	1	5
572.561	1	-10
572.900	1	13
573.240	1	2
573.580	1	3
573.920	1	-5
574.260	1	-6
574.599	1	7
574.939	1	-3
575.279	1	0
575.619	1	3
575.959	1	-3
576.298	1	-7
576.638	1	-5
576.978	1	9
577.318	1	5
577.657	1	-5
577.997	1	-3
578.337	1	0
578.677	1	6
579.016	1	13
579.356	1	-10
579.696	1	14
580.036	1	-2
580.375	1	3
580.715	1	12
581.055	1	2
581.394	1	-4
581.734	1	6
582.074	1	-10
582.414	1	7
582.753	1	12
583.093	1	-6
583.433	1	-9
583.772	1	1
584.112	1	1
584.452	1	3
584.791	1	-7
585.131	1	4
585.471	1	-6
585.811	1	-7
586.150	1	0
586.490	1	7
586.830	1	-3
587.169	1	7
587.509	1	7
587.849	1	7
588.188	1	8
588.528	1	6
588.867	1	6
589.207	1	-11
589.547	1	-1
589.886	1	-4
590.226	1	0
590.566	1	1
590.905	1	6
591.245	1	-3
591.585	1	-1
591.924	1	-1
592.264	1	-3
592.603	1	-4
592.943	1	-1
593.283	1	4
593.622	1	-1
593.962	1	12
594.301	1	9
594.641	1	7
594.981	1	6
595.320	1	1
595.660	1	7
595.999	1	7
596.339	1	3
596.678	1	-9
597.018	1	3
597.358	1	-2
597.697	1	-4
598.037	1	8
598.376	1	12
598.716	1	-7
599.055	1	1
599.395	1	8
599.734	1	3
600.074	1	-5
600.413	1	0
600.753	1	1
601.092	1	-10
601.432	1	-2
601.771	1	11
602.111	1	0
602.451	1	2
602.790	1	3
603.130	1	11
603.469	1	-2
603.809	1	6
604.148	1	7
604.487	1	10
604.827	1	-6
605.166	1	5
605.506	1	-3
605.845	1	7
606.185	1	0
606.524	1	-1
606.864	1	1
607.203	1	12
607.543	1	-7
607.882	1	-4
608.222	1	2
608.561	1	1
608.901	1	2
609.240	1	0
609.579	1	7
609.919	1	-10
610.258	1	7
610.598	1	-5
610.937	1	-6
611.277	1	12
611.616	1	-5
611.955	1	6
612.295	1	7
612.634	1	-1
612.974	1	10
613.313	1	0
613.652	1	0
613.992	1	8
614.331	1	11
614.671	1	-3
615.010	1	9
615.349	1	4
615.689	1	6
616.028	1	-2
616.368	1	7
616.707	1	4
617.046	1	5
617.386	1	-8
617.725	1	1
618.064	1	5
618.404	1	12
618.743	1	3
619.082	1	9
619.422	1	-5
619.761	1	3
620.100	1	1
620.440	1	3
620.779	1	7
621.118	1	4
621.458	1	12
621.797	1	5
622.136	1	1
622.476	1	-2
622.815	1	1
623.154	1	12
623.494	1	7
623.833	1	5
624.172	1	16
624.511	1	4
624.851	1	-2
625.190	1	3
625.529	1	2
625.869	1	6
626.208	1	0
626.547	1	1
626.886	1	-4
627.226	1	5
627.565	1	1
627.904	1	-1
628.243	1	3
628.583	1	-4
628.922	1	3
629.261	1	8
629.600	1	-4
629.940	1	9
630.279	1	-7
630.618	1	13
630.957	1	-6
631.297	1	11
631.636	1	-2
631.975	1	11
632.314	1	14
632.653	1	-7
632.993	1	8
633.332	1	6
633.671	1	4
634.010	1	2
634.349	1	7
634.689	1	10
635.028	1	-4
635.367	1	0
635.706	1	-10
636.045	1	1
636.384	1	5
636.724	1	11
637.063	1	8
637.402	1	6
637.741	1	14
638.080	1	4
638.419	1	8
638.759	1	-3
639.098	1	-3
639.437	1	-6
639.776	1	7
640.115	1	1
640.454	1	11
640.793	1	10
641.132	1	13
641.472	1	-8
641.811	1	5
642.150	1	0
642.489	1	-2
642.828	1	4
643.167	1	9
643.506	1	-8
643.845	1	2
644.184	1	8
644.524	1	1
644.863	1	-2
645.202	1	-5
645.541	1	-6
645.880	1	5
646.219	1	3
646.558	1	-1
646.897	1	-2
647.236	1	8
647.575	1	7
647.914	1	-5
648.253	1	-1
648.592	1	2
648.931	1	3
649.270	1	10
649.610	1	11
649.949	1	-4
650.288	1	5
650.627	1	-5
650.966	1	-8
651.305	1	-3
651.644	1	-8
651.983	1	-1
652.322	1	10
652.661	1	5
653.000	1	-3
653.339	1	6
653.678	1	-2
654.017	1	3
654.356	1	2
654.695	1	4
655.034	1	-6
655.373	1	2
655.712	1	-6
656.051	1	3
656.390	1	2
656.729	1	4
657.068	1	-3
657.406	1	8
657.745	1	-9
658.084	1	9
658.423	1	0
658.762	1	-8
659.101	1	5
659.440	1	13
659.779	1	-1
660.118	1	14
660.457	1	-5
660.796	1	-9
661.135	1	9
661.474	1	3
661.813	1	2
662.152	1	0
662.491	1	-1
662.829	1	-1
663.168	1	5
663.507	1	6
663.846	1	6
664.185	1	-2
664.524	1	-8
664.863	1	7
665.202	1	-8
665.541	1	-2
665.879	1	-4
666.218	1	-4
666.557	1	4
666.896	1	6
667.235	1	7
667.574	1	3
667.913	1	2
668.251	1	8
668.590	1	2
668.929	1	2
669.268	1	-2
669.607	1	-11
669.946	1	7
670.285	1	6
670.623	1	5
670.962	1	6
671.301	1	-5
671.640	1	-15
671.979	1	15
672.317	1	-9
672.656	1	-3
672.995	1	-1
673.334	1	10
673.673	1	10
674.011	1	7
674.350	1	-6
674.689	1	-4
675.028	1	6
675.367	1	4
675.705	1	-10
676.044	1	-8
676.383	1	0
676.722	1	0
677.060	1	9
677.399	1	2
677.738	1	-4
678.077	1	0
678.416	1	7
678.754	1	2
679.093	1	-5
679.432	1	-1
679.771	1	-5
680.109	1	14
680.448	1	7
680.787	1	-1
681.125	1	4
681.464	1	0
681.803	1	-10
682.142	1	13
682.480	1	0
682.819	1	0
683.158	1	5
683.496	1	-3
683.835	1	2
684.174	1	1
684.512	1	3
684.851	1	-8
685.190	1	2
685.529	1	9
685.867	1	4
686.206	1	4
686.545	1	14
686.883	1	-9
687.222	1	2
687.561	1	7
687.899	1	0
688.238	1	6
688.577	1	-7
688.746	1	2