File: Analysis/GaN_68K_200ms/GaN_sample E_spot4_UVVIS_68 K_200um_200 ms 2x2mm1_240.txt
340.368	1	1
340.710	1	-5
341.052	1	8
341.394	1	-1
341.737	1	7
342.079	1	1
342.421	1	-1
342.763	1	4
343.105	1	13
343.447	1	11
343.789	1	2
344.131	1	-2
344.473	1	6
344.815	1	-3
345.157	1	10
345.499	1	13
345.841	1	9
346.183	1	6
346.526	1	8
346.868	1	9
347.210	1	-1
347.552	1	-2
347.894	1	3
348.236	1	9
348.578	1	13
348.920	1	7
349.262	1	0
349.604	1	17
349.946	1	13
350.288	1	9
350.630	1	-4
350.972	1	9
351.314	1	6
351.656	1	3
351.998	1	-2
352.340	1	5
352.682	1	2
353.024	1	-2
353.366	1	-1
353.708	1	6
354.050	1	3
354.392	1	8
354.734	1	-3
355.076	1	-1
355.418	1	3
355.760	1	14
356.102	1	-1
356.444	1	9
356.785	1	13
357.127	1	3
357.469	1	1
357.811	1	23
358.153	1	10
358.495	1	11
358.837	1	1
359.179	1	8
359.521	1	13
359.863	1	3
360.205	1	3
360.547	1	4
360.889	1	14
361.231	1	14
361.572	1	6
361.914	1	8
362.256	1	13
362.598	1	4
362.940	1	9
363.282	1	4
363.624	1	4
363.966	1	12
364.308	1	7
364.649	1	6
364.991	1	18
365.333	1	17
365.675	1	7
366.017	1	13
366.359	1	16
366.701	1	8
367.042	1	22
367.384	1	20
367.726	1	25
368.068	1	5
368.410	1	5
368.752	1	6
369.093	1	14
369.435	1	13
369.777	1	6
370.119	1	17
370.461	1	8
370.803	1	9
371.144	1	14
371.486	1	18
371.828	1	6
372.170	1	14
372.512	1	8
372.853	1	12
373.195	1	5
373.537	1	7
373.879	1	19
374.220	1	10
374.562	1	12
374.904	1	8
375.246	1	8
375.588	1	10
375.929	1	14
376.271	1	3
376.613	1	3
376.955	1	0
377.296	1	8
377.638	1	3
377.980	1	12
378.321	1	7
378.663	1	-6
379.005	1	8
379.347	1	10
379.688	1	8
380.030	1	0
380.372	1	8
380.714	1	12
381.055	1	6
381.397	1	8
381.739	1	17
382.080	1	-5
382.422	1	13
382.764	1	8
383.105	1	4
383.447	1	9
383.789	1	14
384.130	1	7
384.472	1	2
384.814	1	14
385.156	1	24
385.497	1	25
385.839	1	21
386.180	1	15
386.522	1	15
386.864	1	3
387.205	1	14
387.547	1	16
387.889	1	20
388.230	1	12
388.572	1	17
388.914	1	23
389.255	1	19
389.597	1	13
389.939	1	17
390.280	1	23
390.622	1	7
390.963	1	25
391.305	1	19
391.647	1	9
391.988	1	7
392.330	1	13
392.671	1	17
393.013	1	20
393.355	1	15
393.696	1	10
394.038	1	4
394.379	1	7
394.721	1	11
395.062	1	3
395.404	1	18
395.746	1	3
396.087	1	14
396.429	1	19
396.770	1	14
397.112	1	13
397.453	1	6
397.795	1	16
398.136	1	21
398.478	1	17
398.819	1	23
399.161	1	12
399.503	1	16
399.844	1	4
400.186	1	20
400.527	1	12
400.869	1	21
401.210	1	4
401.552	1	16
401.893	1	0
402.235	1	12
402.576	1	24
402.918	1	6
403.259	1	5
403.601	1	0
403.942	1	14
404.284	1	14
404.625	1	15
404.967	1	8
405.308	1	9
405.649	1	15
405.991	1	16
406.332	1	11
406.674	1	14
407.015	1	-2
407.357	1	13
407.698	1	10
408.040	1	3
408.381	1	1
408.722	1	10
409.064	1	10
409.405	1	12
409.747	1	5
410.088	1	17
410.430	1	20
410.771	1	15
411.112	1	8
411.454	1	20
411.795	1	10
412.137	1	19
412.478	1	15
412.819	1	4
413.161	1	1
413.502	1	13
413.844	1	7
414.185	1	22
414.526	1	12
414.868	1	5
415.209	1	7
415.550	1	-3
415.892	1	6
416.233	1	2
416.575	1	12
416.916	1	8
417.257	1	14
417.599	1	18
417.940	1	8
418.281	1	8
418.623	1	0
418.964	1	14
419.305	1	3
419.647	1	6
419.988	1	12
420.329	1	11
420.671	1	16
421.012	1	15
421.353	1	9
421.695	1	10
422.036	1	7
422.377	1	8
422.718	1	9
423.060	1	9
423.401	1	10
423.742	1	3
424.084	1	17
424.425	1	-1
424.766	1	8
425.107	1	13
425.449	1	5
425.790	1	7
426.131	1	2
426.472	1	-6
426.814	1	10
427.155	1	3
427.496	1	18
427.837	1	-2
428.179	1	-5
428.520	1	-1
428.861	1	1
429.202	1	15
429.544	1	9
429.885	1	-3
430.226	1	2
430.567	1	13
430.909	1	1
431.250	1	3
431.591	1	15
431.932	1	10
432.273	1	-2
432.615	1	10
432.956	1	-2
433.297	1	15
433.638	1	7
433.979	1	2
434.320	1	-2
434.662	1	2
435.003	1	17
435.344	1	9
435.685	1	7
436.026	1	5
436.368	1	7
436.709	1	0
437.050	1	14
437.391	1	7
437.732	1	6
438.073	1	7
438.414	1	5
438.756	1	8
439.097	1	12
439.438	1	9
439.779	1	0
440.120	1	9
440.461	1	4
440.802	1	-1
441.143	1	12
441.485	1	6
441.826	1	-2
442.167	1	-1
442.508	1	5
442.849	1	11
443.190	1	1
443.531	1	7
443.872	1	-2
444.213	1	4
444.554	1	5
444.895	1	9
445.237	1	-1
445.578	1	13
445.919	1	6
446.260	1	10
446.601	1	-2
446.942	1	7
447.283	1	0
447.624	1	5
447.965	1	-6
448.306	1	11
448.647	1	14
448.988	1	-14
449.329	1	7
449.670	1	7
450.011	1	10
450.352	1	6
450.693	1	8
451.034	1	4
451.375	1	10
451.716	1	17
452.057	1	14
452.398	1	6
452.739	1	-1
453.080	1	17
453.421	1	0
453.762	1	9
454.103	1	5
454.444	1	8
454.785	1	-2
455.126	1	2
455.467	1	0
455.808	1	6
456.149	1	-1
456.490	1	11
456.831	1	15
457.172	1	4
457.513	1	12
457.854	1	-8
458.195	1	2
458.536	1	1
458.877	1	-2
459.218	1	9
459.559	1	3
459.899	1	14
460.240	1	4
460.581	1	9
460.922	1	2
461.263	1	14
461.604	1	5
461.945	1	12
462.286	1	13
462.627	1	3
462.968	1	1
463.309	1	12
463.649	1	5
463.990	1	9
464.331	1	-4
464.672	1	0
465.013	1	-2
465.354	1	11
465.695	1	17
466.036	1	7
466.376	1	1
466.717	1	1
467.058	1	10
467.399	1	4
467.740	1	0
468.081	1	6
468.422	1	6
468.762	1	-8
469.103	1	2
469.444	1	-2
469.785	1	5
470.126	1	12
470.467	1	6
470.807	1	7
471.148	1	-5
471.489	1	5
471.830	1	16
472.171	1	3
472.511	1	12
472.852	1	-2
473.193	1	-12
473.534	1	-8
473.875	1	5
474.215	1	-1
474.556	1	1
474.897	1	6
475.238	1	4
475.578	1	1
475.919	1	-2
476.260	1	4
476.601	1	5
476.942	1	2
477.282	1	-4
477.623	1	6
477.964	1	8
478.305	1	0
478.645	1	1
478.986	1	-1
479.327	1	-6
479.667	1	1
480.008	1	16
480.349	1	8
480.690	1	6
481.030	1	-1
481.371	1	6
481.712	1	7
482.053	1	5
482.393	1	1
482.734	1	9
483.075	1	8
483.415	1	5
483.756	1	13
484.097	1	-3
484.437	1	-4
484.778	1	8
485.119	1	12
485.459	1	6
485.800	1	-1
486.141	1	-4
486.481	1	7
486.822	1	2
487.163	1	3
487.503	1	-3
487.844	1	10
488.185	1	-3
488.525	1	0
488.866	1	7
489.207	1	8
489.547	1	6
489.888	1	6
490.228	1	2
490.569	1	15
490.910	1	-4
491.250	1	1
491.591	1	-6
491.932	1	13
492.272	1	16
492.613	1	5
492.953	1	4
493.294	1	11
493.635	1	2
493.975	1	-4
494.316	1	14
494.656	1	8
494.997	1	9
495.337	1	13
495.678	1	17
496.019	1	3
496.359	1	11
496.700	1	3
497.040	1	3
497.381	1	-21
497.721	1	1
498.062	1	2
498.403	1	8
498.743	1	7
499.084	1	-6
499.424	1	15
499.765	1	8
500.105	1	8
500.446	1	3
500.786	1	8
501.127	1	9
501.467	1	12
501.808	1	-4
502.148	1	19
502.489	1	5
502.829	1	18
503.170	1	4
503.510	1	9
503.851	1	-11
504.191	1	1
504.532	1	3
504.872	1	7
505.213	1	8
505.553	1	6
505.894	1	11
506.234	1	6
506.575	1	9
506.915	1	3
507.256	1	-4
507.596	1	11
507.936	1	12
508.277	1	5
508.617	1	19
508.958	1	13
509.298	1	18
509.639	1	14
509.979	1	6
510.319	1	3
510.660	1	18
511.000	1	20
511.341	1	-4
511.681	1	-1
512.022	1	0
512.362	1	6
512.702	1	8
513.043	1	16
513.383	1	6
513.724	1	14
514.064	1	16
514.404	1	10
514.745	1	4
515.085	1	8
515.425	1	5
515.766	1	17
516.106	1	11
516.447	1	17
516.787	1	4
517.127	1	8
517.468	1	6
517.808	1	3
518.148	1	7
518.489	1	13
518.829	1	4
519.169	1	16
519.510	1	3
519.850	1	11
520.190	1	12
520.531	1	12
520.871	1	2
521.211	1	9
521.552	1	13
521.892	1	3
522.232	1	-2
522.573	1	11
522.913	1	7
523.253	1	9
523.593	1	3
523.934	1	9
524.274	1	3
524.614	1	11
524.955	1	7
525.295	1	5
525.635	1	25
525.975	1	4
526.316	1	-2
526.656	1	21
526.996	1	18
527.337	1	2
527.677	1	24
528.017	1	5
528.357	1	22
528.698	1	4
529.038	1	10
529.378	1	13
529.718	1	9
530.058	1	4
530.399	1	9
530.739	1	6
531.079	1	17
531.419	1	17
531.760	1	17
532.100	1	12
532.440	1	3
532.780	1	10
533.120	1	4
533.461	1	24
533.801	1	8
534.141	1	16
534.481	1	12
534.821	1	13
535.162	1	8
535.502	1	11
535.842	1	19
536.182	1	5
536.522	1	13
536.862	1	15
537.203	1	19
537.543	1	9
537.883	1	14
538.223	1	15
538.563	1	6
538.903	1	8
539.243	1	16
539.584	1	13
539.924	1	8
540.264	1	5
540.604	1	16
540.944	1	5
541.284	1	12
541.624	1	5
541.964	1	14
542.305	1	5
542.645	1	9
542.985	1	5
543.325	1	6
543.665	1	8
544.005	1	1
544.345	1	-1
544.685	1	13
545.025	1	6
545.365	1	13
545.705	1	6
546.045	1	12
546.386	1	9
546.726	1	12
547.066	1	1
547.406	1	13
547.746	1	10
548.086	1	10
548.426	1	6
548.766	1	14
549.106	1	18
549.446	1	11
549.786	1	10
550.126	1	0
550.466	1	3
550.806	1	12
551.146	1	7
551.486	1	11
551.826	1	16
552.166	1	7
552.506	1	4
552.846	1	14
553.186	1	8
553.526	1	0
553.866	1	3
554.206	1	11
554.546	1	-2
554.886	1	16
555.226	1	-3
555.566	1	13
555.906	1	4
556.246	1	5
556.586	1	20
556.926	1	8
557.266	1	15
557.606	1	-4
557.946	1	14
558.286	1	8
558.626	1	13
558.966	1	15
559.306	1	-8
559.646	1	4
559.986	1	4
560.325	1	-6
560.665	1	13
561.005	1	4
561.345	1	13
561.685	1	7
562.025	1	-8
562.365	1	8
562.705	1	19
563.045	1	9
563.385	1	2
563.725	1	6
564.064	1	13
564.404	1	1
564.744	1	8
565.084	1	1
565.424	1	9
565.764	1	15
566.104	1	11
566.444	1	12
566.783	1	9
567.123	1	18
567.463	1	11
567.803	1	4
568.143	1	2
568.483	1	3
568.823	1	16
569.162	1	7
569.502	1	2
569.842	1	-1
570.182	1	5
570.522	1	8
570.862	1	5
571.201	1	11
571.541	1	-11
571.881	1	11
572.221	1	-2
572.561	1	4
572.900	1	17
573.240	1	2
573.580	1	3
573.920	1	12
574.260	1	3
574.599	1	1
574.939	1	7
575.279	1	6
575.619	1	15
575.959	1	4
576.298	1	0
576.638	1	5
576.978	1	7
577.318	1	10
577.657	1	-7
577.997	1	-4
578.337	1	4
578.677	1	2
579.016	1	11
579.356	1	1
579.696	1	6
580.036	1	-5
580.375	1	6
580.715	1	21
581.055	1	-2
581.394	1	6
581.734	1	14
582.074	1	-3
582.414	1	8
582.753	1	15
583.093	1	2
583.433	1	3
583.772	1	7
584.112	1	4
584.452	1	3
584.791	1	10
585.131	1	-6
585.471	1	9
585.811	1	4
586.150	1	6
586.490	1	-1
586.830	1	7
587.169	1	9
587.509	1	11
587.849	1	13
588.188	1	2
588.528	1	14
588.867	1	8
589.207	1	-9
589.547	1	-5
589.886	1	6
590.226	1	9
590.566	1	1
590.905	1	9
591.245	1	-9
591.585	1	8
591.924	1	1
592.264	1	-2
592.603	1	3
592.943	1	6
593.283	1	6
593.622	1	4
593.962	1	9
594.301	1	9
594.641	1	-2
594.981	1	1
595.320	1	12
595.660	1	0
595.999	1	11
596.339	1	11
596.678	1	6
597.018	1	4
597.358	1	10
597.697	1	-5
598.037	1	3
598.376	1	13
598.716	1	-6
599.055	1	3
599.395	1	12
599.734	1	-1
600.074	1	4
600.413	1	0
600.753	1	11
601.092	1	-5
601.432	1	1
601.771	1	11
602.111	1	-9
602.451	1	10
602.790	1	0
603.130	1	0
603.469	1	7
603.809	1	9
604.148	1	10
604.487	1	4
604.827	1	-13
605.166	1	1
605.506	1	9
605.845	1	3
606.185	1	5
606.524	1	6
606.864	1	7
607.203	1	7
607.543	1	-3
607.882	1	3
608.222	1	15
608.561	1	11
608.901	1	5
609.240	1	4
609.579	1	13
609.919	1	-4
610.258	1	5
610.598	1	4
610.937	1	9
611.277	1	4
611.616	1	-5
611.955	1	4
612.295	1	1
612.634	1	-1
612.974	1	10
613.313	1	6
613.652	1	-2
613.992	1	3
614.331	1	1
614.671	1	11
615.010	1	1
615.349	1	7
615.689	1	1
616.028	1	10
616.368	1	-3
616.707	1	-4
617.046	1	8
617.386	1	3
617.725	1	15
618.064	1	13
618.404	1	3
618.743	1	3
619.082	1	6
619.422	1	1
619.761	1	4
620.100	1	0
620.440	1	1
620.779	1	-1
621.118	1	-8
621.458	1	6
621.797	1	3
622.136	1	8
622.476	1	6
622.815	1	3
623.154	1	7
623.494	1	4
623.833	1	9
624.172	1	14
624.511	1	-2
624.851	1	0
625.190	1	3
625.529	1	6
625.869	1	-1
626.208	1	-3
626.547	1	3
626.886	1	-6
627.226	1	6
627.565	1	9
627.904	1	10
628.243	1	-6
628.583	1	8
628.922	1	3
629.261	1	0
629.600	1	2
629.940	1	11
630.279	1	-11
630.618	1	12
630.957	1	-5
631.297	1	-6
631.636	1	3
631.975	1	-5
632.314	1	12
632.653	1	2
632.993	1	14
633.332	1	10
633.671	1	3
634.010	1	-1
634.349	1	-2
634.689	1	5
635.028	1	3
635.367	1	2
635.706	1	-5
636.045	1	-7
636.384	1	4
636.724	1	3
637.063	1	8
637.402	1	11
637.741	1	9
638.080	1	17
638.419	1	6
638.759	1	11
639.098	1	2
639.437	1	1
639.776	1	13
640.115	1	9
640.454	1	1
640.793	1	6
641.132	1	10
641.472	1	-6
641.811	1	6
642.150	1	0
642.489	1	5
642.828	1	3
643.167	1	8
643.506	1	-5
643.845	1	2
644.184	1	11
644.524	1	7
644.863	1	0
645.202	1	1
645.541	1	-14
645.880	1	3
646.219	1	6
646.558	1	1
646.897	1	2
647.236	1	11
647.575	1	10
647.914	1	-5
648.253	1	7
648.592	1	-2
648.931	1	11
649.270	1	12
649.610	1	13
649.949	1	10
650.288	1	0
650.627	1	7
650.966	1	-1
651.305	1	0
651.644	1	0
651.983	1	2
652.322	1	9
652.661	1	3
653.000	1	-1
653.339	1	8
653.678	1	-2
654.017	1	13
654.356	1	9
654.695	1	3
655.034	1	-2
655.373	1	7
655.712	1	2
656.051	1	13
656.390	1	-3
656.729	1	9
657.068	1	-5
657.406	1	2
657.745	1	4
658.084	1	13
658.423	1	-6
658.762	1	-4
659.101	1	9
659.440	1	3
659.779	1	-5
660.118	1	7
660.457	1	10
660.796	1	2
661.135	1	9
661.474	1	6
661.813	1	14
662.152	1	7
662.491	1	-3
662.829	1	3
663.168	1	0
663.507	1	-4
663.846	1	12
664.185	1	-3
664.524	1	-9
664.863	1	7
665.202	1	-3
665.541	1	-3
665.879	1	-2
666.218	1	-1
666.557	1	5
666.896	1	-1
667.235	1	5
667.574	1	5
667.913	1	7
668.251	1	-8
668.590	1	-3
668.929	1	5
669.268	1	1
669.607	1	-8
669.946	1	15
670.285	1	1
670.623	1	1
670.962	1	2
671.301	1	-2
671.640	1	-9
671.979	1	14
672.317	1	1
672.656	1	-1
672.995	1	6
673.334	1	12
673.673	1	14
674.011	1	7
674.350	1	-2
674.689	1	-4
675.028	1	8
675.367	1	5
675.705	1	2
676.044	1	5
676.383	1	-1
676.722	1	3
677.060	1	2
677.399	1	-3
677.738	1	-3
678.077	1	7
678.416	1	6
678.754	1	7
679.093	1	1
679.432	1	-3
679.771	1	8
680.109	1	12
680.448	1	2
680.787	1	2
681.125	1	9
681.464	1	-4
681.803	1	-3
682.142	1	12
682.480	1	8
682.819	1	4
683.158	1	2
683.496	1	-4
683.835	1	15
684.174	1	4
684.512	1	-2
684.851	1	8
685.190	1	16
685.529	1	4
685.867	1	3
686.206	1	3
686.545	1	10
686.883	1	7
687.222	1	-7
687.561	1	-3
687.899	1	-4
688.238	1	-5
688.577	1	3
688.746	1	13