File: Analysis/GaN_68K_200ms/GaN_sample E_spot4_UVVIS_68 K_200um_200 ms 2x2mm1_291.txt
340.368	1	5
340.710	1	0
341.052	1	4
341.394	1	-6
341.737	1	6
342.079	1	4
342.421	1	-7
342.763	1	-2
343.105	1	17
343.447	1	14
343.789	1	1
344.131	1	9
344.473	1	3
344.815	1	12
345.157	1	4
345.499	1	7
345.841	1	10
346.183	1	-3
346.526	1	11
346.868	1	-2
347.210	1	-6
347.552	1	2
347.894	1	5
348.236	1	9
348.578	1	-1
348.920	1	3
349.262	1	-5
349.604	1	11
349.946	1	7
350.288	1	-2
350.630	1	-1
350.972	1	1
351.314	1	0
351.656	1	2
351.998	1	-6
352.340	1	4
352.682	1	4
353.024	1	-8
353.366	1	10
353.708	1	8
354.050	1	8
354.392	1	3
354.734	1	9
355.076	1	3
355.418	1	5
355.760	1	1
356.102	1	-3
356.444	1	10
356.785	1	14
357.127	1	12
357.469	1	3
357.811	1	13
358.153	1	4
358.495	1	15
358.837	1	3
359.179	1	4
359.521	1	4
359.863	1	0
360.205	1	-4
360.547	1	5
360.889	1	16
361.231	1	1
361.572	1	0
361.914	1	4
362.256	1	11
362.598	1	9
362.940	1	8
363.282	1	2
363.624	1	15
363.966	1	9
364.308	1	3
364.649	1	9
364.991	1	18
365.333	1	16
365.675	1	9
366.017	1	7
366.359	1	5
366.701	1	6
367.042	1	17
367.384	1	20
367.726	1	16
368.068	1	14
368.410	1	13
368.752	1	5
369.093	1	5
369.435	1	4
369.777	1	0
370.119	1	11
370.461	1	13
370.803	1	-2
371.144	1	9
371.486	1	15
371.828	1	13
372.170	1	17
372.512	1	4
372.853	1	9
373.195	1	3
373.537	1	6
373.879	1	19
374.220	1	5
374.562	1	4
374.904	1	7
375.246	1	-2
375.588	1	10
375.929	1	12
376.271	1	6
376.613	1	1
376.955	1	1
377.296	1	0
377.638	1	2
377.980	1	16
378.321	1	8
378.663	1	0
379.005	1	6
379.347	1	4
379.688	1	-1
380.030	1	-2
380.372	1	12
380.714	1	7
381.055	1	10
381.397	1	4
381.739	1	15
382.080	1	-5
382.422	1	20
382.764	1	4
383.105	1	7
383.447	1	18
383.789	1	13
384.130	1	-2
384.472	1	10
384.814	1	15
385.156	1	16
385.497	1	21
385.839	1	16
386.180	1	11
386.522	1	12
386.864	1	5
387.205	1	10
387.547	1	17
387.889	1	17
388.230	1	14
388.572	1	12
388.914	1	22
389.255	1	17
389.597	1	7
389.939	1	15
390.280	1	17
390.622	1	13
390.963	1	19
391.305	1	26
391.647	1	14
391.988	1	4
392.330	1	18
392.671	1	21
393.013	1	19
393.355	1	27
393.696	1	6
394.038	1	5
394.379	1	0
394.721	1	11
395.062	1	4
395.404	1	6
395.746	1	-6
396.087	1	15
396.429	1	18
396.770	1	11
397.112	1	7
397.453	1	2
397.795	1	20
398.136	1	14
398.478	1	11
398.819	1	21
399.161	1	14
399.503	1	9
399.844	1	13
400.186	1	13
400.527	1	9
400.869	1	19
401.210	1	7
401.552	1	26
401.893	1	13
402.235	1	10
402.576	1	12
402.918	1	3
403.259	1	8
403.601	1	6
403.942	1	13
404.284	1	7
404.625	1	1
404.967	1	9
405.308	1	6
405.649	1	8
405.991	1	15
406.332	1	-1
406.674	1	4
407.015	1	3
407.357	1	19
407.698	1	-3
408.040	1	2
408.381	1	6
408.722	1	5
409.064	1	6
409.405	1	10
409.747	1	9
410.088	1	12
410.430	1	13
410.771	1	8
411.112	1	13
411.454	1	14
411.795	1	14
412.137	1	16
412.478	1	14
412.819	1	9
413.161	1	1
413.502	1	4
413.844	1	12
414.185	1	11
414.526	1	-2
414.868	1	11
415.209	1	8
415.550	1	1
415.892	1	1
416.233	1	7
416.575	1	4
416.916	1	11
417.257	1	7
417.599	1	8
417.940	1	-7
418.281	1	5
418.623	1	2
418.964	1	9
419.305	1	7
419.647	1	9
419.988	1	-2
420.329	1	12
420.671	1	1
421.012	1	16
421.353	1	6
421.695	1	9
422.036	1	7
422.377	1	9
422.718	1	8
423.060	1	-3
423.401	1	5
423.742	1	-1
424.084	1	7
424.425	1	4
424.766	1	14
425.107	1	9
425.449	1	8
425.790	1	9
426.131	1	5
426.472	1	1
426.814	1	7
427.155	1	9
427.496	1	17
427.837	1	-6
428.179	1	2
428.520	1	5
428.861	1	9
429.202	1	9
429.544	1	2
429.885	1	1
430.226	1	3
430.567	1	18
430.909	1	0
431.250	1	-4
431.591	1	15
431.932	1	10
432.273	1	8
432.615	1	5
432.956	1	-6
433.297	1	15
433.638	1	6
433.979	1	4
434.320	1	13
434.662	1	1
435.003	1	6
435.344	1	8
435.685	1	11
436.026	1	8
436.368	1	-11
436.709	1	-3
437.050	1	-2
437.391	1	10
437.732	1	3
438.073	1	8
438.414	1	6
438.756	1	8
439.097	1	17
439.438	1	17
439.779	1	4
440.120	1	2
440.461	1	3
440.802	1	15
441.143	1	9
441.485	1	3
441.826	1	-4
442.167	1	-1
442.508	1	-3
442.849	1	11
443.190	1	-10
443.531	1	10
443.872	1	3
444.213	1	0
444.554	1	-5
444.895	1	2
445.237	1	4
445.578	1	4
445.919	1	1
446.260	1	11
446.601	1	-8
446.942	1	7
447.283	1	-4
447.624	1	13
447.965	1	-1
448.306	1	6
448.647	1	10
448.988	1	-9
449.329	1	-3
449.670	1	8
450.011	1	12
450.352	1	10
450.693	1	5
451.034	1	-2
451.375	1	14
451.716	1	0
452.057	1	11
452.398	1	14
452.739	1	11
453.080	1	13
453.421	1	1
453.762	1	7
454.103	1	8
454.444	1	10
454.785	1	-5
455.126	1	4
455.467	1	0
455.808	1	3
456.149	1	-11
456.490	1	7
456.831	1	3
457.172	1	1
457.513	1	13
457.854	1	4
458.195	1	3
458.536	1	0
458.877	1	-5
459.218	1	6
459.559	1	11
459.899	1	17
460.240	1	6
460.581	1	3
460.922	1	-5
461.263	1	17
461.604	1	4
461.945	1	5
462.286	1	12
462.627	1	-3
462.968	1	-3
463.309	1	6
463.649	1	4
463.990	1	8
464.331	1	17
464.672	1	0
465.013	1	-5
465.354	1	9
465.695	1	11
466.036	1	0
466.376	1	1
466.717	1	-2
467.058	1	12
467.399	1	6
467.740	1	-1
468.081	1	3
468.422	1	-2
468.762	1	-8
469.103	1	-4
469.444	1	-3
469.785	1	3
470.126	1	8
470.467	1	2
470.807	1	0
471.148	1	1
471.489	1	4
471.830	1	19
472.171	1	0
472.511	1	14
472.852	1	5
473.193	1	-2
473.534	1	0
473.875	1	9
474.215	1	-8
474.556	1	-9
474.897	1	3
475.238	1	-8
475.578	1	4
475.919	1	-3
476.260	1	5
476.601	1	-4
476.942	1	-13
477.282	1	1
477.623	1	6
477.964	1	8
478.305	1	0
478.645	1	-1
478.986	1	2
479.327	1	7
479.667	1	0
480.008	1	9
480.349	1	-8
480.690	1	3
481.030	1	5
481.371	1	3
481.712	1	2
482.053	1	15
482.393	1	-6
482.734	1	-4
483.075	1	8
483.415	1	4
483.756	1	8
484.097	1	-6
484.437	1	-6
484.778	1	7
485.119	1	3
485.459	1	9
485.800	1	-3
486.141	1	-2
486.481	1	1
486.822	1	6
487.163	1	-5
487.503	1	-6
487.844	1	-1
488.185	1	0
488.525	1	3
488.866	1	7
489.207	1	10
489.547	1	4
489.888	1	5
490.228	1	-2
490.569	1	1
490.910	1	-3
491.250	1	2
491.591	1	-1
491.932	1	7
492.272	1	15
492.613	1	15
492.953	1	4
493.294	1	3
493.635	1	3
493.975	1	6
494.316	1	7
494.656	1	9
494.997	1	5
495.337	1	7
495.678	1	15
496.019	1	6
496.359	1	5
496.700	1	-2
497.040	1	8
497.381	1	-9
497.721	1	-5
498.062	1	3
498.403	1	9
498.743	1	9
499.084	1	-3
499.424	1	13
499.765	1	-1
500.105	1	-6
500.446	1	6
500.786	1	8
501.127	1	14
501.467	1	8
501.808	1	-1
502.148	1	5
502.489	1	16
502.829	1	9
503.170	1	5
503.510	1	-6
503.851	1	-14
504.191	1	0
504.532	1	6
504.872	1	4
505.213	1	1
505.553	1	11
505.894	1	14
506.234	1	3
506.575	1	-6
506.915	1	0
507.256	1	2
507.596	1	13
507.936	1	15
508.277	1	10
508.617	1	17
508.958	1	13
509.298	1	24
509.639	1	12
509.979	1	0
510.319	1	1
510.660	1	11
511.000	1	11
511.341	1	-5
511.681	1	9
512.022	1	8
512.362	1	1
512.702	1	-2
513.043	1	5
513.383	1	-6
513.724	1	12
514.064	1	11
514.404	1	4
514.745	1	4
515.085	1	10
515.425	1	-4
515.766	1	11
516.106	1	0
516.447	1	17
516.787	1	3
517.127	1	14
517.468	1	-1
517.808	1	5
518.148	1	4
518.489	1	11
518.829	1	4
519.169	1	17
519.510	1	12
519.850	1	-4
520.190	1	1
520.531	1	3
520.871	1	4
521.211	1	15
521.552	1	8
521.892	1	-4
522.232	1	-8
522.573	1	12
522.913	1	12
523.253	1	11
523.593	1	2
523.934	1	13
524.274	1	2
524.614	1	11
524.955	1	4
525.295	1	-4
525.635	1	21
525.975	1	6
526.316	1	16
526.656	1	21
526.996	1	18
527.337	1	5
527.677	1	24
528.017	1	1
528.357	1	7
528.698	1	-1
529.038	1	19
529.378	1	9
529.718	1	3
530.058	1	14
530.399	1	18
530.739	1	7
531.079	1	14
531.419	1	19
531.760	1	19
532.100	1	5
532.440	1	12
532.780	1	4
533.120	1	3
533.461	1	25
533.801	1	0
534.141	1	18
534.481	1	4
534.821	1	18
535.162	1	19
535.502	1	6
535.842	1	4
536.182	1	3
536.522	1	3
536.862	1	18
537.203	1	19
537.543	1	16
537.883	1	10
538.223	1	13
538.563	1	7
538.903	1	6
539.243	1	8
539.584	1	6
539.924	1	10
540.264	1	7
540.604	1	14
540.944	1	6
541.284	1	11
541.624	1	7
541.964	1	12
542.305	1	-3
542.645	1	-1
542.985	1	6
543.325	1	1
543.665	1	15
544.005	1	8
544.345	1	0
544.685	1	14
545.025	1	-5
545.365	1	12
545.705	1	9
546.045	1	11
546.386	1	12
546.726	1	4
547.066	1	3
547.406	1	11
547.746	1	16
548.086	1	7
548.426	1	4
548.766	1	17
549.106	1	5
549.446	1	10
549.786	1	7
550.126	1	7
550.466	1	5
550.806	1	7
551.146	1	-6
551.486	1	9
551.826	1	3
552.166	1	14
552.506	1	-4
552.846	1	19
553.186	1	9
553.526	1	9
553.866	1	11
554.206	1	2
554.546	1	-4
554.886	1	11
555.226	1	-9
555.566	1	8
555.906	1	4
556.246	1	3
556.586	1	8
556.926	1	4
557.266	1	3
557.606	1	-11
557.946	1	9
558.286	1	8
558.626	1	17
558.966	1	6
559.306	1	2
559.646	1	4
559.986	1	6
560.325	1	-5
560.665	1	9
561.005	1	12
561.345	1	4
561.685	1	4
562.025	1	7
562.365	1	16
562.705	1	20
563.045	1	15
563.385	1	5
563.725	1	12
564.064	1	17
564.404	1	-3
564.744	1	6
565.084	1	-4
565.424	1	4
565.764	1	12
566.104	1	-3
566.444	1	13
566.783	1	12
567.123	1	17
567.463	1	9
567.803	1	3
568.143	1	-6
568.483	1	3
568.823	1	8
569.162	1	2
569.502	1	9
569.842	1	-3
570.182	1	-8
570.522	1	12
570.862	1	6
571.201	1	11
571.541	1	3
571.881	1	6
572.221	1	11
572.561	1	-4
572.900	1	14
573.240	1	-4
573.580	1	5
573.920	1	-1
574.260	1	-4
574.599	1	-5
574.939	1	-1
575.279	1	15
575.619	1	9
575.959	1	3
576.298	1	-5
576.638	1	4
576.978	1	-1
577.318	1	9
577.657	1	1
577.997	1	4
578.337	1	4
578.677	1	-2
579.016	1	21
579.356	1	2
579.696	1	0
580.036	1	-3
580.375	1	4
580.715	1	16
581.055	1	12
581.394	1	-1
581.734	1	3
582.074	1	5
582.414	1	8
582.753	1	5
583.093	1	-3
583.433	1	-7
583.772	1	3
584.112	1	13
584.452	1	2
584.791	1	-1
585.131	1	8
585.471	1	2
585.811	1	1
586.150	1	1
586.490	1	0
586.830	1	-1
587.169	1	-3
587.509	1	1
587.849	1	12
588.188	1	2
588.528	1	5
588.867	1	8
589.207	1	-13
589.547	1	0
589.886	1	-8
590.226	1	2
590.566	1	8
590.905	1	6
591.245	1	0
591.585	1	-3
591.924	1	-9
592.264	1	3
592.603	1	-3
592.943	1	-1
593.283	1	11
593.622	1	4
593.962	1	7
594.301	1	13
594.641	1	-3
594.981	1	1
595.320	1	9
595.660	1	0
595.999	1	1
596.339	1	11
596.678	1	-3
597.018	1	0
597.358	1	12
597.697	1	-2
598.037	1	3
598.376	1	4
598.716	1	-4
599.055	1	10
599.395	1	9
599.734	1	6
600.074	1	3
600.413	1	4
600.753	1	10
601.092	1	-15
601.432	1	4
601.771	1	4
602.111	1	-3
602.451	1	8
602.790	1	10
603.130	1	10
603.469	1	-4
603.809	1	9
604.148	1	4
604.487	1	0
604.827	1	-7
605.166	1	2
605.506	1	10
605.845	1	-5
606.185	1	3
606.524	1	2
606.864	1	-2
607.203	1	6
607.543	1	-2
607.882	1	-4
608.222	1	13
608.561	1	3
608.901	1	3
609.240	1	-2
609.579	1	-2
609.919	1	0
610.258	1	4
610.598	1	1
610.937	1	5
611.277	1	9
611.616	1	-13
611.955	1	6
612.295	1	9
612.634	1	6
612.974	1	-6
613.313	1	-3
613.652	1	-14
613.992	1	1
614.331	1	4
614.671	1	8
615.010	1	1
615.349	1	8
615.689	1	4
616.028	1	2
616.368	1	5
616.707	1	-4
617.046	1	1
617.386	1	3
617.725	1	-2
618.064	1	3
618.404	1	12
618.743	1	-4
619.082	1	7
619.422	1	-1
619.761	1	-11
620.100	1	7
620.440	1	8
620.779	1	-7
621.118	1	-1
621.458	1	4
621.797	1	-5
622.136	1	-2
622.476	1	9
622.815	1	0
623.154	1	14
623.494	1	6
623.833	1	-1
624.172	1	6
624.511	1	2
624.851	1	-9
625.190	1	8
625.529	1	7
625.869	1	-1
626.208	1	4
626.547	1	2
626.886	1	4
627.226	1	8
627.565	1	5
627.904	1	9
628.243	1	-3
628.583	1	3
628.922	1	3
629.261	1	4
629.600	1	2
629.940	1	3
630.279	1	-3
630.618	1	1
630.957	1	-1
631.297	1	-7
631.636	1	-2
631.975	1	18
632.314	1	11
632.653	1	-4
632.993	1	12
633.332	1	8
633.671	1	10
634.010	1	-4
634.349	1	6
634.689	1	7
635.028	1	1
635.367	1	4
635.706	1	2
636.045	1	3
636.384	1	4
636.724	1	6
637.063	1	4
637.402	1	8
637.741	1	7
638.080	1	7
638.419	1	3
638.759	1	7
639.098	1	2
639.437	1	-4
639.776	1	2
640.115	1	0
640.454	1	10
640.793	1	4
641.132	1	6
641.472	1	-3
641.811	1	0
642.150	1	-3
642.489	1	2
642.828	1	7
643.167	1	7
643.506	1	1
643.845	1	5
644.184	1	14
644.524	1	1
644.863	1	-1
645.202	1	6
645.541	1	1
645.880	1	1
646.219	1	10
646.558	1	2
646.897	1	-2
647.236	1	6
647.575	1	2
647.914	1	-7
648.253	1	3
648.592	1	10
648.931	1	9
649.270	1	14
649.610	1	11
649.949	1	6
650.288	1	-4
650.627	1	-1
650.966	1	3
651.305	1	1
651.644	1	-1
651.983	1	4
652.322	1	9
652.661	1	5
653.000	1	-1
653.339	1	5
653.678	1	1
654.017	1	3
654.356	1	12
654.695	1	5
655.034	1	0
655.373	1	3
655.712	1	-4
656.051	1	10
656.390	1	6
656.729	1	-1
657.068	1	-4
657.406	1	10
657.745	1	-4
658.084	1	2
658.423	1	-6
658.762	1	-13
659.101	1	0
659.440	1	11
659.779	1	1
660.118	1	7
660.457	1	0
660.796	1	4
661.135	1	12
661.474	1	0
661.813	1	-6
662.152	1	1
662.491	1	3
662.829	1	5
663.168	1	-1
663.507	1	1
663.846	1	2
664.185	1	-3
664.524	1	-5
664.863	1	3
665.202	1	-7
665.541	1	-3
665.879	1	6
666.218	1	-5
666.557	1	7
666.896	1	-7
667.235	1	-4
667.574	1	-1
667.913	1	-1
668.251	1	7
668.590	1	3
668.929	1	4
669.268	1	6
669.607	1	1
669.946	1	13
670.285	1	1
670.623	1	3
670.962	1	-4
671.301	1	-5
671.640	1	-17
671.979	1	10
672.317	1	5
672.656	1	4
672.995	1	5
673.334	1	11
673.673	1	15
674.011	1	11
674.350	1	-3
674.689	1	-5
675.028	1	6
675.367	1	9
675.705	1	-10
676.044	1	1
676.383	1	3
676.722	1	1
677.060	1	4
677.399	1	1
677.738	1	-4
678.077	1	6
678.416	1	1
678.754	1	3
679.093	1	5
679.432	1	-4
679.771	1	-2
680.109	1	8
680.448	1	-3
680.787	1	-3
681.125	1	10
681.464	1	7
681.803	1	-12
682.142	1	5
682.480	1	1
682.819	1	1
683.158	1	0
683.496	1	0
683.835	1	2
684.174	1	-1
684.512	1	-3
684.851	1	3
685.190	1	9
685.529	1	4
685.867	1	7
686.206	1	2
686.545	1	9
686.883	1	-11
687.222	1	-3
687.561	1	-1
687.899	1	8
688.238	1	-7
688.577	1	6
688.746	1	1