File: Analysis/GaN_68K_200ms/GaN_sample E_spot4_UVVIS_68 K_200um_200 ms 2x2mm1_585.txt
340.368	1	-11
340.710	1	-2
341.052	1	4
341.394	1	0
341.737	1	6
342.079	1	-5
342.421	1	0
342.763	1	2
343.105	1	4
343.447	1	7
343.789	1	-11
344.131	1	-2
344.473	1	6
344.815	1	1
345.157	1	5
345.499	1	1
345.841	1	-2
346.183	1	-1
346.526	1	4
346.868	1	5
347.210	1	-1
347.552	1	-6
347.894	1	1
348.236	1	1
348.578	1	11
348.920	1	17
349.262	1	1
349.604	1	11
349.946	1	12
350.288	1	6
350.630	1	-4
350.972	1	-11
351.314	1	-2
351.656	1	2
351.998	1	-5
352.340	1	0
352.682	1	-3
353.024	1	-3
353.366	1	6
353.708	1	1
354.050	1	-3
354.392	1	5
354.734	1	-1
355.076	1	-1
355.418	1	-5
355.760	1	-9
356.102	1	-6
356.444	1	6
356.785	1	17
357.127	1	-7
357.469	1	-4
357.811	1	16
358.153	1	-1
358.495	1	5
358.837	1	8
359.179	1	-1
359.521	1	-3
359.863	1	-11
360.205	1	1
360.547	1	2
360.889	1	6
361.231	1	-3
361.572	1	-2
361.914	1	-4
362.256	1	8
362.598	1	2
362.940	1	0
363.282	1	6
363.624	1	-9
363.966	1	4
364.308	1	0
364.649	1	11
364.991	1	5
365.333	1	9
365.675	1	-5
366.017	1	3
366.359	1	6
366.701	1	-10
367.042	1	15
367.384	1	10
367.726	1	9
368.068	1	1
368.410	1	-9
368.752	1	-3
369.093	1	-1
369.435	1	-3
369.777	1	1
370.119	1	10
370.461	1	-4
370.803	1	-6
371.144	1	8
371.486	1	7
371.828	1	7
372.170	1	6
372.512	1	-2
372.853	1	2
373.195	1	-10
373.537	1	12
373.879	1	8
374.220	1	2
374.562	1	0
374.904	1	0
375.246	1	-5
375.588	1	-1
375.929	1	3
376.271	1	1
376.613	1	-3
376.955	1	-8
377.296	1	2
377.638	1	-2
377.980	1	2
378.321	1	4
378.663	1	-6
379.005	1	8
379.347	1	6
379.688	1	-12
380.030	1	-10
380.372	1	0
380.714	1	11
381.055	1	1
381.397	1	-14
381.739	1	4
382.080	1	-3
382.422	1	14
382.764	1	-3
383.105	1	0
383.447	1	6
383.789	1	9
384.130	1	-2
384.472	1	0
384.814	1	12
385.156	1	11
385.497	1	11
385.839	1	5
386.180	1	1
386.522	1	5
386.864	1	-3
387.205	1	3
387.547	1	-5
387.889	1	16
388.230	1	-1
388.572	1	-3
388.914	1	21
389.255	1	6
389.597	1	-10
389.939	1	3
390.280	1	17
390.622	1	-1
390.963	1	9
391.305	1	4
391.647	1	2
391.988	1	-4
392.330	1	5
392.671	1	12
393.013	1	11
393.355	1	16
393.696	1	-1
394.038	1	-9
394.379	1	-8
394.721	1	2
395.062	1	-13
395.404	1	13
395.746	1	-11
396.087	1	-1
396.429	1	5
396.770	1	8
397.112	1	0
397.453	1	-9
397.795	1	4
398.136	1	7
398.478	1	-1
398.819	1	7
399.161	1	0
399.503	1	7
399.844	1	0
400.186	1	6
400.527	1	1
400.869	1	8
401.210	1	0
401.552	1	15
401.893	1	-5
402.235	1	9
402.576	1	9
402.918	1	-12
403.259	1	-4
403.601	1	-11
403.942	1	8
404.284	1	-5
404.625	1	5
404.967	1	12
405.308	1	3
405.649	1	5
405.991	1	4
406.332	1	-5
406.674	1	7
407.015	1	-11
407.357	1	2
407.698	1	-8
408.040	1	-4
408.381	1	6
408.722	1	-1
409.064	1	5
409.405	1	-2
409.747	1	-7
410.088	1	8
410.430	1	4
410.771	1	1
411.112	1	1
411.454	1	10
411.795	1	2
412.137	1	3
412.478	1	5
412.819	1	-9
413.161	1	-5
413.502	1	3
413.844	1	-1
414.185	1	6
414.526	1	14
414.868	1	12
415.209	1	-3
415.550	1	-12
415.892	1	-2
416.233	1	-7
416.575	1	6
416.916	1	-2
417.257	1	10
417.599	1	6
417.940	1	-3
418.281	1	2
418.623	1	0
418.964	1	7
419.305	1	-2
419.647	1	7
419.988	1	-9
420.329	1	4
420.671	1	8
421.012	1	12
421.353	1	3
421.695	1	-4
422.036	1	-9
422.377	1	5
422.718	1	-2
423.060	1	2
423.401	1	-1
423.742	1	2
424.084	1	6
424.425	1	4
424.766	1	-5
425.107	1	9
425.449	1	5
425.790	1	-6
426.131	1	2
426.472	1	-7
426.814	1	13
427.155	1	-7
427.496	1	13
427.837	1	-2
428.179	1	-6
428.520	1	-13
428.861	1	1
429.202	1	4
429.544	1	-2
429.885	1	-5
430.226	1	5
430.567	1	12
430.909	1	-8
431.250	1	-10
431.591	1	6
431.932	1	7
432.273	1	-6
432.615	1	4
432.956	1	1
433.297	1	13
433.638	1	1
433.979	1	-2
434.320	1	-1
434.662	1	-6
435.003	1	9
435.344	1	-1
435.685	1	14
436.026	1	-1
436.368	1	4
436.709	1	-7
437.050	1	5
437.391	1	0
437.732	1	5
438.073	1	4
438.414	1	1
438.756	1	9
439.097	1	15
439.438	1	8
439.779	1	-3
440.120	1	-3
440.461	1	-8
440.802	1	-1
441.143	1	13
441.485	1	-1
441.826	1	-10
442.167	1	-1
442.508	1	5
442.849	1	12
443.190	1	-17
443.531	1	4
443.872	1	-8
444.213	1	-3
444.554	1	-5
444.895	1	-1
445.237	1	-6
445.578	1	0
445.919	1	2
446.260	1	3
446.601	1	8
446.942	1	7
447.283	1	-2
447.624	1	12
447.965	1	-7
448.306	1	5
448.647	1	12
448.988	1	-6
449.329	1	-4
449.670	1	5
450.011	1	-8
450.352	1	1
450.693	1	5
451.034	1	0
451.375	1	10
451.716	1	1
452.057	1	1
452.398	1	2
452.739	1	9
453.080	1	8
453.421	1	4
453.762	1	5
454.103	1	-2
454.444	1	8
454.785	1	-7
455.126	1	4
455.467	1	-1
455.808	1	-4
456.149	1	-2
456.490	1	-7
456.831	1	16
457.172	1	0
457.513	1	3
457.854	1	-1
458.195	1	-4
458.536	1	8
458.877	1	0
459.218	1	1
459.559	1	4
459.899	1	7
460.240	1	-5
460.581	1	5
460.922	1	-4
461.263	1	6
461.604	1	-9
461.945	1	9
462.286	1	8
462.627	1	2
462.968	1	-1
463.309	1	-2
463.649	1	-2
463.990	1	2
464.331	1	0
464.672	1	4
465.013	1	-6
465.354	1	12
465.695	1	3
466.036	1	-2
466.376	1	-4
466.717	1	0
467.058	1	6
467.399	1	10
467.740	1	1
468.081	1	-8
468.422	1	3
468.762	1	-6
469.103	1	7
469.444	1	-9
469.785	1	2
470.126	1	4
470.467	1	7
470.807	1	16
471.148	1	-2
471.489	1	-7
471.830	1	17
472.171	1	0
472.511	1	10
472.852	1	-2
473.193	1	0
473.534	1	-5
473.875	1	14
474.215	1	-3
474.556	1	-13
474.897	1	6
475.238	1	6
475.578	1	-5
475.919	1	-9
476.260	1	-5
476.601	1	1
476.942	1	-7
477.282	1	-2
477.623	1	5
477.964	1	8
478.305	1	5
478.645	1	0
478.986	1	2
479.327	1	-7
479.667	1	3
480.008	1	3
480.349	1	1
480.690	1	-2
481.030	1	-11
481.371	1	5
481.712	1	-4
482.053	1	-2
482.393	1	-17
482.734	1	12
483.075	1	9
483.415	1	-1
483.756	1	5
484.097	1	-5
484.437	1	-13
484.778	1	3
485.119	1	2
485.459	1	1
485.800	1	-3
486.141	1	-10
486.481	1	0
486.822	1	7
487.163	1	-3
487.503	1	-10
487.844	1	1
488.185	1	-8
488.525	1	-2
488.866	1	14
489.207	1	-1
489.547	1	4
489.888	1	2
490.228	1	-4
490.569	1	7
490.910	1	-1
491.250	1	6
491.591	1	-3
491.932	1	9
492.272	1	6
492.613	1	9
492.953	1	-3
493.294	1	15
493.635	1	-4
493.975	1	4
494.316	1	6
494.656	1	2
494.997	1	-9
495.337	1	6
495.678	1	6
496.019	1	-14
496.359	1	0
496.700	1	5
497.040	1	7
497.381	1	-21
497.721	1	-3
498.062	1	-3
498.403	1	1
498.743	1	11
499.084	1	-16
499.424	1	9
499.765	1	2
500.105	1	3
500.446	1	-3
500.786	1	7
501.127	1	5
501.467	1	3
501.808	1	-3
502.148	1	8
502.489	1	12
502.829	1	10
503.170	1	-2
503.510	1	1
503.851	1	-24
504.191	1	3
504.532	1	-8
504.872	1	-3
505.213	1	-3
505.553	1	10
505.894	1	6
506.234	1	3
506.575	1	1
506.915	1	-7
507.256	1	-9
507.596	1	6
507.936	1	6
508.277	1	7
508.617	1	2
508.958	1	12
509.298	1	-2
509.639	1	13
509.979	1	3
510.319	1	-6
510.660	1	2
511.000	1	7
511.341	1	-14
511.681	1	-3
512.022	1	-8
512.362	1	7
512.702	1	-3
513.043	1	-2
513.383	1	0
513.724	1	2
514.064	1	1
514.404	1	0
514.745	1	-2
515.085	1	4
515.425	1	6
515.766	1	2
516.106	1	2
516.447	1	1
516.787	1	1
517.127	1	0
517.468	1	-4
517.808	1	4
518.148	1	-6
518.489	1	2
518.829	1	-2
519.169	1	8
519.510	1	1
519.850	1	-6
520.190	1	4
520.531	1	-4
520.871	1	-1
521.211	1	0
521.552	1	6
521.892	1	-8
522.232	1	-5
522.573	1	-3
522.913	1	13
523.253	1	1
523.593	1	-22
523.934	1	0
524.274	1	-2
524.614	1	5
524.955	1	8
525.295	1	1
525.635	1	15
525.975	1	-13
526.316	1	0
526.656	1	12
526.996	1	10
527.337	1	-4
527.677	1	10
528.017	1	-1
528.357	1	8
528.698	1	-3
529.038	1	5
529.378	1	0
529.718	1	-3
530.058	1	5
530.399	1	7
530.739	1	-1
531.079	1	4
531.419	1	-2
531.760	1	10
532.100	1	10
532.440	1	-6
532.780	1	6
533.120	1	-8
533.461	1	12
533.801	1	3
534.141	1	9
534.481	1	2
534.821	1	5
535.162	1	0
535.502	1	4
535.842	1	11
536.182	1	8
536.522	1	5
536.862	1	8
537.203	1	4
537.543	1	8
537.883	1	9
538.223	1	17
538.563	1	5
538.903	1	-5
539.243	1	-3
539.584	1	4
539.924	1	-5
540.264	1	2
540.604	1	18
540.944	1	-9
541.284	1	4
541.624	1	3
541.964	1	10
542.305	1	-7
542.645	1	2
542.985	1	-3
543.325	1	-4
543.665	1	6
544.005	1	1
544.345	1	-7
544.685	1	7
545.025	1	-9
545.365	1	9
545.705	1	13
546.045	1	8
546.386	1	4
546.726	1	-3
547.066	1	-5
547.406	1	11
547.746	1	2
548.086	1	2
548.426	1	1
548.766	1	3
549.106	1	4
549.446	1	-1
549.786	1	3
550.126	1	-3
550.466	1	-6
550.806	1	8
551.146	1	1
551.486	1	3
551.826	1	2
552.166	1	-8
552.506	1	-5
552.846	1	-2
553.186	1	4
553.526	1	1
553.866	1	7
554.206	1	8
554.546	1	-3
554.886	1	0
555.226	1	-8
555.566	1	9
555.906	1	3
556.246	1	2
556.586	1	14
556.926	1	3
557.266	1	15
557.606	1	-7
557.946	1	9
558.286	1	9
558.626	1	7
558.966	1	-5
559.306	1	-3
559.646	1	-1
559.986	1	-7
560.325	1	-13
560.665	1	3
561.005	1	0
561.345	1	-4
561.685	1	1
562.025	1	-8
562.365	1	4
562.705	1	8
563.045	1	0
563.385	1	-5
563.725	1	-5
564.064	1	10
564.404	1	-5
564.744	1	4
565.084	1	6
565.424	1	8
565.764	1	12
566.104	1	-5
566.444	1	11
566.783	1	3
567.123	1	15
567.463	1	-6
567.803	1	-13
568.143	1	-7
568.483	1	-9
568.823	1	-1
569.162	1	4
569.502	1	2
569.842	1	-2
570.182	1	-12
570.522	1	-1
570.862	1	3
571.201	1	8
571.541	1	-4
571.881	1	9
572.221	1	0
572.561	1	-3
572.900	1	7
573.240	1	-5
573.580	1	8
573.920	1	2
574.260	1	-6
574.599	1	1
574.939	1	-2
575.279	1	4
575.619	1	6
575.959	1	-6
576.298	1	-8
576.638	1	9
576.978	1	8
577.318	1	5
577.657	1	-9
577.997	1	-12
578.337	1	0
578.677	1	-2
579.016	1	10
579.356	1	-7
579.696	1	11
580.036	1	-4
580.375	1	7
580.715	1	8
581.055	1	3
581.394	1	-10
581.734	1	-1
582.074	1	4
582.414	1	2
582.753	1	8
583.093	1	-5
583.433	1	-1
583.772	1	2
584.112	1	7
584.452	1	4
584.791	1	6
585.131	1	-2
585.471	1	2
585.811	1	-7
586.150	1	-2
586.490	1	-7
586.830	1	-2
587.169	1	-1
587.509	1	0
587.849	1	12
588.188	1	9
588.528	1	5
588.867	1	0
589.207	1	-8
589.547	1	-7
589.886	1	-6
590.226	1	-6
590.566	1	-7
590.905	1	0
591.245	1	0
591.585	1	-1
591.924	1	-10
592.264	1	-5
592.603	1	-4
592.943	1	-7
593.283	1	6
593.622	1	2
593.962	1	1
594.301	1	3
594.641	1	-11
594.981	1	-1
595.320	1	8
595.660	1	1
595.999	1	5
596.339	1	1
596.678	1	-7
597.018	1	5
597.358	1	-7
597.697	1	-3
598.037	1	-4
598.376	1	16
598.716	1	-7
599.055	1	0
599.395	1	15
599.734	1	2
600.074	1	-2
600.413	1	-7
600.753	1	-3
601.092	1	-6
601.432	1	0
601.771	1	10
602.111	1	-10
602.451	1	-4
602.790	1	11
603.130	1	3
603.469	1	2
603.809	1	6
604.148	1	-5
604.487	1	6
604.827	1	-11
605.166	1	-7
605.506	1	4
605.845	1	-6
606.185	1	4
606.524	1	4
606.864	1	-5
607.203	1	10
607.543	1	-8
607.882	1	-12
608.222	1	4
608.561	1	7
608.901	1	1
609.240	1	9
609.579	1	8
609.919	1	-7
610.258	1	7
610.598	1	1
610.937	1	-1
611.277	1	17
611.616	1	-7
611.955	1	6
612.295	1	9
612.634	1	-2
612.974	1	2
613.313	1	10
613.652	1	-5
613.992	1	3
614.331	1	5
614.671	1	2
615.010	1	1
615.349	1	-4
615.689	1	-3
616.028	1	1
616.368	1	-7
616.707	1	2
617.046	1	-4
617.386	1	-2
617.725	1	12
618.064	1	2
618.404	1	9
618.743	1	-2
619.082	1	5
619.422	1	1
619.761	1	-3
620.100	1	1
620.440	1	-8
620.779	1	-1
621.118	1	-1
621.458	1	3
621.797	1	4
622.136	1	3
622.476	1	6
622.815	1	1
623.154	1	-1
623.494	1	-2
623.833	1	-2
624.172	1	17
624.511	1	-3
624.851	1	-8
625.190	1	5
625.529	1	8
625.869	1	2
626.208	1	-5
626.547	1	1
626.886	1	3
627.226	1	2
627.565	1	9
627.904	1	-5
628.243	1	-9
628.583	1	-3
628.922	1	8
629.261	1	5
629.600	1	3
629.940	1	-4
630.279	1	-3
630.618	1	0
630.957	1	3
631.297	1	-4
631.636	1	-2
631.975	1	5
632.314	1	10
632.653	1	-2
632.993	1	2
633.332	1	7
633.671	1	5
634.010	1	0
634.349	1	6
634.689	1	4
635.028	1	-2
635.367	1	-1
635.706	1	-5
636.045	1	-7
636.384	1	2
636.724	1	-2
637.063	1	6
637.402	1	8
637.741	1	11
638.080	1	-10
638.419	1	4
638.759	1	9
639.098	1	1
639.437	1	-9
639.776	1	-2
640.115	1	-3
640.454	1	19
640.793	1	0
641.132	1	6
641.472	1	-2
641.811	1	1
642.150	1	5
642.489	1	-4
642.828	1	8
643.167	1	15
643.506	1	-11
643.845	1	10
644.184	1	11
644.524	1	-9
644.863	1	-12
645.202	1	6
645.541	1	-5
645.880	1	-2
646.219	1	5
646.558	1	-1
646.897	1	-13
647.236	1	4
647.575	1	4
647.914	1	-14
648.253	1	1
648.592	1	0
648.931	1	12
649.270	1	2
649.610	1	5
649.949	1	-5
650.288	1	-1
650.627	1	2
650.966	1	-10
651.305	1	-6
651.644	1	-6
651.983	1	-8
652.322	1	5
652.661	1	-1
653.000	1	-1
653.339	1	6
653.678	1	-4
654.017	1	7
654.356	1	10
654.695	1	-1
655.034	1	7
655.373	1	4
655.712	1	0
656.051	1	7
656.390	1	4
656.729	1	12
657.068	1	-3
657.406	1	0
657.745	1	-6
658.084	1	11
658.423	1	2
658.762	1	-7
659.101	1	-9
659.440	1	9
659.779	1	-7
660.118	1	6
660.457	1	-3
660.796	1	-4
661.135	1	2
661.474	1	1
661.813	1	3
662.152	1	-8
662.491	1	1
662.829	1	-5
663.168	1	-7
663.507	1	-6
663.846	1	2
664.185	1	-8
664.524	1	-2
664.863	1	8
665.202	1	-7
665.541	1	-5
665.879	1	-1
666.218	1	-8
666.557	1	2
666.896	1	-9
667.235	1	5
667.574	1	-4
667.913	1	4
668.251	1	4
668.590	1	-4
668.929	1	-1
669.268	1	4
669.607	1	-8
669.946	1	12
670.285	1	-3
670.623	1	4
670.962	1	3
671.301	1	-14
671.640	1	-17
671.979	1	10
672.317	1	-6
672.656	1	6
672.995	1	4
673.334	1	5
673.673	1	10
674.011	1	8
674.350	1	-1
674.689	1	-5
675.028	1	-4
675.367	1	3
675.705	1	-6
676.044	1	1
676.383	1	-5
676.722	1	-3
677.060	1	4
677.399	1	1
677.738	1	-12
678.077	1	-1
678.416	1	11
678.754	1	-4
679.093	1	4
679.432	1	-10
679.771	1	-7
680.109	1	9
680.448	1	0
680.787	1	-1
681.125	1	7
681.464	1	2
681.803	1	-10
682.142	1	12
682.480	1	2
682.819	1	-1
683.158	1	4
683.496	1	-5
683.835	1	-4
684.174	1	2
684.512	1	-3
684.851	1	-1
685.190	1	1
685.529	1	6
685.867	1	-4
686.206	1	0
686.545	1	5
686.883	1	-10
687.222	1	-2
687.561	1	2
687.899	1	0
688.238	1	12
688.577	1	-4
688.746	1	8