File: Analysis/GaN_68K_200ms/GaN_sample E_spot4_UVVIS_68 K_200um_200 ms 2x2mm1_460.txt
340.368	1	-2
340.710	1	-7
341.052	1	9
341.394	1	0
341.737	1	10
342.079	1	-7
342.421	1	0
342.763	1	-1
343.105	1	9
343.447	1	7
343.789	1	-3
344.131	1	1
344.473	1	1
344.815	1	9
345.157	1	6
345.499	1	5
345.841	1	3
346.183	1	-3
346.526	1	7
346.868	1	-2
347.210	1	1
347.552	1	-1
347.894	1	4
348.236	1	3
348.578	1	4
348.920	1	8
349.262	1	6
349.604	1	10
349.946	1	8
350.288	1	4
350.630	1	-3
350.972	1	2
351.314	1	-2
351.656	1	1
351.998	1	-3
352.340	1	0
352.682	1	1
353.024	1	0
353.366	1	5
353.708	1	9
354.050	1	7
354.392	1	2
354.734	1	4
355.076	1	7
355.418	1	0
355.760	1	-1
356.102	1	0
356.444	1	4
356.785	1	10
357.127	1	7
357.469	1	4
357.811	1	17
358.153	1	10
358.495	1	10
358.837	1	5
359.179	1	10
359.521	1	2
359.863	1	2
360.205	1	-5
360.547	1	-5
360.889	1	7
361.231	1	-5
361.572	1	-4
361.914	1	-1
362.256	1	8
362.598	1	4
362.940	1	0
363.282	1	-1
363.624	1	0
363.966	1	11
364.308	1	-5
364.649	1	1
364.991	1	10
365.333	1	4
365.675	1	-4
366.017	1	11
366.359	1	13
366.701	1	-11
367.042	1	4
367.384	1	9
367.726	1	6
368.068	1	0
368.410	1	-1
368.752	1	-13
369.093	1	5
369.435	1	2
369.777	1	-4
370.119	1	-3
370.461	1	6
370.803	1	-3
371.144	1	12
371.486	1	-9
371.828	1	5
372.170	1	6
372.512	1	-3
372.853	1	0
373.195	1	0
373.537	1	11
373.879	1	2
374.220	1	-1
374.562	1	8
374.904	1	6
375.246	1	-4
375.588	1	-4
375.929	1	4
376.271	1	-6
376.613	1	-1
376.955	1	0
377.296	1	-1
377.638	1	-4
377.980	1	10
378.321	1	14
378.663	1	-3
379.005	1	9
379.347	1	-2
379.688	1	-9
380.030	1	-3
380.372	1	2
380.714	1	2
381.055	1	-1
381.397	1	1
381.739	1	11
382.080	1	-6
382.422	1	6
382.764	1	-2
383.105	1	3
383.447	1	6
383.789	1	5
384.130	1	-4
384.472	1	-10
384.814	1	6
385.156	1	13
385.497	1	13
385.839	1	8
386.180	1	7
386.522	1	3
386.864	1	0
387.205	1	2
387.547	1	2
387.889	1	2
388.230	1	12
388.572	1	3
388.914	1	19
389.255	1	12
389.597	1	6
389.939	1	1
390.280	1	8
390.622	1	2
390.963	1	8
391.305	1	16
391.647	1	16
391.988	1	9
392.330	1	20
392.671	1	13
393.013	1	11
393.355	1	9
393.696	1	9
394.038	1	4
394.379	1	0
394.721	1	5
395.062	1	-5
395.404	1	-5
395.746	1	-2
396.087	1	3
396.429	1	9
396.770	1	6
397.112	1	4
397.453	1	0
397.795	1	1
398.136	1	0
398.478	1	-1
398.819	1	18
399.161	1	6
399.503	1	6
399.844	1	9
400.186	1	12
400.527	1	6
400.869	1	12
401.210	1	-5
401.552	1	0
401.893	1	13
402.235	1	9
402.576	1	9
402.918	1	-2
403.259	1	-3
403.601	1	-3
403.942	1	6
404.284	1	-1
404.625	1	9
404.967	1	6
405.308	1	2
405.649	1	3
405.991	1	11
406.332	1	0
406.674	1	9
407.015	1	-4
407.357	1	6
407.698	1	-2
408.040	1	-6
408.381	1	-2
408.722	1	0
409.064	1	5
409.405	1	1
409.747	1	0
410.088	1	12
410.430	1	12
410.771	1	0
411.112	1	12
411.454	1	9
411.795	1	6
412.137	1	13
412.478	1	8
412.819	1	-1
413.161	1	-6
413.502	1	-8
413.844	1	-3
414.185	1	9
414.526	1	6
414.868	1	12
415.209	1	-8
415.550	1	3
415.892	1	-4
416.233	1	-5
416.575	1	9
416.916	1	-4
417.257	1	15
417.599	1	4
417.940	1	6
418.281	1	6
418.623	1	6
418.964	1	6
419.305	1	7
419.647	1	10
419.988	1	-3
420.329	1	3
420.671	1	2
421.012	1	11
421.353	1	13
421.695	1	5
422.036	1	2
422.377	1	5
422.718	1	5
423.060	1	-1
423.401	1	6
423.742	1	-2
424.084	1	-3
424.425	1	3
424.766	1	9
425.107	1	9
425.449	1	8
425.790	1	-5
426.131	1	9
426.472	1	-5
426.814	1	12
427.155	1	-4
427.496	1	6
427.837	1	-6
428.179	1	5
428.520	1	-3
428.861	1	-3
429.202	1	6
429.544	1	2
429.885	1	5
430.226	1	1
430.567	1	12
430.909	1	-5
431.250	1	-6
431.591	1	-5
431.932	1	1
432.273	1	5
432.615	1	2
432.956	1	-2
433.297	1	12
433.638	1	-1
433.979	1	0
434.320	1	-2
434.662	1	-7
435.003	1	8
435.344	1	-3
435.685	1	11
436.026	1	2
436.368	1	2
436.709	1	-11
437.050	1	9
437.391	1	8
437.732	1	-1
438.073	1	8
438.414	1	5
438.756	1	6
439.097	1	9
439.438	1	16
439.779	1	-1
440.120	1	1
440.461	1	-4
440.802	1	2
441.143	1	15
441.485	1	2
441.826	1	-6
442.167	1	3
442.508	1	-3
442.849	1	3
443.190	1	-5
443.531	1	5
443.872	1	-2
444.213	1	6
444.554	1	2
444.895	1	-3
445.237	1	-6
445.578	1	11
445.919	1	3
446.260	1	-3
446.601	1	-6
446.942	1	7
447.283	1	-6
447.624	1	12
447.965	1	-5
448.306	1	2
448.647	1	8
448.988	1	-8
449.329	1	4
449.670	1	6
450.011	1	1
450.352	1	2
450.693	1	3
451.034	1	2
451.375	1	11
451.716	1	8
452.057	1	5
452.398	1	4
452.739	1	-3
453.080	1	5
453.421	1	9
453.762	1	1
454.103	1	5
454.444	1	1
454.785	1	-2
455.126	1	2
455.467	1	-5
455.808	1	-6
456.149	1	-8
456.490	1	0
456.831	1	18
457.172	1	-2
457.513	1	8
457.854	1	3
458.195	1	0
458.536	1	13
458.877	1	0
459.218	1	7
459.559	1	-3
459.899	1	12
460.240	1	5
460.581	1	11
460.922	1	-3
461.263	1	4
461.604	1	-4
461.945	1	6
462.286	1	12
462.627	1	3
462.968	1	2
463.309	1	5
463.649	1	-1
463.990	1	1
464.331	1	-1
464.672	1	-4
465.013	1	-8
465.354	1	7
465.695	1	3
466.036	1	1
466.376	1	11
466.717	1	-8
467.058	1	11
467.399	1	9
467.740	1	-7
468.081	1	-6
468.422	1	6
468.762	1	-3
469.103	1	-5
469.444	1	-7
469.785	1	-6
470.126	1	6
470.467	1	-2
470.807	1	0
471.148	1	4
471.489	1	-5
471.830	1	15
472.171	1	4
472.511	1	18
472.852	1	-4
473.193	1	-5
473.534	1	4
473.875	1	8
474.215	1	-11
474.556	1	-10
474.897	1	6
475.238	1	2
475.578	1	-2
475.919	1	3
476.260	1	2
476.601	1	3
476.942	1	1
477.282	1	-4
477.623	1	0
477.964	1	11
478.305	1	-4
478.645	1	-3
478.986	1	0
479.327	1	-6
479.667	1	5
480.008	1	0
480.349	1	-1
480.690	1	-1
481.030	1	-5
481.371	1	0
481.712	1	0
482.053	1	13
482.393	1	-6
482.734	1	6
483.075	1	8
483.415	1	9
483.756	1	7
484.097	1	3
484.437	1	-8
484.778	1	3
485.119	1	6
485.459	1	11
485.800	1	-2
486.141	1	-7
486.481	1	-1
486.822	1	11
487.163	1	3
487.503	1	-9
487.844	1	-1
488.185	1	0
488.525	1	0
488.866	1	3
489.207	1	6
489.547	1	-2
489.888	1	11
490.228	1	-10
490.569	1	8
490.910	1	-3
491.250	1	9
491.591	1	-8
491.932	1	9
492.272	1	11
492.613	1	-2
492.953	1	2
493.294	1	0
493.635	1	6
493.975	1	0
494.316	1	10
494.656	1	5
494.997	1	-3
495.337	1	6
495.678	1	12
496.019	1	-9
496.359	1	-3
496.700	1	1
497.040	1	-5
497.381	1	-16
497.721	1	-5
498.062	1	-7
498.403	1	4
498.743	1	13
499.084	1	-5
499.424	1	10
499.765	1	-14
500.105	1	-1
500.446	1	7
500.786	1	2
501.127	1	3
501.467	1	0
501.808	1	-14
502.148	1	0
502.489	1	11
502.829	1	6
503.170	1	12
503.510	1	0
503.851	1	-16
504.191	1	4
504.532	1	-6
504.872	1	-7
505.213	1	-4
505.553	1	5
505.894	1	0
506.234	1	10
506.575	1	3
506.915	1	0
507.256	1	6
507.596	1	4
507.936	1	5
508.277	1	4
508.617	1	0
508.958	1	12
509.298	1	12
509.639	1	4
509.979	1	4
510.319	1	-5
510.660	1	7
511.000	1	0
511.341	1	-5
511.681	1	8
512.022	1	-1
512.362	1	5
512.702	1	-3
513.043	1	4
513.383	1	-4
513.724	1	11
514.064	1	6
514.404	1	3
514.745	1	-3
515.085	1	-3
515.425	1	0
515.766	1	4
516.106	1	-6
516.447	1	-1
516.787	1	-7
517.127	1	5
517.468	1	1
517.808	1	-1
518.148	1	6
518.489	1	4
518.829	1	-5
519.169	1	5
519.510	1	1
519.850	1	1
520.190	1	-2
520.531	1	4
520.871	1	-8
521.211	1	1
521.552	1	9
521.892	1	-3
522.232	1	1
522.573	1	3
522.913	1	3
523.253	1	10
523.593	1	-8
523.934	1	1
524.274	1	-6
524.614	1	-5
524.955	1	-5
525.295	1	5
525.635	1	16
525.975	1	-5
526.316	1	-7
526.656	1	14
526.996	1	12
527.337	1	4
527.677	1	12
528.017	1	-10
528.357	1	-4
528.698	1	1
529.038	1	4
529.378	1	5
529.718	1	0
530.058	1	-2
530.399	1	6
530.739	1	4
531.079	1	9
531.419	1	11
531.760	1	12
532.100	1	11
532.440	1	5
532.780	1	4
533.120	1	-8
533.461	1	7
533.801	1	8
534.141	1	11
534.481	1	5
534.821	1	7
535.162	1	6
535.502	1	0
535.842	1	3
536.182	1	0
536.522	1	8
536.862	1	16
537.203	1	9
537.543	1	4
537.883	1	5
538.223	1	0
538.563	1	4
538.903	1	0
539.243	1	6
539.584	1	4
539.924	1	9
540.264	1	2
540.604	1	0
540.944	1	-3
541.284	1	1
541.624	1	6
541.964	1	7
542.305	1	-10
542.645	1	14
542.985	1	2
543.325	1	3
543.665	1	6
544.005	1	3
544.345	1	-2
544.685	1	11
545.025	1	6
545.365	1	1
545.705	1	14
546.045	1	17
546.386	1	-5
546.726	1	1
547.066	1	-5
547.406	1	0
547.746	1	11
548.086	1	1
548.426	1	-5
548.766	1	7
549.106	1	12
549.446	1	6
549.786	1	12
550.126	1	-3
550.466	1	-1
550.806	1	5
551.146	1	5
551.486	1	-3
551.826	1	8
552.166	1	5
552.506	1	-9
552.846	1	4
553.186	1	9
553.526	1	3
553.866	1	-3
554.206	1	3
554.546	1	-1
554.886	1	4
555.226	1	-6
555.566	1	11
555.906	1	-4
556.246	1	2
556.586	1	8
556.926	1	5
557.266	1	15
557.606	1	-11
557.946	1	5
558.286	1	3
558.626	1	7
558.966	1	6
559.306	1	-3
559.646	1	2
559.986	1	0
560.325	1	-11
560.665	1	12
561.005	1	2
561.345	1	1
561.685	1	-7
562.025	1	-1
562.365	1	5
562.705	1	14
563.045	1	-1
563.385	1	-1
563.725	1	4
564.064	1	11
564.404	1	-3
564.744	1	8
565.084	1	1
565.424	1	7
565.764	1	5
566.104	1	-4
566.444	1	10
566.783	1	-2
567.123	1	6
567.463	1	2
567.803	1	-5
568.143	1	0
568.483	1	-12
568.823	1	4
569.162	1	10
569.502	1	4
569.842	1	-3
570.182	1	-12
570.522	1	10
570.862	1	9
571.201	1	10
571.541	1	-3
571.881	1	14
572.221	1	9
572.561	1	-8
572.900	1	5
573.240	1	5
573.580	1	9
573.920	1	-1
574.260	1	3
574.599	1	-2
574.939	1	-5
575.279	1	3
575.619	1	5
575.959	1	-2
576.298	1	-7
576.638	1	4
576.978	1	5
577.318	1	3
577.657	1	-11
577.997	1	-4
578.337	1	4
578.677	1	0
579.016	1	11
579.356	1	3
579.696	1	4
580.036	1	-1
580.375	1	12
580.715	1	5
581.055	1	8
581.394	1	-2
581.734	1	7
582.074	1	-9
582.414	1	6
582.753	1	6
583.093	1	1
583.433	1	-9
583.772	1	6
584.112	1	0
584.452	1	4
584.791	1	-3
585.131	1	-7
585.471	1	-2
585.811	1	-2
586.150	1	-5
586.490	1	-1
586.830	1	-4
587.169	1	3
587.509	1	4
587.849	1	8
588.188	1	-6
588.528	1	11
588.867	1	5
589.207	1	-9
589.547	1	-1
589.886	1	-1
590.226	1	9
590.566	1	2
590.905	1	-4
591.245	1	3
591.585	1	3
591.924	1	3
592.264	1	-8
592.603	1	-2
592.943	1	-3
593.283	1	9
593.622	1	-5
593.962	1	1
594.301	1	14
594.641	1	-6
594.981	1	-6
595.320	1	8
595.660	1	-10
595.999	1	-2
596.339	1	9
596.678	1	5
597.018	1	-1
597.358	1	1
597.697	1	-3
598.037	1	2
598.376	1	11
598.716	1	-3
599.055	1	5
599.395	1	9
599.734	1	1
600.074	1	-5
600.413	1	2
600.753	1	4
601.092	1	-7
601.432	1	-6
601.771	1	9
602.111	1	-7
602.451	1	-3
602.790	1	6
603.130	1	14
603.469	1	2
603.809	1	5
604.148	1	10
604.487	1	-4
604.827	1	-11
605.166	1	3
605.506	1	5
605.845	1	1
606.185	1	-5
606.524	1	1
606.864	1	-3
607.203	1	7
607.543	1	-8
607.882	1	-1
608.222	1	1
608.561	1	15
608.901	1	9
609.240	1	-2
609.579	1	11
609.919	1	-2
610.258	1	1
610.598	1	2
610.937	1	-3
611.277	1	12
611.616	1	-17
611.955	1	3
612.295	1	-11
612.634	1	3
612.974	1	6
613.313	1	13
613.652	1	-6
613.992	1	4
614.331	1	5
614.671	1	5
615.010	1	1
615.349	1	-3
615.689	1	4
616.028	1	1
616.368	1	-4
616.707	1	3
617.046	1	2
617.386	1	-4
617.725	1	7
618.064	1	4
618.404	1	-2
618.743	1	7
619.082	1	10
619.422	1	2
619.761	1	-3
620.100	1	8
620.440	1	7
620.779	1	-6
621.118	1	-1
621.458	1	15
621.797	1	5
622.136	1	2
622.476	1	7
622.815	1	5
623.154	1	2
623.494	1	-5
623.833	1	3
624.172	1	8
624.511	1	7
624.851	1	0
625.190	1	-1
625.529	1	8
625.869	1	5
626.208	1	-2
626.547	1	4
626.886	1	-7
627.226	1	4
627.565	1	8
627.904	1	6
628.243	1	-8
628.583	1	7
628.922	1	-2
629.261	1	6
629.600	1	9
629.940	1	5
630.279	1	0
630.618	1	-4
630.957	1	-6
631.297	1	6
631.636	1	0
631.975	1	6
632.314	1	13
632.653	1	-9
632.993	1	3
633.332	1	3
633.671	1	0
634.010	1	-5
634.349	1	14
634.689	1	1
635.028	1	2
635.367	1	-9
635.706	1	2
636.045	1	2
636.384	1	1
636.724	1	-5
637.063	1	-1
637.402	1	7
637.741	1	5
638.080	1	2
638.419	1	4
638.759	1	-2
639.098	1	-5
639.437	1	-12
639.776	1	-4
640.115	1	-4
640.454	1	12
640.793	1	4
641.132	1	11
641.472	1	-8
641.811	1	-1
642.150	1	0
642.489	1	-5
642.828	1	4
643.167	1	5
643.506	1	-9
643.845	1	-3
644.184	1	17
644.524	1	-7
644.863	1	-7
645.202	1	-3
645.541	1	-9
645.880	1	2
646.219	1	9
646.558	1	6
646.897	1	-4
647.236	1	4
647.575	1	0
647.914	1	-5
648.253	1	1
648.592	1	-3
648.931	1	-5
649.270	1	11
649.610	1	10
649.949	1	6
650.288	1	-5
650.627	1	5
650.966	1	-7
651.305	1	-4
651.644	1	-2
651.983	1	4
652.322	1	13
652.661	1	6
653.000	1	0
653.339	1	14
653.678	1	2
654.017	1	-2
654.356	1	7
654.695	1	8
655.034	1	-6
655.373	1	-2
655.712	1	0
656.051	1	15
656.390	1	5
656.729	1	2
657.068	1	9
657.406	1	-3
657.745	1	-13
658.084	1	3
658.423	1	-8
658.762	1	0
659.101	1	-9
659.440	1	1
659.779	1	1
660.118	1	3
660.457	1	4
660.796	1	1
661.135	1	-8
661.474	1	4
661.813	1	5
662.152	1	-1
662.491	1	2
662.829	1	1
663.168	1	-5
663.507	1	1
663.846	1	2
664.185	1	-1
664.524	1	-3
664.863	1	6
665.202	1	-7
665.541	1	-3
665.879	1	4
666.218	1	-7
666.557	1	3
666.896	1	-11
667.235	1	-1
667.574	1	1
667.913	1	-1
668.251	1	3
668.590	1	-1
668.929	1	1
669.268	1	5
669.607	1	-6
669.946	1	-2
670.285	1	3
670.623	1	2
670.962	1	-4
671.301	1	-2
671.640	1	-8
671.979	1	18
672.317	1	-4
672.656	1	8
672.995	1	3
673.334	1	3
673.673	1	15
674.011	1	0
674.350	1	-1
674.689	1	-2
675.028	1	9
675.367	1	0
675.705	1	-12
676.044	1	-9
676.383	1	-1
676.722	1	5
677.060	1	-5
677.399	1	-9
677.738	1	0
678.077	1	7
678.416	1	4
678.754	1	1
679.093	1	2
679.432	1	-2
679.771	1	4
680.109	1	10
680.448	1	6
680.787	1	6
681.125	1	3
681.464	1	4
681.803	1	-11
682.142	1	13
682.480	1	2
682.819	1	1
683.158	1	3
683.496	1	-5
683.835	1	5
684.174	1	1
684.512	1	1
684.851	1	-4
685.190	1	3
685.529	1	1
685.867	1	5
686.206	1	8
686.545	1	0
686.883	1	-6
687.222	1	-1
687.561	1	5
687.899	1	-4
688.238	1	0
688.577	1	7
688.746	1	3