File: Analysis/GaN_68K_200ms/GaN_sample E_spot4_UVVIS_68 K_200um_200 ms 2x2mm1_748.txt
340.368	1	0
340.710	1	-8
341.052	1	6
341.394	1	-6
341.737	1	7
342.079	1	-7
342.421	1	-2
342.763	1	-5
343.105	1	5
343.447	1	1
343.789	1	-9
344.131	1	-9
344.473	1	1
344.815	1	3
345.157	1	5
345.499	1	-3
345.841	1	-4
346.183	1	2
346.526	1	8
346.868	1	-5
347.210	1	-10
347.552	1	2
347.894	1	0
348.236	1	9
348.578	1	0
348.920	1	10
349.262	1	3
349.604	1	6
349.946	1	7
350.288	1	-5
350.630	1	-10
350.972	1	7
351.314	1	1
351.656	1	-1
351.998	1	-1
352.340	1	-3
352.682	1	-6
353.024	1	-4
353.366	1	3
353.708	1	8
354.050	1	-4
354.392	1	0
354.734	1	4
355.076	1	4
355.418	1	0
355.760	1	-3
356.102	1	-2
356.444	1	4
356.785	1	14
357.127	1	0
357.469	1	-11
357.811	1	10
358.153	1	1
358.495	1	6
358.837	1	7
359.179	1	1
359.521	1	-4
359.863	1	-6
360.205	1	1
360.547	1	3
360.889	1	3
361.231	1	-3
361.572	1	-2
361.914	1	-8
362.256	1	10
362.598	1	-3
362.940	1	-3
363.282	1	3
363.624	1	7
363.966	1	4
364.308	1	-9
364.649	1	3
364.991	1	6
365.333	1	8
365.675	1	0
366.017	1	4
366.359	1	3
366.701	1	-4
367.042	1	7
367.384	1	-1
367.726	1	2
368.068	1	-1
368.410	1	-2
368.752	1	-9
369.093	1	5
369.435	1	0
369.777	1	2
370.119	1	10
370.461	1	6
370.803	1	-3
371.144	1	2
371.486	1	-4
371.828	1	-3
372.170	1	5
372.512	1	-3
372.853	1	-2
373.195	1	-3
373.537	1	3
373.879	1	6
374.220	1	1
374.562	1	6
374.904	1	3
375.246	1	-1
375.588	1	2
375.929	1	6
376.271	1	3
376.613	1	1
376.955	1	-11
377.296	1	4
377.638	1	-3
377.980	1	7
378.321	1	2
378.663	1	-1
379.005	1	9
379.347	1	1
379.688	1	2
380.030	1	-4
380.372	1	2
380.714	1	4
381.055	1	6
381.397	1	-10
381.739	1	4
382.080	1	-7
382.422	1	0
382.764	1	-1
383.105	1	0
383.447	1	4
383.789	1	-4
384.130	1	-8
384.472	1	-9
384.814	1	11
385.156	1	15
385.497	1	8
385.839	1	4
386.180	1	3
386.522	1	-6
386.864	1	-5
387.205	1	-3
387.547	1	-11
387.889	1	11
388.230	1	5
388.572	1	7
388.914	1	10
389.255	1	0
389.597	1	-2
389.939	1	16
390.280	1	4
390.622	1	-3
390.963	1	6
391.305	1	9
391.647	1	7
391.988	1	-6
392.330	1	8
392.671	1	16
393.013	1	6
393.355	1	15
393.696	1	3
394.038	1	-4
394.379	1	5
394.721	1	6
395.062	1	-9
395.404	1	3
395.746	1	-2
396.087	1	-2
396.429	1	3
396.770	1	0
397.112	1	-3
397.453	1	-1
397.795	1	0
398.136	1	0
398.478	1	3
398.819	1	7
399.161	1	-2
399.503	1	7
399.844	1	2
400.186	1	4
400.527	1	11
400.869	1	12
401.210	1	6
401.552	1	14
401.893	1	8
402.235	1	13
402.576	1	6
402.918	1	-7
403.259	1	-15
403.601	1	-4
403.942	1	5
404.284	1	-4
404.625	1	1
404.967	1	6
405.308	1	0
405.649	1	2
405.991	1	4
406.332	1	-7
406.674	1	3
407.015	1	0
407.357	1	14
407.698	1	-7
408.040	1	-11
408.381	1	-2
408.722	1	-2
409.064	1	-6
409.405	1	0
409.747	1	2
410.088	1	5
410.430	1	9
410.771	1	6
411.112	1	1
411.454	1	11
411.795	1	6
412.137	1	1
412.478	1	2
412.819	1	-8
413.161	1	-2
413.502	1	1
413.844	1	-7
414.185	1	2
414.526	1	5
414.868	1	3
415.209	1	-3
415.550	1	0
415.892	1	-7
416.233	1	6
416.575	1	-1
416.916	1	3
417.257	1	1
417.599	1	5
417.940	1	5
418.281	1	-4
418.623	1	-10
418.964	1	-6
419.305	1	-10
419.647	1	3
419.988	1	4
420.329	1	10
420.671	1	2
421.012	1	6
421.353	1	7
421.695	1	-6
422.036	1	-14
422.377	1	10
422.718	1	3
423.060	1	2
423.401	1	9
423.742	1	0
424.084	1	3
424.425	1	-3
424.766	1	2
425.107	1	7
425.449	1	1
425.790	1	-5
426.131	1	-7
426.472	1	1
426.814	1	-4
427.155	1	-7
427.496	1	2
427.837	1	-9
428.179	1	-4
428.520	1	1
428.861	1	-6
429.202	1	6
429.544	1	-3
429.885	1	-7
430.226	1	3
430.567	1	18
430.909	1	-9
431.250	1	-13
431.591	1	3
431.932	1	-9
432.273	1	-3
432.615	1	8
432.956	1	-3
433.297	1	2
433.638	1	3
433.979	1	-1
434.320	1	-3
434.662	1	-7
435.003	1	9
435.344	1	2
435.685	1	2
436.026	1	7
436.368	1	-6
436.709	1	-2
437.050	1	10
437.391	1	-4
437.732	1	-1
438.073	1	5
438.414	1	-8
438.756	1	8
439.097	1	6
439.438	1	2
439.779	1	5
440.120	1	3
440.461	1	-2
440.802	1	4
441.143	1	15
441.485	1	-5
441.826	1	-14
442.167	1	-2
442.508	1	-10
442.849	1	-1
443.190	1	-7
443.531	1	1
443.872	1	1
444.213	1	2
444.554	1	-1
444.895	1	-4
445.237	1	-10
445.578	1	9
445.919	1	4
446.260	1	1
446.601	1	-1
446.942	1	0
447.283	1	3
447.624	1	8
447.965	1	-1
448.306	1	1
448.647	1	9
448.988	1	-12
449.329	1	-2
449.670	1	11
450.011	1	4
450.352	1	10
450.693	1	4
451.034	1	2
451.375	1	11
451.716	1	4
452.057	1	3
452.398	1	-4
452.739	1	0
453.080	1	12
453.421	1	-2
453.762	1	6
454.103	1	-1
454.444	1	9
454.785	1	2
455.126	1	6
455.467	1	-2
455.808	1	3
456.149	1	-5
456.490	1	-2
456.831	1	12
457.172	1	6
457.513	1	2
457.854	1	-1
458.195	1	-5
458.536	1	-5
458.877	1	-2
459.218	1	7
459.559	1	3
459.899	1	8
460.240	1	5
460.581	1	6
460.922	1	-1
461.263	1	7
461.604	1	2
461.945	1	4
462.286	1	5
462.627	1	3
462.968	1	-8
463.309	1	-6
463.649	1	5
463.990	1	-5
464.331	1	8
464.672	1	2
465.013	1	-19
465.354	1	2
465.695	1	7
466.036	1	1
466.376	1	-10
466.717	1	4
467.058	1	-3
467.399	1	10
467.740	1	-3
468.081	1	4
468.422	1	1
468.762	1	-8
469.103	1	-1
469.444	1	-2
469.785	1	13
470.126	1	-3
470.467	1	2
470.807	1	-7
471.148	1	2
471.489	1	8
471.830	1	9
472.171	1	0
472.511	1	13
472.852	1	-6
473.193	1	-12
473.534	1	-6
473.875	1	4
474.215	1	-1
474.556	1	-2
474.897	1	0
475.238	1	3
475.578	1	-4
475.919	1	3
476.260	1	-1
476.601	1	6
476.942	1	1
477.282	1	-14
477.623	1	5
477.964	1	3
478.305	1	0
478.645	1	-9
478.986	1	1
479.327	1	-14
479.667	1	0
480.008	1	4
480.349	1	2
480.690	1	4
481.030	1	-15
481.371	1	1
481.712	1	-4
482.053	1	6
482.393	1	-4
482.734	1	4
483.075	1	10
483.415	1	9
483.756	1	9
484.097	1	-7
484.437	1	-10
484.778	1	-1
485.119	1	4
485.459	1	5
485.800	1	-9
486.141	1	-5
486.481	1	-3
486.822	1	6
487.163	1	-8
487.503	1	-8
487.844	1	2
488.185	1	-5
488.525	1	-1
488.866	1	5
489.207	1	8
489.547	1	-9
489.888	1	1
490.228	1	-5
490.569	1	1
490.910	1	-7
491.250	1	0
491.591	1	-10
491.932	1	9
492.272	1	8
492.613	1	-5
492.953	1	6
493.294	1	6
493.635	1	-4
493.975	1	0
494.316	1	6
494.656	1	-7
494.997	1	-7
495.337	1	0
495.678	1	12
496.019	1	-1
496.359	1	-1
496.700	1	8
497.040	1	-4
497.381	1	-8
497.721	1	-1
498.062	1	-2
498.403	1	1
498.743	1	5
499.084	1	-14
499.424	1	12
499.765	1	1
500.105	1	6
500.446	1	-3
500.786	1	9
501.127	1	14
501.467	1	-1
501.808	1	-9
502.148	1	3
502.489	1	5
502.829	1	0
503.170	1	8
503.510	1	-7
503.851	1	-17
504.191	1	0
504.532	1	-7
504.872	1	-3
505.213	1	4
505.553	1	9
505.894	1	2
506.234	1	3
506.575	1	-4
506.915	1	3
507.256	1	-9
507.596	1	8
507.936	1	11
508.277	1	0
508.617	1	5
508.958	1	8
509.298	1	8
509.639	1	1
509.979	1	1
510.319	1	-7
510.660	1	6
511.000	1	7
511.341	1	1
511.681	1	0
512.022	1	-5
512.362	1	1
512.702	1	-4
513.043	1	2
513.383	1	-1
513.724	1	6
514.064	1	7
514.404	1	-9
514.745	1	-4
515.085	1	2
515.425	1	-6
515.766	1	-8
516.106	1	2
516.447	1	0
516.787	1	-11
517.127	1	5
517.468	1	-1
517.808	1	0
518.148	1	9
518.489	1	5
518.829	1	-14
519.169	1	13
519.510	1	-3
519.850	1	-1
520.190	1	0
520.531	1	-5
520.871	1	-10
521.211	1	0
521.552	1	3
521.892	1	-8
522.232	1	-8
522.573	1	-4
522.913	1	-4
523.253	1	-2
523.593	1	-15
523.934	1	6
524.274	1	-1
524.614	1	-2
524.955	1	-1
525.295	1	-2
525.635	1	13
525.975	1	-6
526.316	1	-9
526.656	1	17
526.996	1	13
527.337	1	4
527.677	1	21
528.017	1	-6
528.357	1	0
528.698	1	-5
529.038	1	4
529.378	1	1
529.718	1	4
530.058	1	-5
530.399	1	11
530.739	1	-2
531.079	1	9
531.419	1	5
531.760	1	2
532.100	1	10
532.440	1	-5
532.780	1	-5
533.120	1	-3
533.461	1	9
533.801	1	6
534.141	1	7
534.481	1	2
534.821	1	5
535.162	1	4
535.502	1	10
535.842	1	-3
536.182	1	-1
536.522	1	7
536.862	1	2
537.203	1	-2
537.543	1	3
537.883	1	1
538.223	1	-1
538.563	1	8
538.903	1	-4
539.243	1	-7
539.584	1	10
539.924	1	6
540.264	1	7
540.604	1	8
540.944	1	-10
541.284	1	-7
541.624	1	6
541.964	1	8
542.305	1	-10
542.645	1	-7
542.985	1	2
543.325	1	-2
543.665	1	1
544.005	1	-5
544.345	1	-9
544.685	1	3
545.025	1	-3
545.365	1	2
545.705	1	5
546.045	1	7
546.386	1	3
546.726	1	-3
547.066	1	-8
547.406	1	5
547.746	1	5
548.086	1	4
548.426	1	-5
548.766	1	6
549.106	1	7
549.446	1	2
549.786	1	0
550.126	1	-5
550.466	1	-4
550.806	1	4
551.146	1	-3
551.486	1	3
551.826	1	5
552.166	1	-3
552.506	1	3
552.846	1	3
553.186	1	-3
553.526	1	2
553.866	1	5
554.206	1	1
554.546	1	-12
554.886	1	-4
555.226	1	-6
555.566	1	12
555.906	1	1
556.246	1	0
556.586	1	-2
556.926	1	-10
557.266	1	4
557.606	1	-9
557.946	1	3
558.286	1	12
558.626	1	3
558.966	1	-12
559.306	1	-7
559.646	1	-6
559.986	1	-11
560.325	1	-6
560.665	1	3
561.005	1	8
561.345	1	0
561.685	1	-5
562.025	1	2
562.365	1	3
562.705	1	7
563.045	1	5
563.385	1	-10
563.725	1	0
564.064	1	4
564.404	1	-7
564.744	1	1
565.084	1	-4
565.424	1	5
565.764	1	19
566.104	1	3
566.444	1	13
566.783	1	-10
567.123	1	21
567.463	1	4
567.803	1	-3
568.143	1	-7
568.483	1	-11
568.823	1	6
569.162	1	4
569.502	1	-2
569.842	1	-8
570.182	1	-5
570.522	1	12
570.862	1	10
571.201	1	5
571.541	1	-8
571.881	1	6
572.221	1	9
572.561	1	-10
572.900	1	16
573.240	1	-9
573.580	1	3
573.920	1	6
574.260	1	-2
574.599	1	-3
574.939	1	-7
575.279	1	7
575.619	1	1
575.959	1	-10
576.298	1	-2
576.638	1	-4
576.978	1	-2
577.318	1	-5
577.657	1	-9
577.997	1	-9
578.337	1	0
578.677	1	-5
579.016	1	8
579.356	1	-10
579.696	1	14
580.036	1	-5
580.375	1	-2
580.715	1	5
581.055	1	5
581.394	1	0
581.734	1	14
582.074	1	-4
582.414	1	-8
582.753	1	2
583.093	1	-4
583.433	1	-2
583.772	1	-5
584.112	1	1
584.452	1	5
584.791	1	-2
585.131	1	-3
585.471	1	-12
585.811	1	-5
586.150	1	-1
586.490	1	-14
586.830	1	-4
587.169	1	1
587.509	1	1
587.849	1	5
588.188	1	1
588.528	1	4
588.867	1	5
589.207	1	-15
589.547	1	-1
589.886	1	-4
590.226	1	1
590.566	1	4
590.905	1	11
591.245	1	-2
591.585	1	-7
591.924	1	-2
592.264	1	2
592.603	1	-4
592.943	1	-8
593.283	1	8
593.622	1	-1
593.962	1	0
594.301	1	7
594.641	1	-5
594.981	1	4
595.320	1	8
595.660	1	-5
595.999	1	12
596.339	1	3
596.678	1	-7
597.018	1	-1
597.358	1	6
597.697	1	-4
598.037	1	2
598.376	1	2
598.716	1	-10
599.055	1	3
599.395	1	11
599.734	1	-3
600.074	1	3
600.413	1	-4
600.753	1	8
601.092	1	-15
601.432	1	-11
601.771	1	7
602.111	1	-7
602.451	1	-1
602.790	1	4
603.130	1	5
603.469	1	0
603.809	1	0
604.148	1	5
604.487	1	1
604.827	1	-8
605.166	1	-10
605.506	1	3
605.845	1	-4
606.185	1	2
606.524	1	-4
606.864	1	-1
607.203	1	1
607.543	1	-12
607.882	1	3
608.222	1	5
608.561	1	-1
608.901	1	8
609.240	1	-3
609.579	1	2
609.919	1	-13
610.258	1	11
610.598	1	3
610.937	1	1
611.277	1	12
611.616	1	-11
611.955	1	11
612.295	1	1
612.634	1	-3
612.974	1	0
613.313	1	4
613.652	1	-9
613.992	1	-2
614.331	1	8
614.671	1	4
615.010	1	6
615.349	1	-3
615.689	1	6
616.028	1	-1
616.368	1	-4
616.707	1	-8
617.046	1	2
617.386	1	-5
617.725	1	6
618.064	1	-3
618.404	1	3
618.743	1	0
619.082	1	-12
619.422	1	4
619.761	1	-6
620.100	1	4
620.440	1	1
620.779	1	-5
621.118	1	-5
621.458	1	1
621.797	1	1
622.136	1	-4
622.476	1	6
622.815	1	-4
623.154	1	1
623.494	1	0
623.833	1	0
624.172	1	7
624.511	1	-4
624.851	1	-9
625.190	1	-1
625.529	1	1
625.869	1	10
626.208	1	4
626.547	1	8
626.886	1	-2
627.226	1	-1
627.565	1	13
627.904	1	3
628.243	1	-6
628.583	1	-1
628.922	1	-4
629.261	1	11
629.600	1	0
629.940	1	9
630.279	1	-3
630.618	1	-6
630.957	1	-5
631.297	1	-10
631.636	1	6
631.975	1	-1
632.314	1	14
632.653	1	-7
632.993	1	8
633.332	1	8
633.671	1	-12
634.010	1	-6
634.349	1	4
634.689	1	8
635.028	1	-1
635.367	1	-3
635.706	1	-3
636.045	1	3
636.384	1	3
636.724	1	3
637.063	1	4
637.402	1	6
637.741	1	7
638.080	1	-1
638.419	1	7
638.759	1	5
639.098	1	1
639.437	1	-6
639.776	1	-1
640.115	1	-12
640.454	1	8
640.793	1	2
641.132	1	9
641.472	1	-6
641.811	1	2
642.150	1	-6
642.489	1	-3
642.828	1	3
643.167	1	8
643.506	1	-5
643.845	1	12
644.184	1	1
644.524	1	-6
644.863	1	-12
645.202	1	0
645.541	1	-8
645.880	1	6
646.219	1	9
646.558	1	2
646.897	1	-12
647.236	1	0
647.575	1	4
647.914	1	-7
648.253	1	-2
648.592	1	-4
648.931	1	7
649.270	1	10
649.610	1	12
649.949	1	7
650.288	1	7
650.627	1	5
650.966	1	-9
651.305	1	-4
651.644	1	4
651.983	1	2
652.322	1	4
652.661	1	3
653.000	1	-11
653.339	1	-2
653.678	1	8
654.017	1	-4
654.356	1	3
654.695	1	6
655.034	1	-1
655.373	1	2
655.712	1	-8
656.051	1	6
656.390	1	-4
656.729	1	0
657.068	1	-7
657.406	1	9
657.745	1	-3
658.084	1	8
658.423	1	-16
658.762	1	-4
659.101	1	-7
659.440	1	10
659.779	1	-5
660.118	1	2
660.457	1	0
660.796	1	-10
661.135	1	-3
661.474	1	0
661.813	1	2
662.152	1	0
662.491	1	-1
662.829	1	1
663.168	1	-8
663.507	1	-6
663.846	1	5
664.185	1	-3
664.524	1	-4
664.863	1	-1
665.202	1	-8
665.541	1	5
665.879	1	-7
666.218	1	-16
666.557	1	-1
666.896	1	-3
667.235	1	7
667.574	1	-1
667.913	1	7
668.251	1	-5
668.590	1	-2
668.929	1	5
669.268	1	3
669.607	1	-2
669.946	1	7
670.285	1	-4
670.623	1	7
670.962	1	-5
671.301	1	-4
671.640	1	-13
671.979	1	11
672.317	1	4
672.656	1	5
672.995	1	3
673.334	1	-5
673.673	1	15
674.011	1	13
674.350	1	2
674.689	1	-8
675.028	1	4
675.367	1	0
675.705	1	-15
676.044	1	-2
676.383	1	-7
676.722	1	-1
677.060	1	-5
677.399	1	6
677.738	1	-4
678.077	1	1
678.416	1	1
678.754	1	-6
679.093	1	4
679.432	1	-10
679.771	1	1
680.109	1	8
680.448	1	-6
680.787	1	-3
681.125	1	7
681.464	1	0
681.803	1	-16
682.142	1	9
682.480	1	3
682.819	1	7
683.158	1	-2
683.496	1	-6
683.835	1	-2
684.174	1	-6
684.512	1	1
684.851	1	-6
685.190	1	3
685.529	1	-4
685.867	1	-4
686.206	1	2
686.545	1	4
686.883	1	-9
687.222	1	3
687.561	1	1
687.899	1	-1
688.238	1	-3
688.577	1	-5
688.746	1	-3