File: Analysis/GaN_68K_200ms/GaN_sample E_spot4_UVVIS_68 K_200um_200 ms 2x2mm1_498.txt
340.368	1	-2
340.710	1	-6
341.052	1	7
341.394	1	0
341.737	1	4
342.079	1	-7
342.421	1	0
342.763	1	-4
343.105	1	11
343.447	1	8
343.789	1	-7
344.131	1	-4
344.473	1	2
344.815	1	6
345.157	1	6
345.499	1	-1
345.841	1	1
346.183	1	-1
346.526	1	9
346.868	1	-2
347.210	1	-6
347.552	1	-5
347.894	1	0
348.236	1	-1
348.578	1	1
348.920	1	11
349.262	1	3
349.604	1	10
349.946	1	7
350.288	1	3
350.630	1	-3
350.972	1	-6
351.314	1	3
351.656	1	6
351.998	1	3
352.340	1	-6
352.682	1	-1
353.024	1	-4
353.366	1	5
353.708	1	7
354.050	1	3
354.392	1	0
354.734	1	8
355.076	1	12
355.418	1	-10
355.760	1	6
356.102	1	-4
356.444	1	10
356.785	1	13
357.127	1	-9
357.469	1	-6
357.811	1	19
358.153	1	8
358.495	1	4
358.837	1	-4
359.179	1	4
359.521	1	-3
359.863	1	-4
360.205	1	6
360.547	1	4
360.889	1	5
361.231	1	1
361.572	1	-9
361.914	1	-1
362.256	1	11
362.598	1	5
362.940	1	1
363.282	1	1
363.624	1	-1
363.966	1	-5
364.308	1	0
364.649	1	-1
364.991	1	9
365.333	1	3
365.675	1	-1
366.017	1	3
366.359	1	5
366.701	1	-9
367.042	1	11
367.384	1	6
367.726	1	11
368.068	1	-10
368.410	1	-4
368.752	1	-5
369.093	1	0
369.435	1	0
369.777	1	1
370.119	1	1
370.461	1	8
370.803	1	0
371.144	1	10
371.486	1	14
371.828	1	4
372.170	1	13
372.512	1	-4
372.853	1	4
373.195	1	-4
373.537	1	5
373.879	1	12
374.220	1	-5
374.562	1	5
374.904	1	7
375.246	1	4
375.588	1	5
375.929	1	3
376.271	1	-6
376.613	1	9
376.955	1	-2
377.296	1	8
377.638	1	-5
377.980	1	5
378.321	1	9
378.663	1	3
379.005	1	10
379.347	1	-4
379.688	1	3
380.030	1	-2
380.372	1	-1
380.714	1	6
381.055	1	6
381.397	1	2
381.739	1	13
382.080	1	-10
382.422	1	18
382.764	1	-5
383.105	1	7
383.447	1	10
383.789	1	10
384.130	1	-8
384.472	1	-2
384.814	1	9
385.156	1	9
385.497	1	12
385.839	1	6
386.180	1	5
386.522	1	18
386.864	1	10
387.205	1	0
387.547	1	3
387.889	1	12
388.230	1	4
388.572	1	10
388.914	1	20
389.255	1	4
389.597	1	1
389.939	1	7
390.280	1	12
390.622	1	9
390.963	1	6
391.305	1	8
391.647	1	10
391.988	1	-7
392.330	1	9
392.671	1	7
393.013	1	7
393.355	1	17
393.696	1	1
394.038	1	1
394.379	1	5
394.721	1	3
395.062	1	-8
395.404	1	10
395.746	1	1
396.087	1	12
396.429	1	5
396.770	1	5
397.112	1	0
397.453	1	-2
397.795	1	2
398.136	1	11
398.478	1	1
398.819	1	6
399.161	1	9
399.503	1	4
399.844	1	2
400.186	1	14
400.527	1	2
400.869	1	12
401.210	1	1
401.552	1	21
401.893	1	3
402.235	1	19
402.576	1	5
402.918	1	-5
403.259	1	1
403.601	1	-7
403.942	1	9
404.284	1	-3
404.625	1	8
404.967	1	4
405.308	1	1
405.649	1	3
405.991	1	-1
406.332	1	-2
406.674	1	5
407.015	1	-3
407.357	1	3
407.698	1	-6
408.040	1	-6
408.381	1	8
408.722	1	8
409.064	1	5
409.405	1	6
409.747	1	-9
410.088	1	7
410.430	1	11
410.771	1	5
411.112	1	11
411.454	1	19
411.795	1	10
412.137	1	6
412.478	1	2
412.819	1	-1
413.161	1	7
413.502	1	1
413.844	1	-6
414.185	1	1
414.526	1	7
414.868	1	14
415.209	1	-7
415.550	1	-6
415.892	1	-3
416.233	1	4
416.575	1	-6
416.916	1	-5
417.257	1	6
417.599	1	13
417.940	1	3
418.281	1	7
418.623	1	-3
418.964	1	1
419.305	1	7
419.647	1	6
419.988	1	-6
420.329	1	3
420.671	1	5
421.012	1	13
421.353	1	-3
421.695	1	7
422.036	1	3
422.377	1	3
422.718	1	-1
423.060	1	3
423.401	1	6
423.742	1	5
424.084	1	2
424.425	1	-1
424.766	1	5
425.107	1	-1
425.449	1	8
425.790	1	-2
426.131	1	8
426.472	1	-5
426.814	1	8
427.155	1	-5
427.496	1	10
427.837	1	-9
428.179	1	-11
428.520	1	-2
428.861	1	-2
429.202	1	1
429.544	1	-2
429.885	1	-1
430.226	1	-8
430.567	1	12
430.909	1	-10
431.250	1	-4
431.591	1	5
431.932	1	0
432.273	1	-1
432.615	1	-1
432.956	1	3
433.297	1	10
433.638	1	4
433.979	1	-3
434.320	1	2
434.662	1	-7
435.003	1	10
435.344	1	2
435.685	1	17
436.026	1	3
436.368	1	-2
436.709	1	-3
437.050	1	2
437.391	1	5
437.732	1	0
438.073	1	10
438.414	1	4
438.756	1	12
439.097	1	3
439.438	1	8
439.779	1	-4
440.120	1	-2
440.461	1	-9
440.802	1	2
441.143	1	6
441.485	1	-9
441.826	1	-10
442.167	1	-3
442.508	1	-3
442.849	1	12
443.190	1	-9
443.531	1	-4
443.872	1	-1
444.213	1	2
444.554	1	-2
444.895	1	1
445.237	1	-4
445.578	1	-1
445.919	1	1
446.260	1	3
446.601	1	-8
446.942	1	6
447.283	1	1
447.624	1	1
447.965	1	-1
448.306	1	0
448.647	1	6
448.988	1	-9
449.329	1	5
449.670	1	3
450.011	1	3
450.352	1	11
450.693	1	4
451.034	1	3
451.375	1	9
451.716	1	2
452.057	1	4
452.398	1	2
452.739	1	-8
453.080	1	16
453.421	1	10
453.762	1	8
454.103	1	9
454.444	1	10
454.785	1	0
455.126	1	-3
455.467	1	2
455.808	1	12
456.149	1	-1
456.490	1	1
456.831	1	13
457.172	1	-2
457.513	1	3
457.854	1	-1
458.195	1	-6
458.536	1	3
458.877	1	-3
459.218	1	6
459.559	1	0
459.899	1	3
460.240	1	6
460.581	1	-1
460.922	1	-1
461.263	1	8
461.604	1	3
461.945	1	12
462.286	1	12
462.627	1	-4
462.968	1	5
463.309	1	0
463.649	1	2
463.990	1	5
464.331	1	0
464.672	1	5
465.013	1	-14
465.354	1	6
465.695	1	14
466.036	1	8
466.376	1	0
466.717	1	1
467.058	1	8
467.399	1	13
467.740	1	-6
468.081	1	-6
468.422	1	5
468.762	1	-12
469.103	1	-3
469.444	1	1
469.785	1	-6
470.126	1	4
470.467	1	3
470.807	1	-2
471.148	1	3
471.489	1	-1
471.830	1	16
472.171	1	0
472.511	1	10
472.852	1	-8
473.193	1	1
473.534	1	-3
473.875	1	1
474.215	1	-8
474.556	1	-17
474.897	1	3
475.238	1	4
475.578	1	12
475.919	1	6
476.260	1	-3
476.601	1	-2
476.942	1	3
477.282	1	-9
477.623	1	5
477.964	1	-2
478.305	1	7
478.645	1	-2
478.986	1	-2
479.327	1	-9
479.667	1	4
480.008	1	6
480.349	1	-1
480.690	1	3
481.030	1	-6
481.371	1	3
481.712	1	5
482.053	1	9
482.393	1	-4
482.734	1	5
483.075	1	-1
483.415	1	3
483.756	1	19
484.097	1	-1
484.437	1	-14
484.778	1	9
485.119	1	6
485.459	1	6
485.800	1	-11
486.141	1	-8
486.481	1	4
486.822	1	3
487.163	1	-2
487.503	1	-14
487.844	1	8
488.185	1	-7
488.525	1	5
488.866	1	3
489.207	1	8
489.547	1	-4
489.888	1	4
490.228	1	-1
490.569	1	14
490.910	1	-8
491.250	1	7
491.591	1	-7
491.932	1	0
492.272	1	12
492.613	1	1
492.953	1	8
493.294	1	7
493.635	1	-1
493.975	1	3
494.316	1	12
494.656	1	1
494.997	1	5
495.337	1	7
495.678	1	5
496.019	1	4
496.359	1	2
496.700	1	1
497.040	1	4
497.381	1	-13
497.721	1	2
498.062	1	-3
498.403	1	3
498.743	1	4
499.084	1	-1
499.424	1	16
499.765	1	1
500.105	1	4
500.446	1	9
500.786	1	12
501.127	1	9
501.467	1	7
501.808	1	-15
502.148	1	3
502.489	1	7
502.829	1	2
503.170	1	2
503.510	1	5
503.851	1	-15
504.191	1	6
504.532	1	-2
504.872	1	1
505.213	1	-6
505.553	1	4
505.894	1	5
506.234	1	13
506.575	1	-6
506.915	1	3
507.256	1	-2
507.596	1	0
507.936	1	8
508.277	1	-1
508.617	1	12
508.958	1	7
509.298	1	17
509.639	1	12
509.979	1	-2
510.319	1	-8
510.660	1	9
511.000	1	2
511.341	1	6
511.681	1	-4
512.022	1	3
512.362	1	-1
512.702	1	-5
513.043	1	3
513.383	1	-7
513.724	1	9
514.064	1	9
514.404	1	-6
514.745	1	-9
515.085	1	-1
515.425	1	-5
515.766	1	13
516.106	1	9
516.447	1	-2
516.787	1	-7
517.127	1	2
517.468	1	-4
517.808	1	3
518.148	1	4
518.489	1	8
518.829	1	-8
519.169	1	17
519.510	1	-3
519.850	1	-5
520.190	1	7
520.531	1	7
520.871	1	-1
521.211	1	10
521.552	1	-1
521.892	1	-1
522.232	1	-6
522.573	1	6
522.913	1	4
523.253	1	1
523.593	1	-13
523.934	1	4
524.274	1	5
524.614	1	8
524.955	1	4
525.295	1	-6
525.635	1	5
525.975	1	-1
526.316	1	6
526.656	1	17
526.996	1	4
527.337	1	4
527.677	1	7
528.017	1	-6
528.357	1	4
528.698	1	-7
529.038	1	11
529.378	1	-3
529.718	1	6
530.058	1	-3
530.399	1	3
530.739	1	8
531.079	1	7
531.419	1	14
531.760	1	7
532.100	1	7
532.440	1	-6
532.780	1	7
533.120	1	0
533.461	1	20
533.801	1	3
534.141	1	7
534.481	1	-8
534.821	1	15
535.162	1	1
535.502	1	5
535.842	1	1
536.182	1	3
536.522	1	7
536.862	1	12
537.203	1	13
537.543	1	-5
537.883	1	1
538.223	1	14
538.563	1	3
538.903	1	-3
539.243	1	10
539.584	1	3
539.924	1	4
540.264	1	-1
540.604	1	5
540.944	1	-3
541.284	1	10
541.624	1	-2
541.964	1	14
542.305	1	-1
542.645	1	-5
542.985	1	-4
543.325	1	-1
543.665	1	7
544.005	1	2
544.345	1	-4
544.685	1	6
545.025	1	-3
545.365	1	6
545.705	1	7
546.045	1	-2
546.386	1	2
546.726	1	2
547.066	1	-6
547.406	1	8
547.746	1	6
548.086	1	12
548.426	1	5
548.766	1	14
549.106	1	10
549.446	1	6
549.786	1	-4
550.126	1	-9
550.466	1	-1
550.806	1	17
551.146	1	-6
551.486	1	5
551.826	1	14
552.166	1	-1
552.506	1	1
552.846	1	7
553.186	1	-3
553.526	1	-3
553.866	1	10
554.206	1	2
554.546	1	-12
554.886	1	3
555.226	1	-11
555.566	1	6
555.906	1	1
556.246	1	2
556.586	1	19
556.926	1	5
557.266	1	11
557.606	1	-8
557.946	1	2
558.286	1	8
558.626	1	4
558.966	1	4
559.306	1	1
559.646	1	1
559.986	1	-4
560.325	1	-6
560.665	1	3
561.005	1	7
561.345	1	-3
561.685	1	-3
562.025	1	6
562.365	1	5
562.705	1	11
563.045	1	6
563.385	1	-9
563.725	1	2
564.064	1	9
564.404	1	2
564.744	1	5
565.084	1	3
565.424	1	-2
565.764	1	5
566.104	1	-3
566.444	1	6
566.783	1	2
567.123	1	15
567.463	1	4
567.803	1	0
568.143	1	-2
568.483	1	-9
568.823	1	5
569.162	1	6
569.502	1	11
569.842	1	3
570.182	1	-4
570.522	1	3
570.862	1	7
571.201	1	2
571.541	1	-8
571.881	1	12
572.221	1	0
572.561	1	-2
572.900	1	14
573.240	1	1
573.580	1	6
573.920	1	-12
574.260	1	-6
574.599	1	-1
574.939	1	8
575.279	1	9
575.619	1	3
575.959	1	-3
576.298	1	-4
576.638	1	0
576.978	1	6
577.318	1	6
577.657	1	-14
577.997	1	-8
578.337	1	-4
578.677	1	7
579.016	1	10
579.356	1	-6
579.696	1	4
580.036	1	-1
580.375	1	6
580.715	1	8
581.055	1	12
581.394	1	-8
581.734	1	5
582.074	1	4
582.414	1	8
582.753	1	5
583.093	1	-11
583.433	1	-9
583.772	1	-1
584.112	1	8
584.452	1	3
584.791	1	2
585.131	1	-5
585.471	1	-6
585.811	1	4
586.150	1	6
586.490	1	-9
586.830	1	-9
587.169	1	0
587.509	1	0
587.849	1	15
588.188	1	-7
588.528	1	5
588.867	1	7
589.207	1	-1
589.547	1	0
589.886	1	-8
590.226	1	9
590.566	1	5
590.905	1	6
591.245	1	7
591.585	1	-11
591.924	1	-3
592.264	1	3
592.603	1	1
592.943	1	3
593.283	1	3
593.622	1	-5
593.962	1	5
594.301	1	14
594.641	1	-7
594.981	1	-8
595.320	1	2
595.660	1	-8
595.999	1	6
596.339	1	-3
596.678	1	1
597.018	1	1
597.358	1	6
597.697	1	-4
598.037	1	2
598.376	1	5
598.716	1	-2
599.055	1	4
599.395	1	4
599.734	1	-8
600.074	1	-8
600.413	1	9
600.753	1	6
601.092	1	-12
601.432	1	0
601.771	1	9
602.111	1	-10
602.451	1	-2
602.790	1	-3
603.130	1	5
603.469	1	5
603.809	1	13
604.148	1	8
604.487	1	3
604.827	1	-13
605.166	1	3
605.506	1	9
605.845	1	5
606.185	1	-3
606.524	1	1
606.864	1	-7
607.203	1	4
607.543	1	2
607.882	1	-8
608.222	1	5
608.561	1	15
608.901	1	4
609.240	1	3
609.579	1	10
609.919	1	-7
610.258	1	10
610.598	1	-1
610.937	1	-5
611.277	1	-1
611.616	1	-13
611.955	1	-2
612.295	1	6
612.634	1	-5
612.974	1	16
613.313	1	-1
613.652	1	-7
613.992	1	13
614.331	1	6
614.671	1	5
615.010	1	-5
615.349	1	7
615.689	1	2
616.028	1	-6
616.368	1	3
616.707	1	-5
617.046	1	2
617.386	1	-5
617.725	1	6
618.064	1	-3
618.404	1	5
618.743	1	-2
619.082	1	4
619.422	1	-3
619.761	1	5
620.100	1	0
620.440	1	8
620.779	1	-4
621.118	1	4
621.458	1	6
621.797	1	-5
622.136	1	5
622.476	1	7
622.815	1	-8
623.154	1	5
623.494	1	2
623.833	1	4
624.172	1	16
624.511	1	-4
624.851	1	-7
625.190	1	-1
625.529	1	9
625.869	1	0
626.208	1	-4
626.547	1	-3
626.886	1	-8
627.226	1	7
627.565	1	2
627.904	1	4
628.243	1	-9
628.583	1	5
628.922	1	3
629.261	1	-6
629.600	1	8
629.940	1	8
630.279	1	4
630.618	1	-1
630.957	1	-2
631.297	1	-4
631.636	1	0
631.975	1	8
632.314	1	14
632.653	1	-9
632.993	1	3
633.332	1	4
633.671	1	2
634.010	1	3
634.349	1	8
634.689	1	8
635.028	1	1
635.367	1	6
635.706	1	-9
636.045	1	-7
636.384	1	7
636.724	1	7
637.063	1	2
637.402	1	7
637.741	1	3
638.080	1	-6
638.419	1	8
638.759	1	6
639.098	1	0
639.437	1	-11
639.776	1	-3
640.115	1	-2
640.454	1	9
640.793	1	4
641.132	1	3
641.472	1	-2
641.811	1	-5
642.150	1	5
642.489	1	11
642.828	1	5
643.167	1	1
643.506	1	-6
643.845	1	2
644.184	1	13
644.524	1	0
644.863	1	-8
645.202	1	9
645.541	1	-7
645.880	1	5
646.219	1	0
646.558	1	-4
646.897	1	-1
647.236	1	5
647.575	1	5
647.914	1	-2
648.253	1	8
648.592	1	-2
648.931	1	4
649.270	1	5
649.610	1	8
649.949	1	3
650.288	1	-5
650.627	1	1
650.966	1	-6
651.305	1	-7
651.644	1	-6
651.983	1	3
652.322	1	0
652.661	1	8
653.000	1	-10
653.339	1	1
653.678	1	-2
654.017	1	-3
654.356	1	11
654.695	1	8
655.034	1	5
655.373	1	-4
655.712	1	-1
656.051	1	7
656.390	1	2
656.729	1	5
657.068	1	-6
657.406	1	6
657.745	1	-7
658.084	1	6
658.423	1	-3
658.762	1	-10
659.101	1	-6
659.440	1	13
659.779	1	-7
660.118	1	6
660.457	1	-2
660.796	1	-4
661.135	1	9
661.474	1	6
661.813	1	7
662.152	1	-11
662.491	1	7
662.829	1	-5
663.168	1	3
663.507	1	0
663.846	1	7
664.185	1	-3
664.524	1	-11
664.863	1	4
665.202	1	-7
665.541	1	-6
665.879	1	1
666.218	1	-2
666.557	1	1
666.896	1	0
667.235	1	-1
667.574	1	2
667.913	1	3
668.251	1	3
668.590	1	-6
668.929	1	6
669.268	1	8
669.607	1	-9
669.946	1	10
670.285	1	1
670.623	1	8
670.962	1	-1
671.301	1	-5
671.640	1	-11
671.979	1	6
672.317	1	3
672.656	1	1
672.995	1	3
673.334	1	10
673.673	1	17
674.011	1	8
674.350	1	-14
674.689	1	-7
675.028	1	4
675.367	1	3
675.705	1	-4
676.044	1	-2
676.383	1	-3
676.722	1	-9
677.060	1	10
677.399	1	-8
677.738	1	-5
678.077	1	-7
678.416	1	1
678.754	1	-2
679.093	1	10
679.432	1	-11
679.771	1	-1
680.109	1	11
680.448	1	8
680.787	1	0
681.125	1	7
681.464	1	-1
681.803	1	-9
682.142	1	14
682.480	1	-3
682.819	1	-4
683.158	1	-2
683.496	1	-10
683.835	1	-4
684.174	1	7
684.512	1	4
684.851	1	-2
685.190	1	1
685.529	1	-1
685.867	1	2
686.206	1	9
686.545	1	2
686.883	1	-4
687.222	1	-6
687.561	1	5
687.899	1	0
688.238	1	2
688.577	1	4
688.746	1	-6