File: Analysis/GaN_68K_200ms/GaN_sample E_spot4_UVVIS_68 K_200um_200 ms 2x2mm1_156.txt
340.368	1	0
340.710	1	2
341.052	1	7
341.394	1	-4
341.737	1	10
342.079	1	4
342.421	1	-2
342.763	1	4
343.105	1	11
343.447	1	2
343.789	1	0
344.131	1	7
344.473	1	6
344.815	1	6
345.157	1	0
345.499	1	16
345.841	1	2
346.183	1	4
346.526	1	6
346.868	1	-5
347.210	1	7
347.552	1	-2
347.894	1	10
348.236	1	1
348.578	1	10
348.920	1	10
349.262	1	6
349.604	1	16
349.946	1	11
350.288	1	4
350.630	1	1
350.972	1	5
351.314	1	3
351.656	1	9
351.998	1	3
352.340	1	3
352.682	1	-1
353.024	1	5
353.366	1	3
353.708	1	15
354.050	1	11
354.392	1	13
354.734	1	7
355.076	1	19
355.418	1	3
355.760	1	12
356.102	1	7
356.444	1	11
356.785	1	17
357.127	1	4
357.469	1	4
357.811	1	22
358.153	1	7
358.495	1	24
358.837	1	16
359.179	1	11
359.521	1	13
359.863	1	10
360.205	1	14
360.547	1	13
360.889	1	28
361.231	1	15
361.572	1	17
361.914	1	15
362.256	1	26
362.598	1	28
362.940	1	30
363.282	1	26
363.624	1	27
363.966	1	40
364.308	1	33
364.649	1	32
364.991	1	46
365.333	1	51
365.675	1	50
366.017	1	49
366.359	1	57
366.701	1	58
367.042	1	61
367.384	1	64
367.726	1	53
368.068	1	56
368.410	1	46
368.752	1	47
369.093	1	62
369.435	1	45
369.777	1	46
370.119	1	46
370.461	1	36
370.803	1	36
371.144	1	36
371.486	1	50
371.828	1	39
372.170	1	46
372.512	1	31
372.853	1	36
373.195	1	16
373.537	1	30
373.879	1	37
374.220	1	24
374.562	1	27
374.904	1	29
375.246	1	16
375.588	1	23
375.929	1	26
376.271	1	27
376.613	1	19
376.955	1	15
377.296	1	17
377.638	1	22
377.980	1	25
378.321	1	29
378.663	1	14
379.005	1	25
379.347	1	24
379.688	1	17
380.030	1	18
380.372	1	13
380.714	1	27
381.055	1	19
381.397	1	17
381.739	1	35
382.080	1	18
382.422	1	35
382.764	1	26
383.105	1	31
383.447	1	32
383.789	1	39
384.130	1	43
384.472	1	41
384.814	1	57
385.156	1	58
385.497	1	63
385.839	1	57
386.180	1	56
386.522	1	70
386.864	1	66
387.205	1	52
387.547	1	57
387.889	1	61
388.230	1	58
388.572	1	64
388.914	1	73
389.255	1	61
389.597	1	54
389.939	1	63
390.280	1	65
390.622	1	46
390.963	1	57
391.305	1	60
391.647	1	49
391.988	1	53
392.330	1	66
392.671	1	57
393.013	1	52
393.355	1	61
393.696	1	37
394.038	1	45
394.379	1	37
394.721	1	57
395.062	1	49
395.404	1	54
395.746	1	38
396.087	1	58
396.429	1	59
396.770	1	61
397.112	1	43
397.453	1	47
397.795	1	55
398.136	1	59
398.478	1	54
398.819	1	51
399.161	1	54
399.503	1	52
399.844	1	47
400.186	1	56
400.527	1	49
400.869	1	63
401.210	1	42
401.552	1	50
401.893	1	47
402.235	1	53
402.576	1	60
402.918	1	40
403.259	1	29
403.601	1	36
403.942	1	42
404.284	1	41
404.625	1	41
404.967	1	36
405.308	1	39
405.649	1	36
405.991	1	45
406.332	1	30
406.674	1	36
407.015	1	35
407.357	1	31
407.698	1	26
408.040	1	34
408.381	1	22
408.722	1	27
409.064	1	24
409.405	1	37
409.747	1	33
410.088	1	29
410.430	1	31
410.771	1	43
411.112	1	42
411.454	1	35
411.795	1	36
412.137	1	38
412.478	1	29
412.819	1	22
413.161	1	25
413.502	1	26
413.844	1	23
414.185	1	28
414.526	1	20
414.868	1	37
415.209	1	26
415.550	1	22
415.892	1	26
416.233	1	22
416.575	1	15
416.916	1	22
417.257	1	21
417.599	1	20
417.940	1	22
418.281	1	15
418.623	1	19
418.964	1	29
419.305	1	20
419.647	1	30
419.988	1	26
420.329	1	24
420.671	1	20
421.012	1	30
421.353	1	25
421.695	1	23
422.036	1	18
422.377	1	34
422.718	1	21
423.060	1	16
423.401	1	22
423.742	1	19
424.084	1	20
424.425	1	20
424.766	1	16
425.107	1	21
425.449	1	18
425.790	1	19
426.131	1	16
426.472	1	8
426.814	1	23
427.155	1	14
427.496	1	30
427.837	1	16
428.179	1	8
428.520	1	4
428.861	1	14
429.202	1	20
429.544	1	22
429.885	1	14
430.226	1	5
430.567	1	26
430.909	1	5
431.250	1	0
431.591	1	13
431.932	1	15
432.273	1	11
432.615	1	14
432.956	1	9
433.297	1	23
433.638	1	16
433.979	1	17
434.320	1	18
434.662	1	7
435.003	1	11
435.344	1	24
435.685	1	17
436.026	1	15
436.368	1	18
436.709	1	5
437.050	1	25
437.391	1	14
437.732	1	10
438.073	1	17
438.414	1	21
438.756	1	13
439.097	1	23
439.438	1	21
439.779	1	7
440.120	1	18
440.461	1	8
440.802	1	16
441.143	1	21
441.485	1	3
441.826	1	9
442.167	1	12
442.508	1	12
442.849	1	15
443.190	1	-1
443.531	1	10
443.872	1	9
444.213	1	14
444.554	1	12
444.895	1	17
445.237	1	7
445.578	1	10
445.919	1	8
446.260	1	18
446.601	1	9
446.942	1	18
447.283	1	0
447.624	1	10
447.965	1	-2
448.306	1	14
448.647	1	15
448.988	1	4
449.329	1	9
449.670	1	9
450.011	1	11
450.352	1	15
450.693	1	14
451.034	1	10
451.375	1	7
451.716	1	8
452.057	1	12
452.398	1	3
452.739	1	13
453.080	1	15
453.421	1	4
453.762	1	14
454.103	1	5
454.444	1	16
454.785	1	-5
455.126	1	2
455.467	1	14
455.808	1	0
456.149	1	7
456.490	1	9
456.831	1	21
457.172	1	5
457.513	1	14
457.854	1	-3
458.195	1	0
458.536	1	11
458.877	1	11
459.218	1	12
459.559	1	5
459.899	1	19
460.240	1	8
460.581	1	13
460.922	1	5
461.263	1	13
461.604	1	10
461.945	1	8
462.286	1	16
462.627	1	12
462.968	1	2
463.309	1	4
463.649	1	17
463.990	1	15
464.331	1	3
464.672	1	2
465.013	1	8
465.354	1	7
465.695	1	6
466.036	1	0
466.376	1	0
466.717	1	13
467.058	1	9
467.399	1	7
467.740	1	-1
468.081	1	0
468.422	1	15
468.762	1	4
469.103	1	6
469.444	1	16
469.785	1	13
470.126	1	9
470.467	1	-2
470.807	1	8
471.148	1	14
471.489	1	8
471.830	1	22
472.171	1	12
472.511	1	20
472.852	1	-3
473.193	1	7
473.534	1	8
473.875	1	17
474.215	1	5
474.556	1	1
474.897	1	5
475.238	1	-2
475.578	1	5
475.919	1	15
476.260	1	7
476.601	1	2
476.942	1	7
477.282	1	-1
477.623	1	7
477.964	1	15
478.305	1	3
478.645	1	7
478.986	1	12
479.327	1	-2
479.667	1	8
480.008	1	18
480.349	1	5
480.690	1	7
481.030	1	6
481.371	1	5
481.712	1	11
482.053	1	9
482.393	1	-2
482.734	1	13
483.075	1	6
483.415	1	15
483.756	1	17
484.097	1	2
484.437	1	1
484.778	1	8
485.119	1	14
485.459	1	8
485.800	1	4
486.141	1	10
486.481	1	12
486.822	1	17
487.163	1	1
487.503	1	-6
487.844	1	12
488.185	1	2
488.525	1	9
488.866	1	18
489.207	1	21
489.547	1	20
489.888	1	16
490.228	1	7
490.569	1	23
490.910	1	5
491.250	1	10
491.591	1	15
491.932	1	16
492.272	1	17
492.613	1	16
492.953	1	18
493.294	1	20
493.635	1	8
493.975	1	7
494.316	1	16
494.656	1	20
494.997	1	15
495.337	1	26
495.678	1	23
496.019	1	10
496.359	1	15
496.700	1	7
497.040	1	15
497.381	1	-1
497.721	1	12
498.062	1	14
498.403	1	8
498.743	1	26
499.084	1	8
499.424	1	18
499.765	1	17
500.105	1	16
500.446	1	21
500.786	1	19
501.127	1	23
501.467	1	25
501.808	1	2
502.148	1	20
502.489	1	23
502.829	1	28
503.170	1	23
503.510	1	19
503.851	1	6
504.191	1	22
504.532	1	19
504.872	1	13
505.213	1	17
505.553	1	30
505.894	1	22
506.234	1	31
506.575	1	26
506.915	1	32
507.256	1	23
507.596	1	31
507.936	1	26
508.277	1	28
508.617	1	33
508.958	1	30
509.298	1	41
509.639	1	35
509.979	1	25
510.319	1	28
510.660	1	32
511.000	1	33
511.341	1	19
511.681	1	35
512.022	1	23
512.362	1	28
512.702	1	24
513.043	1	43
513.383	1	22
513.724	1	39
514.064	1	29
514.404	1	21
514.745	1	20
515.085	1	23
515.425	1	34
515.766	1	34
516.106	1	28
516.447	1	34
516.787	1	34
517.127	1	37
517.468	1	24
517.808	1	38
518.148	1	28
518.489	1	32
518.829	1	32
519.169	1	46
519.510	1	43
519.850	1	39
520.190	1	37
520.531	1	41
520.871	1	43
521.211	1	46
521.552	1	39
521.892	1	34
522.232	1	39
522.573	1	43
522.913	1	46
523.253	1	36
523.593	1	30
523.934	1	49
524.274	1	42
524.614	1	45
524.955	1	29
525.295	1	43
525.635	1	43
525.975	1	31
526.316	1	37
526.656	1	53
526.996	1	46
527.337	1	43
527.677	1	46
528.017	1	34
528.357	1	45
528.698	1	36
529.038	1	46
529.378	1	43
529.718	1	53
530.058	1	46
530.399	1	54
530.739	1	40
531.079	1	56
531.419	1	55
531.760	1	39
532.100	1	49
532.440	1	43
532.780	1	47
533.120	1	44
533.461	1	61
533.801	1	48
534.141	1	50
534.481	1	41
534.821	1	55
535.162	1	52
535.502	1	43
535.842	1	41
536.182	1	39
536.522	1	53
536.862	1	54
537.203	1	54
537.543	1	46
537.883	1	41
538.223	1	46
538.563	1	36
538.903	1	44
539.243	1	38
539.584	1	45
539.924	1	43
540.264	1	56
540.604	1	36
540.944	1	34
541.284	1	35
541.624	1	42
541.964	1	37
542.305	1	23
542.645	1	31
542.985	1	35
543.325	1	36
543.665	1	39
544.005	1	42
544.345	1	34
544.685	1	56
545.025	1	32
545.365	1	40
545.705	1	41
546.045	1	51
546.386	1	48
546.726	1	40
547.066	1	22
547.406	1	46
547.746	1	46
548.086	1	33
548.426	1	37
548.766	1	51
549.106	1	37
549.446	1	39
549.786	1	30
550.126	1	24
550.466	1	39
550.806	1	35
551.146	1	27
551.486	1	32
551.826	1	40
552.166	1	31
552.506	1	16
552.846	1	39
553.186	1	36
553.526	1	26
553.866	1	36
554.206	1	30
554.546	1	21
554.886	1	43
555.226	1	26
555.566	1	36
555.906	1	41
556.246	1	26
556.586	1	35
556.926	1	37
557.266	1	29
557.606	1	15
557.946	1	23
558.286	1	44
558.626	1	27
558.966	1	23
559.306	1	23
559.646	1	19
559.986	1	26
560.325	1	9
560.665	1	30
561.005	1	21
561.345	1	28
561.685	1	26
562.025	1	21
562.365	1	28
562.705	1	23
563.045	1	34
563.385	1	27
563.725	1	24
564.064	1	24
564.404	1	15
564.744	1	27
565.084	1	19
565.424	1	19
565.764	1	22
566.104	1	19
566.444	1	31
566.783	1	18
567.123	1	25
567.463	1	25
567.803	1	11
568.143	1	14
568.483	1	12
568.823	1	28
569.162	1	18
569.502	1	21
569.842	1	25
570.182	1	18
570.522	1	24
570.862	1	24
571.201	1	24
571.541	1	14
571.881	1	16
572.221	1	22
572.561	1	16
572.900	1	31
573.240	1	11
573.580	1	29
573.920	1	8
574.260	1	13
574.599	1	17
574.939	1	12
575.279	1	20
575.619	1	8
575.959	1	11
576.298	1	2
576.638	1	15
576.978	1	14
577.318	1	14
577.657	1	-1
577.997	1	10
578.337	1	5
578.677	1	16
579.016	1	19
579.356	1	14
579.696	1	18
580.036	1	5
580.375	1	14
580.715	1	17
581.055	1	17
581.394	1	16
581.734	1	16
582.074	1	10
582.414	1	20
582.753	1	11
583.093	1	9
583.433	1	11
583.772	1	19
584.112	1	13
584.452	1	19
584.791	1	9
585.131	1	9
585.471	1	20
585.811	1	2
586.150	1	17
586.490	1	6
586.830	1	13
587.169	1	13
587.509	1	10
587.849	1	22
588.188	1	9
588.528	1	10
588.867	1	22
589.207	1	2
589.547	1	7
589.886	1	6
590.226	1	19
590.566	1	19
590.905	1	15
591.245	1	5
591.585	1	10
591.924	1	9
592.264	1	6
592.603	1	9
592.943	1	8
593.283	1	18
593.622	1	6
593.962	1	15
594.301	1	18
594.641	1	8
594.981	1	4
595.320	1	13
595.660	1	13
595.999	1	9
596.339	1	14
596.678	1	11
597.018	1	15
597.358	1	11
597.697	1	6
598.037	1	12
598.376	1	20
598.716	1	-2
599.055	1	6
599.395	1	10
599.734	1	3
600.074	1	15
600.413	1	6
600.753	1	12
601.092	1	-4
601.432	1	7
601.771	1	20
602.111	1	-4
602.451	1	3
602.790	1	7
603.130	1	6
603.469	1	9
603.809	1	18
604.148	1	8
604.487	1	7
604.827	1	7
605.166	1	-1
605.506	1	17
605.845	1	8
606.185	1	9
606.524	1	2
606.864	1	4
607.203	1	21
607.543	1	-3
607.882	1	7
608.222	1	12
608.561	1	9
608.901	1	11
609.240	1	8
609.579	1	6
609.919	1	8
610.258	1	18
610.598	1	7
610.937	1	7
611.277	1	10
611.616	1	4
611.955	1	13
612.295	1	12
612.634	1	7
612.974	1	11
613.313	1	17
613.652	1	3
613.992	1	19
614.331	1	12
614.671	1	9
615.010	1	4
615.349	1	7
615.689	1	4
616.028	1	7
616.368	1	10
616.707	1	3
617.046	1	13
617.386	1	6
617.725	1	10
618.064	1	11
618.404	1	8
618.743	1	3
619.082	1	11
619.422	1	3
619.761	1	2
620.100	1	4
620.440	1	7
620.779	1	8
621.118	1	7
621.458	1	16
621.797	1	2
622.136	1	16
622.476	1	9
622.815	1	4
623.154	1	10
623.494	1	0
623.833	1	5
624.172	1	17
624.511	1	7
624.851	1	9
625.190	1	8
625.529	1	8
625.869	1	10
626.208	1	7
626.547	1	5
626.886	1	12
627.226	1	5
627.565	1	14
627.904	1	15
628.243	1	-3
628.583	1	9
628.922	1	11
629.261	1	8
629.600	1	12
629.940	1	7
630.279	1	3
630.618	1	7
630.957	1	6
631.297	1	3
631.636	1	9
631.975	1	7
632.314	1	15
632.653	1	-8
632.993	1	7
633.332	1	18
633.671	1	13
634.010	1	15
634.349	1	12
634.689	1	10
635.028	1	2
635.367	1	6
635.706	1	1
636.045	1	8
636.384	1	11
636.724	1	-2
637.063	1	10
637.402	1	14
637.741	1	16
638.080	1	3
638.419	1	14
638.759	1	16
639.098	1	10
639.437	1	-6
639.776	1	9
640.115	1	0
640.454	1	26
640.793	1	6
641.132	1	7
641.472	1	2
641.811	1	7
642.150	1	15
642.489	1	6
642.828	1	6
643.167	1	21
643.506	1	-2
643.845	1	9
644.184	1	10
644.524	1	-5
644.863	1	-8
645.202	1	10
645.541	1	-6
645.880	1	-2
646.219	1	6
646.558	1	1
646.897	1	5
647.236	1	10
647.575	1	9
647.914	1	7
648.253	1	11
648.592	1	5
648.931	1	18
649.270	1	16
649.610	1	18
649.949	1	4
650.288	1	0
650.627	1	12
650.966	1	0
651.305	1	-1
651.644	1	9
651.983	1	9
652.322	1	10
652.661	1	7
653.000	1	3
653.339	1	14
653.678	1	7
654.017	1	-1
654.356	1	18
654.695	1	6
655.034	1	13
655.373	1	8
655.712	1	12
656.051	1	13
656.390	1	4
656.729	1	9
657.068	1	4
657.406	1	6
657.745	1	2
658.084	1	7
658.423	1	-2
658.762	1	-2
659.101	1	1
659.440	1	13
659.779	1	-2
660.118	1	16
660.457	1	-3
660.796	1	3
661.135	1	1
661.474	1	1
661.813	1	9
662.152	1	6
662.491	1	2
662.829	1	4
663.168	1	-4
663.507	1	4
663.846	1	14
664.185	1	4
664.524	1	-5
664.863	1	8
665.202	1	-4
665.541	1	0
665.879	1	3
666.218	1	3
666.557	1	2
666.896	1	5
667.235	1	4
667.574	1	11
667.913	1	-1
668.251	1	7
668.590	1	3
668.929	1	2
669.268	1	2
669.607	1	-6
669.946	1	9
670.285	1	4
670.623	1	13
670.962	1	3
671.301	1	3
671.640	1	-9
671.979	1	19
672.317	1	0
672.656	1	5
672.995	1	5
673.334	1	5
673.673	1	17
674.011	1	7
674.350	1	4
674.689	1	2
675.028	1	6
675.367	1	11
675.705	1	-6
676.044	1	-3
676.383	1	-2
676.722	1	2
677.060	1	6
677.399	1	3
677.738	1	7
678.077	1	6
678.416	1	0
678.754	1	-2
679.093	1	7
679.432	1	12
679.771	1	8
680.109	1	16
680.448	1	6
680.787	1	2
681.125	1	7
681.464	1	-2
681.803	1	-5
682.142	1	15
682.480	1	-3
682.819	1	7
683.158	1	10
683.496	1	1
683.835	1	16
684.174	1	8
684.512	1	3
684.851	1	2
685.190	1	14
685.529	1	11
685.867	1	1
686.206	1	2
686.545	1	13
686.883	1	2
687.222	1	8
687.561	1	1
687.899	1	16
688.238	1	9
688.577	1	3
688.746	1	9