File: Analysis/GaN_68K_200ms/GaN_sample E_spot4_UVVIS_68 K_200um_200 ms 2x2mm1_724.txt
340.368	1	-3
340.710	1	-6
341.052	1	1
341.394	1	2
341.737	1	4
342.079	1	-6
342.421	1	-7
342.763	1	-10
343.105	1	8
343.447	1	2
343.789	1	-1
344.131	1	0
344.473	1	-1
344.815	1	6
345.157	1	-7
345.499	1	0
345.841	1	4
346.183	1	3
346.526	1	6
346.868	1	-4
347.210	1	2
347.552	1	5
347.894	1	0
348.236	1	-6
348.578	1	10
348.920	1	12
349.262	1	-5
349.604	1	11
349.946	1	9
350.288	1	0
350.630	1	-10
350.972	1	-5
351.314	1	5
351.656	1	4
351.998	1	-2
352.340	1	-1
352.682	1	-5
353.024	1	-7
353.366	1	-4
353.708	1	10
354.050	1	0
354.392	1	9
354.734	1	-7
355.076	1	-3
355.418	1	6
355.760	1	3
356.102	1	-3
356.444	1	8
356.785	1	9
357.127	1	5
357.469	1	0
357.811	1	9
358.153	1	-4
358.495	1	9
358.837	1	5
359.179	1	3
359.521	1	-9
359.863	1	-5
360.205	1	-8
360.547	1	-4
360.889	1	-4
361.231	1	3
361.572	1	-5
361.914	1	-3
362.256	1	8
362.598	1	1
362.940	1	-3
363.282	1	-1
363.624	1	2
363.966	1	5
364.308	1	5
364.649	1	8
364.991	1	7
365.333	1	5
365.675	1	-13
366.017	1	6
366.359	1	-10
366.701	1	-10
367.042	1	-3
367.384	1	9
367.726	1	6
368.068	1	-2
368.410	1	-9
368.752	1	-13
369.093	1	0
369.435	1	4
369.777	1	-6
370.119	1	5
370.461	1	-1
370.803	1	-4
371.144	1	13
371.486	1	0
371.828	1	-1
372.170	1	12
372.512	1	-6
372.853	1	7
373.195	1	-5
373.537	1	4
373.879	1	5
374.220	1	2
374.562	1	-2
374.904	1	3
375.246	1	7
375.588	1	-1
375.929	1	-2
376.271	1	0
376.613	1	2
376.955	1	-18
377.296	1	2
377.638	1	-8
377.980	1	1
378.321	1	2
378.663	1	-2
379.005	1	9
379.347	1	5
379.688	1	3
380.030	1	-5
380.372	1	2
380.714	1	4
381.055	1	1
381.397	1	-9
381.739	1	0
382.080	1	-11
382.422	1	11
382.764	1	-2
383.105	1	5
383.447	1	6
383.789	1	1
384.130	1	-6
384.472	1	-5
384.814	1	-2
385.156	1	15
385.497	1	3
385.839	1	0
386.180	1	-2
386.522	1	11
386.864	1	0
387.205	1	-5
387.547	1	-3
387.889	1	20
388.230	1	6
388.572	1	-4
388.914	1	12
389.255	1	0
389.597	1	3
389.939	1	12
390.280	1	13
390.622	1	1
390.963	1	1
391.305	1	8
391.647	1	6
391.988	1	-1
392.330	1	8
392.671	1	11
393.013	1	8
393.355	1	12
393.696	1	2
394.038	1	7
394.379	1	-7
394.721	1	3
395.062	1	-4
395.404	1	6
395.746	1	-7
396.087	1	-5
396.429	1	6
396.770	1	11
397.112	1	-7
397.453	1	-6
397.795	1	3
398.136	1	3
398.478	1	-4
398.819	1	-1
399.161	1	3
399.503	1	9
399.844	1	8
400.186	1	10
400.527	1	-3
400.869	1	10
401.210	1	-6
401.552	1	16
401.893	1	-2
402.235	1	2
402.576	1	16
402.918	1	1
403.259	1	-2
403.601	1	-9
403.942	1	11
404.284	1	-4
404.625	1	2
404.967	1	5
405.308	1	0
405.649	1	-2
405.991	1	13
406.332	1	4
406.674	1	4
407.015	1	-3
407.357	1	6
407.698	1	-6
408.040	1	-2
408.381	1	-3
408.722	1	-1
409.064	1	6
409.405	1	0
409.747	1	2
410.088	1	5
410.430	1	7
410.771	1	-6
411.112	1	-2
411.454	1	10
411.795	1	3
412.137	1	14
412.478	1	2
412.819	1	-7
413.161	1	-7
413.502	1	-6
413.844	1	0
414.185	1	5
414.526	1	-11
414.868	1	12
415.209	1	2
415.550	1	-6
415.892	1	-3
416.233	1	2
416.575	1	-12
416.916	1	-9
417.257	1	6
417.599	1	-5
417.940	1	0
418.281	1	-1
418.623	1	5
418.964	1	4
419.305	1	-1
419.647	1	6
419.988	1	-6
420.329	1	-1
420.671	1	3
421.012	1	12
421.353	1	1
421.695	1	1
422.036	1	-1
422.377	1	-3
422.718	1	4
423.060	1	-14
423.401	1	-1
423.742	1	-4
424.084	1	5
424.425	1	3
424.766	1	0
425.107	1	2
425.449	1	2
425.790	1	1
426.131	1	-8
426.472	1	-8
426.814	1	10
427.155	1	-2
427.496	1	9
427.837	1	-3
428.179	1	-7
428.520	1	-3
428.861	1	1
429.202	1	8
429.544	1	1
429.885	1	-1
430.226	1	-5
430.567	1	8
430.909	1	-9
431.250	1	-2
431.591	1	-2
431.932	1	0
432.273	1	-7
432.615	1	4
432.956	1	-3
433.297	1	10
433.638	1	-3
433.979	1	2
434.320	1	-4
434.662	1	-7
435.003	1	8
435.344	1	7
435.685	1	12
436.026	1	3
436.368	1	-1
436.709	1	-15
437.050	1	6
437.391	1	2
437.732	1	-1
438.073	1	-2
438.414	1	4
438.756	1	2
439.097	1	13
439.438	1	3
439.779	1	-3
440.120	1	-7
440.461	1	-2
440.802	1	-3
441.143	1	1
441.485	1	-15
441.826	1	-13
442.167	1	-3
442.508	1	4
442.849	1	12
443.190	1	-6
443.531	1	-2
443.872	1	3
444.213	1	-1
444.554	1	-10
444.895	1	-3
445.237	1	-5
445.578	1	7
445.919	1	-3
446.260	1	9
446.601	1	-6
446.942	1	-2
447.283	1	-7
447.624	1	8
447.965	1	-8
448.306	1	0
448.647	1	15
448.988	1	-6
449.329	1	1
449.670	1	5
450.011	1	-3
450.352	1	7
450.693	1	7
451.034	1	4
451.375	1	17
451.716	1	10
452.057	1	7
452.398	1	11
452.739	1	3
453.080	1	12
453.421	1	-1
453.762	1	6
454.103	1	-1
454.444	1	4
454.785	1	2
455.126	1	-1
455.467	1	10
455.808	1	2
456.149	1	-4
456.490	1	-2
456.831	1	6
457.172	1	-1
457.513	1	13
457.854	1	3
458.195	1	-2
458.536	1	7
458.877	1	-3
459.218	1	7
459.559	1	1
459.899	1	12
460.240	1	-4
460.581	1	8
460.922	1	-4
461.263	1	0
461.604	1	-7
461.945	1	9
462.286	1	0
462.627	1	2
462.968	1	-9
463.309	1	2
463.649	1	-2
463.990	1	-1
464.331	1	1
464.672	1	0
465.013	1	-9
465.354	1	1
465.695	1	4
466.036	1	3
466.376	1	2
466.717	1	1
467.058	1	3
467.399	1	2
467.740	1	-6
468.081	1	4
468.422	1	-1
468.762	1	-7
469.103	1	3
469.444	1	-15
469.785	1	4
470.126	1	6
470.467	1	-6
470.807	1	-6
471.148	1	-6
471.489	1	-6
471.830	1	14
472.171	1	1
472.511	1	18
472.852	1	-6
473.193	1	0
473.534	1	-4
473.875	1	4
474.215	1	-7
474.556	1	-6
474.897	1	-2
475.238	1	6
475.578	1	-3
475.919	1	8
476.260	1	4
476.601	1	-1
476.942	1	0
477.282	1	-12
477.623	1	-1
477.964	1	12
478.305	1	1
478.645	1	-5
478.986	1	3
479.327	1	-8
479.667	1	2
480.008	1	4
480.349	1	0
480.690	1	-4
481.030	1	-9
481.371	1	1
481.712	1	9
482.053	1	3
482.393	1	-17
482.734	1	-4
483.075	1	10
483.415	1	9
483.756	1	11
484.097	1	-1
484.437	1	-10
484.778	1	6
485.119	1	8
485.459	1	2
485.800	1	-8
486.141	1	-2
486.481	1	0
486.822	1	3
487.163	1	0
487.503	1	-14
487.844	1	8
488.185	1	-5
488.525	1	-6
488.866	1	1
489.207	1	15
489.547	1	-1
489.888	1	-2
490.228	1	3
490.569	1	10
490.910	1	-9
491.250	1	-2
491.591	1	-7
491.932	1	-4
492.272	1	4
492.613	1	-5
492.953	1	3
493.294	1	9
493.635	1	-4
493.975	1	5
494.316	1	8
494.656	1	1
494.997	1	-9
495.337	1	2
495.678	1	4
496.019	1	-1
496.359	1	1
496.700	1	-2
497.040	1	-4
497.381	1	-11
497.721	1	-2
498.062	1	-2
498.403	1	10
498.743	1	0
499.084	1	4
499.424	1	9
499.765	1	2
500.105	1	9
500.446	1	10
500.786	1	4
501.127	1	8
501.467	1	4
501.808	1	-9
502.148	1	-6
502.489	1	9
502.829	1	-7
503.170	1	5
503.510	1	11
503.851	1	-16
504.191	1	-1
504.532	1	-5
504.872	1	-10
505.213	1	-1
505.553	1	5
505.894	1	-2
506.234	1	8
506.575	1	4
506.915	1	-4
507.256	1	-9
507.596	1	3
507.936	1	8
508.277	1	-4
508.617	1	2
508.958	1	7
509.298	1	11
509.639	1	3
509.979	1	3
510.319	1	-5
510.660	1	3
511.000	1	0
511.341	1	-1
511.681	1	4
512.022	1	-10
512.362	1	-8
512.702	1	-16
513.043	1	-4
513.383	1	-6
513.724	1	6
514.064	1	1
514.404	1	5
514.745	1	-8
515.085	1	-5
515.425	1	-3
515.766	1	-2
516.106	1	-6
516.447	1	2
516.787	1	-4
517.127	1	0
517.468	1	-8
517.808	1	-3
518.148	1	1
518.489	1	7
518.829	1	-11
519.169	1	7
519.510	1	1
519.850	1	-2
520.190	1	-2
520.531	1	4
520.871	1	7
521.211	1	-2
521.552	1	8
521.892	1	-12
522.232	1	-9
522.573	1	3
522.913	1	7
523.253	1	4
523.593	1	-24
523.934	1	1
524.274	1	-5
524.614	1	-3
524.955	1	5
525.295	1	-6
525.635	1	8
525.975	1	-2
526.316	1	-5
526.656	1	25
526.996	1	8
527.337	1	-6
527.677	1	10
528.017	1	-5
528.357	1	12
528.698	1	-8
529.038	1	10
529.378	1	-1
529.718	1	3
530.058	1	-5
530.399	1	5
530.739	1	-2
531.079	1	8
531.419	1	3
531.760	1	0
532.100	1	7
532.440	1	-7
532.780	1	-1
533.120	1	-3
533.461	1	10
533.801	1	3
534.141	1	10
534.481	1	0
534.821	1	8
535.162	1	-3
535.502	1	1
535.842	1	-5
536.182	1	4
536.522	1	0
536.862	1	9
537.203	1	10
537.543	1	7
537.883	1	9
538.223	1	2
538.563	1	-8
538.903	1	1
539.243	1	-5
539.584	1	4
539.924	1	7
540.264	1	7
540.604	1	11
540.944	1	-5
541.284	1	2
541.624	1	3
541.964	1	3
542.305	1	-11
542.645	1	0
542.985	1	0
543.325	1	-9
543.665	1	6
544.005	1	-5
544.345	1	-2
544.685	1	11
545.025	1	-7
545.365	1	-2
545.705	1	8
546.045	1	10
546.386	1	-3
546.726	1	3
547.066	1	-6
547.406	1	15
547.746	1	12
548.086	1	0
548.426	1	-10
548.766	1	11
549.106	1	5
549.446	1	-7
549.786	1	1
550.126	1	0
550.466	1	-6
550.806	1	5
551.146	1	-5
551.486	1	1
551.826	1	9
552.166	1	-3
552.506	1	-9
552.846	1	-1
553.186	1	2
553.526	1	5
553.866	1	-4
554.206	1	0
554.546	1	-7
554.886	1	0
555.226	1	-15
555.566	1	3
555.906	1	1
556.246	1	2
556.586	1	10
556.926	1	8
557.266	1	-3
557.606	1	-15
557.946	1	12
558.286	1	7
558.626	1	1
558.966	1	4
559.306	1	-14
559.646	1	-1
559.986	1	-6
560.325	1	-12
560.665	1	-1
561.005	1	0
561.345	1	4
561.685	1	2
562.025	1	4
562.365	1	-8
562.705	1	3
563.045	1	-3
563.385	1	-8
563.725	1	-1
564.064	1	11
564.404	1	-1
564.744	1	7
565.084	1	-1
565.424	1	-2
565.764	1	11
566.104	1	1
566.444	1	1
566.783	1	1
567.123	1	11
567.463	1	-2
567.803	1	-9
568.143	1	-7
568.483	1	-22
568.823	1	6
569.162	1	5
569.502	1	-2
569.842	1	-6
570.182	1	-6
570.522	1	10
570.862	1	3
571.201	1	7
571.541	1	-9
571.881	1	-6
572.221	1	8
572.561	1	-11
572.900	1	12
573.240	1	2
573.580	1	5
573.920	1	-4
574.260	1	-5
574.599	1	1
574.939	1	-2
575.279	1	-2
575.619	1	-1
575.959	1	6
576.298	1	-2
576.638	1	4
576.978	1	3
577.318	1	10
577.657	1	-13
577.997	1	-5
578.337	1	-5
578.677	1	3
579.016	1	10
579.356	1	-4
579.696	1	13
580.036	1	-2
580.375	1	-7
580.715	1	10
581.055	1	15
581.394	1	0
581.734	1	1
582.074	1	-4
582.414	1	-2
582.753	1	4
583.093	1	-6
583.433	1	-4
583.772	1	-3
584.112	1	1
584.452	1	5
584.791	1	-5
585.131	1	-8
585.471	1	0
585.811	1	-6
586.150	1	-1
586.490	1	-1
586.830	1	-4
587.169	1	-6
587.509	1	-3
587.849	1	5
588.188	1	-1
588.528	1	3
588.867	1	11
589.207	1	-11
589.547	1	-6
589.886	1	-3
590.226	1	-3
590.566	1	-8
590.905	1	4
591.245	1	-2
591.585	1	-8
591.924	1	-3
592.264	1	4
592.603	1	-4
592.943	1	-3
593.283	1	10
593.622	1	-6
593.962	1	8
594.301	1	-1
594.641	1	-2
594.981	1	2
595.320	1	-1
595.660	1	-6
595.999	1	2
596.339	1	2
596.678	1	-5
597.018	1	-4
597.358	1	0
597.697	1	-8
598.037	1	7
598.376	1	14
598.716	1	-11
599.055	1	6
599.395	1	10
599.734	1	2
600.074	1	-8
600.413	1	-4
600.753	1	-1
601.092	1	-10
601.432	1	0
601.771	1	8
602.111	1	-6
602.451	1	0
602.790	1	-10
603.130	1	1
603.469	1	-1
603.809	1	3
604.148	1	0
604.487	1	2
604.827	1	-15
605.166	1	3
605.506	1	9
605.845	1	-1
606.185	1	-1
606.524	1	7
606.864	1	7
607.203	1	8
607.543	1	-2
607.882	1	-1
608.222	1	2
608.561	1	4
608.901	1	5
609.240	1	6
609.579	1	-2
609.919	1	-12
610.258	1	5
610.598	1	1
610.937	1	3
611.277	1	-1
611.616	1	-7
611.955	1	2
612.295	1	0
612.634	1	-5
612.974	1	7
613.313	1	4
613.652	1	-5
613.992	1	2
614.331	1	2
614.671	1	10
615.010	1	-14
615.349	1	1
615.689	1	4
616.028	1	-2
616.368	1	-1
616.707	1	-2
617.046	1	-1
617.386	1	-6
617.725	1	8
618.064	1	1
618.404	1	9
618.743	1	-2
619.082	1	11
619.422	1	5
619.761	1	-3
620.100	1	6
620.440	1	3
620.779	1	-7
621.118	1	-7
621.458	1	9
621.797	1	1
622.136	1	9
622.476	1	2
622.815	1	-2
623.154	1	8
623.494	1	1
623.833	1	-7
624.172	1	3
624.511	1	-3
624.851	1	-11
625.190	1	-7
625.529	1	4
625.869	1	6
626.208	1	0
626.547	1	-2
626.886	1	2
627.226	1	7
627.565	1	12
627.904	1	-1
628.243	1	-4
628.583	1	-2
628.922	1	-5
629.261	1	7
629.600	1	11
629.940	1	2
630.279	1	-2
630.618	1	0
630.957	1	-3
631.297	1	-7
631.636	1	2
631.975	1	6
632.314	1	11
632.653	1	-18
632.993	1	8
633.332	1	4
633.671	1	-3
634.010	1	-12
634.349	1	3
634.689	1	0
635.028	1	-3
635.367	1	3
635.706	1	-2
636.045	1	-6
636.384	1	12
636.724	1	2
637.063	1	-1
637.402	1	4
637.741	1	8
638.080	1	-4
638.419	1	3
638.759	1	8
639.098	1	-6
639.437	1	-9
639.776	1	-8
640.115	1	-9
640.454	1	6
640.793	1	3
641.132	1	4
641.472	1	-9
641.811	1	-3
642.150	1	-11
642.489	1	-1
642.828	1	3
643.167	1	9
643.506	1	-12
643.845	1	3
644.184	1	3
644.524	1	-2
644.863	1	-6
645.202	1	-6
645.541	1	-15
645.880	1	0
646.219	1	-4
646.558	1	-6
646.897	1	-10
647.236	1	1
647.575	1	-8
647.914	1	-8
648.253	1	0
648.592	1	-10
648.931	1	7
649.270	1	13
649.610	1	3
649.949	1	1
650.288	1	-3
650.627	1	1
650.966	1	4
651.305	1	-10
651.644	1	1
651.983	1	-1
652.322	1	6
652.661	1	-6
653.000	1	-1
653.339	1	11
653.678	1	-3
654.017	1	9
654.356	1	4
654.695	1	3
655.034	1	-6
655.373	1	-1
655.712	1	-6
656.051	1	11
656.390	1	-3
656.729	1	-5
657.068	1	2
657.406	1	4
657.745	1	-1
658.084	1	12
658.423	1	-10
658.762	1	-19
659.101	1	-4
659.440	1	9
659.779	1	-2
660.118	1	5
660.457	1	-1
660.796	1	-13
661.135	1	1
661.474	1	-1
661.813	1	-3
662.152	1	-11
662.491	1	-9
662.829	1	1
663.168	1	-9
663.507	1	-7
663.846	1	6
664.185	1	-8
664.524	1	-10
664.863	1	-5
665.202	1	-12
665.541	1	0
665.879	1	0
666.218	1	-7
666.557	1	-1
666.896	1	-1
667.235	1	-4
667.574	1	2
667.913	1	-1
668.251	1	-3
668.590	1	-4
668.929	1	2
669.268	1	0
669.607	1	-9
669.946	1	4
670.285	1	1
670.623	1	7
670.962	1	1
671.301	1	-7
671.640	1	-13
671.979	1	2
672.317	1	4
672.656	1	2
672.995	1	9
673.334	1	-2
673.673	1	16
674.011	1	2
674.350	1	-4
674.689	1	4
675.028	1	1
675.367	1	13
675.705	1	-14
676.044	1	-16
676.383	1	3
676.722	1	-4
677.060	1	6
677.399	1	-6
677.738	1	1
678.077	1	-3
678.416	1	2
678.754	1	-1
679.093	1	-3
679.432	1	0
679.771	1	3
680.109	1	5
680.448	1	1
680.787	1	0
681.125	1	4
681.464	1	6
681.803	1	-6
682.142	1	7
682.480	1	-3
682.819	1	-1
683.158	1	-4
683.496	1	-5
683.835	1	6
684.174	1	0
684.512	1	-1
684.851	1	4
685.190	1	2
685.529	1	2
685.867	1	7
686.206	1	-2
686.545	1	7
686.883	1	-5
687.222	1	-9
687.561	1	-4
687.899	1	-7
688.238	1	-5
688.577	1	-4
688.746	1	5