File: Analysis/GaN_68K_200ms/GaN_sample E_spot4_UVVIS_68 K_200um_200 ms 2x2mm1_55.txt
340.368	1	-1
340.710	1	-3
341.052	1	-1
341.394	1	0
341.737	1	5
342.079	1	-2
342.421	1	3
342.763	1	-5
343.105	1	18
343.447	1	8
343.789	1	-3
344.131	1	-2
344.473	1	-5
344.815	1	1
345.157	1	2
345.499	1	6
345.841	1	4
346.183	1	-3
346.526	1	2
346.868	1	6
347.210	1	6
347.552	1	2
347.894	1	6
348.236	1	6
348.578	1	0
348.920	1	4
349.262	1	-1
349.604	1	11
349.946	1	1
350.288	1	0
350.630	1	-6
350.972	1	0
351.314	1	2
351.656	1	14
351.998	1	-8
352.340	1	-4
352.682	1	7
353.024	1	-6
353.366	1	8
353.708	1	10
354.050	1	1
354.392	1	3
354.734	1	-8
355.076	1	3
355.418	1	-1
355.760	1	2
356.102	1	-3
356.444	1	5
356.785	1	8
357.127	1	-4
357.469	1	4
357.811	1	16
358.153	1	-2
358.495	1	13
358.837	1	8
359.179	1	11
359.521	1	-1
359.863	1	-6
360.205	1	-6
360.547	1	5
360.889	1	2
361.231	1	4
361.572	1	-1
361.914	1	-6
362.256	1	1
362.598	1	9
362.940	1	0
363.282	1	1
363.624	1	1
363.966	1	0
364.308	1	1
364.649	1	-1
364.991	1	5
365.333	1	4
365.675	1	-6
366.017	1	-2
366.359	1	11
366.701	1	-10
367.042	1	10
367.384	1	2
367.726	1	12
368.068	1	-5
368.410	1	11
368.752	1	-4
369.093	1	3
369.435	1	-1
369.777	1	-9
370.119	1	5
370.461	1	2
370.803	1	-6
371.144	1	6
371.486	1	7
371.828	1	6
372.170	1	10
372.512	1	0
372.853	1	5
373.195	1	-6
373.537	1	1
373.879	1	7
374.220	1	-2
374.562	1	2
374.904	1	5
375.246	1	-1
375.588	1	8
375.929	1	0
376.271	1	4
376.613	1	6
376.955	1	1
377.296	1	6
377.638	1	0
377.980	1	0
378.321	1	5
378.663	1	0
379.005	1	6
379.347	1	6
379.688	1	1
380.030	1	-5
380.372	1	10
380.714	1	6
381.055	1	-4
381.397	1	2
381.739	1	11
382.080	1	-13
382.422	1	22
382.764	1	1
383.105	1	3
383.447	1	12
383.789	1	1
384.130	1	-9
384.472	1	-8
384.814	1	6
385.156	1	13
385.497	1	3
385.839	1	7
386.180	1	4
386.522	1	6
386.864	1	-1
387.205	1	7
387.547	1	5
387.889	1	5
388.230	1	0
388.572	1	2
388.914	1	2
389.255	1	6
389.597	1	-2
389.939	1	8
390.280	1	12
390.622	1	0
390.963	1	7
391.305	1	12
391.647	1	5
391.988	1	-2
392.330	1	1
392.671	1	4
393.013	1	0
393.355	1	12
393.696	1	-2
394.038	1	-4
394.379	1	-3
394.721	1	0
395.062	1	-13
395.404	1	0
395.746	1	-7
396.087	1	7
396.429	1	6
396.770	1	5
397.112	1	-5
397.453	1	-7
397.795	1	12
398.136	1	2
398.478	1	-1
398.819	1	6
399.161	1	4
399.503	1	-2
399.844	1	2
400.186	1	1
400.527	1	1
400.869	1	7
401.210	1	-11
401.552	1	23
401.893	1	3
402.235	1	9
402.576	1	11
402.918	1	-1
403.259	1	-4
403.601	1	-6
403.942	1	8
404.284	1	4
404.625	1	-1
404.967	1	1
405.308	1	-1
405.649	1	3
405.991	1	17
406.332	1	-1
406.674	1	6
407.015	1	-16
407.357	1	3
407.698	1	-13
408.040	1	-11
408.381	1	1
408.722	1	0
409.064	1	6
409.405	1	9
409.747	1	-5
410.088	1	14
410.430	1	6
410.771	1	2
411.112	1	6
411.454	1	14
411.795	1	4
412.137	1	3
412.478	1	3
412.819	1	-12
413.161	1	1
413.502	1	-9
413.844	1	5
414.185	1	10
414.526	1	4
414.868	1	2
415.209	1	2
415.550	1	-3
415.892	1	1
416.233	1	5
416.575	1	-1
416.916	1	3
417.257	1	-1
417.599	1	8
417.940	1	1
418.281	1	-5
418.623	1	-1
418.964	1	1
419.305	1	-4
419.647	1	18
419.988	1	-5
420.329	1	6
420.671	1	14
421.012	1	9
421.353	1	9
421.695	1	2
422.036	1	-6
422.377	1	0
422.718	1	-3
423.060	1	8
423.401	1	5
423.742	1	3
424.084	1	4
424.425	1	-1
424.766	1	14
425.107	1	2
425.449	1	7
425.790	1	-2
426.131	1	-1
426.472	1	3
426.814	1	11
427.155	1	-5
427.496	1	7
427.837	1	0
428.179	1	-10
428.520	1	-6
428.861	1	-1
429.202	1	12
429.544	1	4
429.885	1	1
430.226	1	-4
430.567	1	13
430.909	1	-7
431.250	1	-8
431.591	1	5
431.932	1	5
432.273	1	4
432.615	1	5
432.956	1	-5
433.297	1	5
433.638	1	1
433.979	1	0
434.320	1	4
434.662	1	1
435.003	1	11
435.344	1	0
435.685	1	17
436.026	1	-1
436.368	1	2
436.709	1	-11
437.050	1	4
437.391	1	6
437.732	1	5
438.073	1	8
438.414	1	1
438.756	1	9
439.097	1	6
439.438	1	3
439.779	1	0
440.120	1	-5
440.461	1	5
440.802	1	12
441.143	1	7
441.485	1	-3
441.826	1	-6
442.167	1	1
442.508	1	5
442.849	1	4
443.190	1	-9
443.531	1	-6
443.872	1	2
444.213	1	-13
444.554	1	2
444.895	1	5
445.237	1	-14
445.578	1	5
445.919	1	1
446.260	1	6
446.601	1	0
446.942	1	-2
447.283	1	6
447.624	1	9
447.965	1	-1
448.306	1	-5
448.647	1	15
448.988	1	-9
449.329	1	0
449.670	1	-2
450.011	1	1
450.352	1	3
450.693	1	16
451.034	1	13
451.375	1	4
451.716	1	9
452.057	1	7
452.398	1	0
452.739	1	4
453.080	1	18
453.421	1	-4
453.762	1	12
454.103	1	10
454.444	1	13
454.785	1	-11
455.126	1	3
455.467	1	5
455.808	1	4
456.149	1	-6
456.490	1	1
456.831	1	11
457.172	1	8
457.513	1	5
457.854	1	8
458.195	1	2
458.536	1	8
458.877	1	4
459.218	1	0
459.559	1	1
459.899	1	15
460.240	1	3
460.581	1	2
460.922	1	-2
461.263	1	6
461.604	1	-1
461.945	1	8
462.286	1	8
462.627	1	6
462.968	1	1
463.309	1	-4
463.649	1	-4
463.990	1	6
464.331	1	5
464.672	1	0
465.013	1	-4
465.354	1	3
465.695	1	11
466.036	1	9
466.376	1	-7
466.717	1	-6
467.058	1	4
467.399	1	12
467.740	1	1
468.081	1	2
468.422	1	8
468.762	1	-6
469.103	1	-5
469.444	1	-8
469.785	1	5
470.126	1	4
470.467	1	9
470.807	1	-3
471.148	1	-2
471.489	1	-1
471.830	1	13
472.171	1	7
472.511	1	11
472.852	1	-3
473.193	1	-8
473.534	1	1
473.875	1	11
474.215	1	-6
474.556	1	-9
474.897	1	2
475.238	1	3
475.578	1	5
475.919	1	-2
476.260	1	-7
476.601	1	6
476.942	1	7
477.282	1	-8
477.623	1	4
477.964	1	9
478.305	1	5
478.645	1	0
478.986	1	-2
479.327	1	-1
479.667	1	0
480.008	1	2
480.349	1	-2
480.690	1	6
481.030	1	6
481.371	1	-3
481.712	1	9
482.053	1	7
482.393	1	-18
482.734	1	-4
483.075	1	9
483.415	1	5
483.756	1	14
484.097	1	-8
484.437	1	-6
484.778	1	-1
485.119	1	11
485.459	1	15
485.800	1	-1
486.141	1	1
486.481	1	0
486.822	1	6
487.163	1	-9
487.503	1	-1
487.844	1	0
488.185	1	-4
488.525	1	-2
488.866	1	-1
489.207	1	15
489.547	1	-3
489.888	1	-2
490.228	1	0
490.569	1	9
490.910	1	-9
491.250	1	0
491.591	1	3
491.932	1	11
492.272	1	10
492.613	1	8
492.953	1	14
493.294	1	2
493.635	1	2
493.975	1	3
494.316	1	7
494.656	1	2
494.997	1	-5
495.337	1	4
495.678	1	10
496.019	1	4
496.359	1	3
496.700	1	6
497.040	1	-9
497.381	1	-16
497.721	1	4
498.062	1	-1
498.403	1	4
498.743	1	1
499.084	1	-8
499.424	1	12
499.765	1	-3
500.105	1	1
500.446	1	-2
500.786	1	9
501.127	1	14
501.467	1	8
501.808	1	-16
502.148	1	2
502.489	1	5
502.829	1	0
503.170	1	4
503.510	1	1
503.851	1	-14
504.191	1	12
504.532	1	3
504.872	1	-6
505.213	1	9
505.553	1	10
505.894	1	5
506.234	1	13
506.575	1	1
506.915	1	-2
507.256	1	-6
507.596	1	9
507.936	1	4
508.277	1	-1
508.617	1	10
508.958	1	7
509.298	1	14
509.639	1	11
509.979	1	-3
510.319	1	-3
510.660	1	-1
511.000	1	12
511.341	1	1
511.681	1	-7
512.022	1	-5
512.362	1	-3
512.702	1	-9
513.043	1	1
513.383	1	1
513.724	1	3
514.064	1	5
514.404	1	-3
514.745	1	-4
515.085	1	-2
515.425	1	-2
515.766	1	1
516.106	1	2
516.447	1	12
516.787	1	2
517.127	1	-7
517.468	1	-7
517.808	1	5
518.148	1	3
518.489	1	7
518.829	1	-11
519.169	1	6
519.510	1	0
519.850	1	-8
520.190	1	2
520.531	1	5
520.871	1	-5
521.211	1	-3
521.552	1	5
521.892	1	-2
522.232	1	-1
522.573	1	-2
522.913	1	4
523.253	1	-1
523.593	1	-8
523.934	1	-2
524.274	1	-5
524.614	1	2
524.955	1	-5
525.295	1	-5
525.635	1	10
525.975	1	-9
526.316	1	0
526.656	1	19
526.996	1	4
527.337	1	-6
527.677	1	15
528.017	1	-3
528.357	1	7
528.698	1	-1
529.038	1	2
529.378	1	5
529.718	1	2
530.058	1	3
530.399	1	6
530.739	1	1
531.079	1	6
531.419	1	10
531.760	1	9
532.100	1	-3
532.440	1	5
532.780	1	-3
533.120	1	-9
533.461	1	14
533.801	1	4
534.141	1	16
534.481	1	10
534.821	1	1
535.162	1	1
535.502	1	12
535.842	1	7
536.182	1	0
536.522	1	8
536.862	1	1
537.203	1	7
537.543	1	-5
537.883	1	6
538.223	1	13
538.563	1	-3
538.903	1	-6
539.243	1	1
539.584	1	-1
539.924	1	1
540.264	1	0
540.604	1	11
540.944	1	-11
541.284	1	-4
541.624	1	-6
541.964	1	3
542.305	1	-12
542.645	1	-5
542.985	1	-5
543.325	1	1
543.665	1	11
544.005	1	3
544.345	1	-4
544.685	1	4
545.025	1	-6
545.365	1	3
545.705	1	12
546.045	1	0
546.386	1	6
546.726	1	1
547.066	1	-7
547.406	1	7
547.746	1	2
548.086	1	5
548.426	1	-3
548.766	1	3
549.106	1	6
549.446	1	2
549.786	1	3
550.126	1	-2
550.466	1	-4
550.806	1	9
551.146	1	0
551.486	1	7
551.826	1	0
552.166	1	1
552.506	1	6
552.846	1	3
553.186	1	4
553.526	1	1
553.866	1	7
554.206	1	-5
554.546	1	-13
554.886	1	2
555.226	1	-10
555.566	1	5
555.906	1	0
556.246	1	-2
556.586	1	8
556.926	1	8
557.266	1	12
557.606	1	-6
557.946	1	10
558.286	1	8
558.626	1	5
558.966	1	1
559.306	1	0
559.646	1	2
559.986	1	-4
560.325	1	-6
560.665	1	13
561.005	1	1
561.345	1	0
561.685	1	-6
562.025	1	-4
562.365	1	1
562.705	1	8
563.045	1	7
563.385	1	1
563.725	1	0
564.064	1	5
564.404	1	-1
564.744	1	0
565.084	1	-10
565.424	1	3
565.764	1	10
566.104	1	-12
566.444	1	5
566.783	1	3
567.123	1	19
567.463	1	-3
567.803	1	-7
568.143	1	-10
568.483	1	3
568.823	1	2
569.162	1	6
569.502	1	0
569.842	1	1
570.182	1	-5
570.522	1	13
570.862	1	-2
571.201	1	9
571.541	1	-1
571.881	1	6
572.221	1	6
572.561	1	-3
572.900	1	18
573.240	1	-7
573.580	1	-3
573.920	1	1
574.260	1	-4
574.599	1	-3
574.939	1	0
575.279	1	7
575.619	1	-4
575.959	1	-4
576.298	1	-10
576.638	1	-2
576.978	1	1
577.318	1	4
577.657	1	-14
577.997	1	-4
578.337	1	-4
578.677	1	-5
579.016	1	12
579.356	1	-6
579.696	1	10
580.036	1	2
580.375	1	4
580.715	1	3
581.055	1	10
581.394	1	0
581.734	1	10
582.074	1	-1
582.414	1	2
582.753	1	10
583.093	1	-4
583.433	1	-8
583.772	1	10
584.112	1	5
584.452	1	5
584.791	1	4
585.131	1	-6
585.471	1	-2
585.811	1	-1
586.150	1	-6
586.490	1	-8
586.830	1	-4
587.169	1	4
587.509	1	4
587.849	1	6
588.188	1	-9
588.528	1	-3
588.867	1	4
589.207	1	1
589.547	1	5
589.886	1	-6
590.226	1	6
590.566	1	1
590.905	1	13
591.245	1	3
591.585	1	-6
591.924	1	5
592.264	1	4
592.603	1	-8
592.943	1	-8
593.283	1	7
593.622	1	-3
593.962	1	5
594.301	1	13
594.641	1	0
594.981	1	-3
595.320	1	8
595.660	1	-5
595.999	1	7
596.339	1	2
596.678	1	-9
597.018	1	-3
597.358	1	2
597.697	1	-2
598.037	1	7
598.376	1	-1
598.716	1	-9
599.055	1	6
599.395	1	10
599.734	1	-4
600.074	1	0
600.413	1	0
600.753	1	0
601.092	1	-6
601.432	1	-6
601.771	1	16
602.111	1	-5
602.451	1	3
602.790	1	8
603.130	1	8
603.469	1	-6
603.809	1	6
604.148	1	1
604.487	1	1
604.827	1	-10
605.166	1	8
605.506	1	8
605.845	1	3
606.185	1	0
606.524	1	-5
606.864	1	-3
607.203	1	6
607.543	1	-5
607.882	1	1
608.222	1	8
608.561	1	-2
608.901	1	13
609.240	1	-2
609.579	1	4
609.919	1	-2
610.258	1	15
610.598	1	1
610.937	1	0
611.277	1	6
611.616	1	-8
611.955	1	6
612.295	1	-2
612.634	1	-3
612.974	1	6
613.313	1	10
613.652	1	-10
613.992	1	2
614.331	1	11
614.671	1	8
615.010	1	5
615.349	1	1
615.689	1	6
616.028	1	-2
616.368	1	-5
616.707	1	6
617.046	1	1
617.386	1	-4
617.725	1	16
618.064	1	10
618.404	1	16
618.743	1	4
619.082	1	0
619.422	1	-4
619.761	1	7
620.100	1	9
620.440	1	4
620.779	1	-6
621.118	1	0
621.458	1	5
621.797	1	-3
622.136	1	7
622.476	1	1
622.815	1	-4
623.154	1	2
623.494	1	6
623.833	1	-1
624.172	1	8
624.511	1	4
624.851	1	-3
625.190	1	10
625.529	1	11
625.869	1	7
626.208	1	3
626.547	1	12
626.886	1	-4
627.226	1	3
627.565	1	3
627.904	1	8
628.243	1	0
628.583	1	1
628.922	1	-2
629.261	1	4
629.600	1	11
629.940	1	-1
630.279	1	0
630.618	1	6
630.957	1	-7
631.297	1	-1
631.636	1	1
631.975	1	8
632.314	1	4
632.653	1	-2
632.993	1	5
633.332	1	5
633.671	1	0
634.010	1	9
634.349	1	6
634.689	1	10
635.028	1	-3
635.367	1	-5
635.706	1	-8
636.045	1	5
636.384	1	11
636.724	1	2
637.063	1	5
637.402	1	0
637.741	1	8
638.080	1	0
638.419	1	7
638.759	1	6
639.098	1	4
639.437	1	-15
639.776	1	9
640.115	1	2
640.454	1	8
640.793	1	1
641.132	1	8
641.472	1	0
641.811	1	-1
642.150	1	-5
642.489	1	2
642.828	1	2
643.167	1	15
643.506	1	-10
643.845	1	0
644.184	1	11
644.524	1	-7
644.863	1	-5
645.202	1	7
645.541	1	-9
645.880	1	6
646.219	1	-2
646.558	1	0
646.897	1	-7
647.236	1	12
647.575	1	10
647.914	1	-2
648.253	1	9
648.592	1	-7
648.931	1	2
649.270	1	11
649.610	1	11
649.949	1	-1
650.288	1	4
650.627	1	-3
650.966	1	-10
651.305	1	-2
651.644	1	1
651.983	1	5
652.322	1	8
652.661	1	9
653.000	1	0
653.339	1	3
653.678	1	7
654.017	1	-6
654.356	1	5
654.695	1	12
655.034	1	-2
655.373	1	10
655.712	1	-5
656.051	1	2
656.390	1	-2
656.729	1	10
657.068	1	1
657.406	1	3
657.745	1	1
658.084	1	-3
658.423	1	-7
658.762	1	0
659.101	1	9
659.440	1	5
659.779	1	0
660.118	1	2
660.457	1	-1
660.796	1	2
661.135	1	-4
661.474	1	-2
661.813	1	4
662.152	1	6
662.491	1	0
662.829	1	-3
663.168	1	0
663.507	1	5
663.846	1	4
664.185	1	3
664.524	1	-5
664.863	1	-2
665.202	1	-5
665.541	1	-2
665.879	1	0
666.218	1	-14
666.557	1	5
666.896	1	5
667.235	1	4
667.574	1	-2
667.913	1	-4
668.251	1	0
668.590	1	-3
668.929	1	0
669.268	1	-3
669.607	1	-7
669.946	1	5
670.285	1	13
670.623	1	-2
670.962	1	-1
671.301	1	1
671.640	1	-4
671.979	1	12
672.317	1	0
672.656	1	5
672.995	1	7
673.334	1	-2
673.673	1	16
674.011	1	-2
674.350	1	-1
674.689	1	-1
675.028	1	6
675.367	1	5
675.705	1	-9
676.044	1	-3
676.383	1	-5
676.722	1	3
677.060	1	-5
677.399	1	4
677.738	1	-10
678.077	1	13
678.416	1	-3
678.754	1	5
679.093	1	3
679.432	1	1
679.771	1	-4
680.109	1	-2
680.448	1	1
680.787	1	3
681.125	1	8
681.464	1	-4
681.803	1	-10
682.142	1	3
682.480	1	5
682.819	1	-5
683.158	1	0
683.496	1	-3
683.835	1	5
684.174	1	1
684.512	1	1
684.851	1	3
685.190	1	1
685.529	1	1
685.867	1	2
686.206	1	12
686.545	1	5
686.883	1	-6
687.222	1	-2
687.561	1	1
687.899	1	2
688.238	1	3
688.577	1	-8
688.746	1	3