File: Analysis/GaN_68K_200ms/GaN_sample E_spot4_UVVIS_68 K_200um_200 ms 2x2mm1_142.txt
340.368	1	2
340.710	1	-6
341.052	1	6
341.394	1	4
341.737	1	22
342.079	1	-8
342.421	1	-12
342.763	1	-6
343.105	1	6
343.447	1	11
343.789	1	-1
344.131	1	-5
344.473	1	8
344.815	1	11
345.157	1	10
345.499	1	11
345.841	1	4
346.183	1	6
346.526	1	9
346.868	1	6
347.210	1	4
347.552	1	12
347.894	1	4
348.236	1	4
348.578	1	4
348.920	1	9
349.262	1	2
349.604	1	15
349.946	1	0
350.288	1	4
350.630	1	1
350.972	1	6
351.314	1	-1
351.656	1	8
351.998	1	-5
352.340	1	6
352.682	1	11
353.024	1	-6
353.366	1	10
353.708	1	11
354.050	1	16
354.392	1	17
354.734	1	4
355.076	1	6
355.418	1	3
355.760	1	10
356.102	1	0
356.444	1	10
356.785	1	21
357.127	1	13
357.469	1	16
357.811	1	28
358.153	1	17
358.495	1	22
358.837	1	20
359.179	1	23
359.521	1	16
359.863	1	11
360.205	1	19
360.547	1	18
360.889	1	25
361.231	1	24
361.572	1	28
361.914	1	33
362.256	1	35
362.598	1	43
362.940	1	44
363.282	1	52
363.624	1	51
363.966	1	56
364.308	1	65
364.649	1	70
364.991	1	79
365.333	1	86
365.675	1	84
366.017	1	99
366.359	1	91
366.701	1	78
367.042	1	109
367.384	1	102
367.726	1	110
368.068	1	88
368.410	1	89
368.752	1	84
369.093	1	89
369.435	1	85
369.777	1	87
370.119	1	82
370.461	1	63
370.803	1	63
371.144	1	72
371.486	1	68
371.828	1	61
372.170	1	67
372.512	1	42
372.853	1	50
373.195	1	47
373.537	1	39
373.879	1	52
374.220	1	54
374.562	1	45
374.904	1	44
375.246	1	46
375.588	1	44
375.929	1	36
376.271	1	40
376.613	1	34
376.955	1	22
377.296	1	34
377.638	1	32
377.980	1	43
378.321	1	37
378.663	1	29
379.005	1	41
379.347	1	22
379.688	1	38
380.030	1	38
380.372	1	34
380.714	1	37
381.055	1	35
381.397	1	29
381.739	1	36
382.080	1	31
382.422	1	57
382.764	1	51
383.105	1	60
383.447	1	69
383.789	1	67
384.130	1	63
384.472	1	63
384.814	1	90
385.156	1	110
385.497	1	110
385.839	1	120
386.180	1	109
386.522	1	108
386.864	1	91
387.205	1	105
387.547	1	102
387.889	1	117
388.230	1	115
388.572	1	110
388.914	1	113
389.255	1	111
389.597	1	100
389.939	1	105
390.280	1	110
390.622	1	100
390.963	1	105
391.305	1	96
391.647	1	104
391.988	1	94
392.330	1	94
392.671	1	92
393.013	1	105
393.355	1	101
393.696	1	89
394.038	1	77
394.379	1	80
394.721	1	86
395.062	1	83
395.404	1	104
395.746	1	86
396.087	1	101
396.429	1	92
396.770	1	98
397.112	1	91
397.453	1	93
397.795	1	118
398.136	1	109
398.478	1	95
398.819	1	99
399.161	1	101
399.503	1	92
399.844	1	90
400.186	1	110
400.527	1	100
400.869	1	98
401.210	1	79
401.552	1	80
401.893	1	75
402.235	1	83
402.576	1	86
402.918	1	59
403.259	1	73
403.601	1	63
403.942	1	78
404.284	1	61
404.625	1	72
404.967	1	72
405.308	1	70
405.649	1	66
405.991	1	77
406.332	1	59
406.674	1	68
407.015	1	56
407.357	1	61
407.698	1	55
408.040	1	52
408.381	1	55
408.722	1	50
409.064	1	58
409.405	1	59
409.747	1	59
410.088	1	58
410.430	1	63
410.771	1	70
411.112	1	44
411.454	1	58
411.795	1	60
412.137	1	59
412.478	1	61
412.819	1	52
413.161	1	54
413.502	1	42
413.844	1	51
414.185	1	54
414.526	1	49
414.868	1	53
415.209	1	44
415.550	1	36
415.892	1	42
416.233	1	43
416.575	1	42
416.916	1	47
417.257	1	41
417.599	1	46
417.940	1	33
418.281	1	44
418.623	1	34
418.964	1	41
419.305	1	43
419.647	1	50
419.988	1	34
420.329	1	43
420.671	1	41
421.012	1	55
421.353	1	37
421.695	1	37
422.036	1	37
422.377	1	31
422.718	1	30
423.060	1	37
423.401	1	38
423.742	1	32
424.084	1	32
424.425	1	31
424.766	1	29
425.107	1	35
425.449	1	30
425.790	1	19
426.131	1	32
426.472	1	25
426.814	1	34
427.155	1	28
427.496	1	39
427.837	1	16
428.179	1	28
428.520	1	29
428.861	1	36
429.202	1	25
429.544	1	30
429.885	1	23
430.226	1	12
430.567	1	32
430.909	1	14
431.250	1	11
431.591	1	24
431.932	1	27
432.273	1	16
432.615	1	26
432.956	1	20
433.297	1	25
433.638	1	14
433.979	1	15
434.320	1	27
434.662	1	14
435.003	1	22
435.344	1	28
435.685	1	21
436.026	1	21
436.368	1	13
436.709	1	5
437.050	1	17
437.391	1	16
437.732	1	24
438.073	1	24
438.414	1	24
438.756	1	25
439.097	1	19
439.438	1	20
439.779	1	12
440.120	1	23
440.461	1	7
440.802	1	27
441.143	1	25
441.485	1	14
441.826	1	4
442.167	1	16
442.508	1	11
442.849	1	13
443.190	1	9
443.531	1	9
443.872	1	15
444.213	1	0
444.554	1	15
444.895	1	10
445.237	1	9
445.578	1	18
445.919	1	18
446.260	1	13
446.601	1	14
446.942	1	21
447.283	1	11
447.624	1	23
447.965	1	9
448.306	1	17
448.647	1	24
448.988	1	9
449.329	1	12
449.670	1	22
450.011	1	13
450.352	1	21
450.693	1	24
451.034	1	18
451.375	1	17
451.716	1	11
452.057	1	15
452.398	1	14
452.739	1	15
453.080	1	31
453.421	1	13
453.762	1	13
454.103	1	14
454.444	1	27
454.785	1	8
455.126	1	8
455.467	1	23
455.808	1	14
456.149	1	2
456.490	1	13
456.831	1	17
457.172	1	8
457.513	1	17
457.854	1	9
458.195	1	9
458.536	1	10
458.877	1	7
459.218	1	9
459.559	1	9
459.899	1	24
460.240	1	17
460.581	1	18
460.922	1	13
461.263	1	19
461.604	1	15
461.945	1	17
462.286	1	21
462.627	1	6
462.968	1	6
463.309	1	4
463.649	1	10
463.990	1	13
464.331	1	14
464.672	1	1
465.013	1	4
465.354	1	13
465.695	1	11
466.036	1	17
466.376	1	5
466.717	1	2
467.058	1	20
467.399	1	13
467.740	1	2
468.081	1	10
468.422	1	7
468.762	1	6
469.103	1	2
469.444	1	0
469.785	1	12
470.126	1	13
470.467	1	3
470.807	1	13
471.148	1	8
471.489	1	5
471.830	1	15
472.171	1	3
472.511	1	13
472.852	1	7
473.193	1	3
473.534	1	1
473.875	1	18
474.215	1	11
474.556	1	2
474.897	1	6
475.238	1	7
475.578	1	9
475.919	1	14
476.260	1	5
476.601	1	13
476.942	1	5
477.282	1	-2
477.623	1	10
477.964	1	13
478.305	1	15
478.645	1	12
478.986	1	7
479.327	1	1
479.667	1	15
480.008	1	16
480.349	1	17
480.690	1	22
481.030	1	6
481.371	1	21
481.712	1	15
482.053	1	19
482.393	1	4
482.734	1	13
483.075	1	21
483.415	1	16
483.756	1	27
484.097	1	7
484.437	1	6
484.778	1	19
485.119	1	10
485.459	1	20
485.800	1	4
486.141	1	-11
486.481	1	8
486.822	1	20
487.163	1	6
487.503	1	0
487.844	1	5
488.185	1	5
488.525	1	5
488.866	1	24
489.207	1	21
489.547	1	15
489.888	1	8
490.228	1	7
490.569	1	23
490.910	1	13
491.250	1	18
491.591	1	6
491.932	1	19
492.272	1	30
492.613	1	16
492.953	1	20
493.294	1	20
493.635	1	19
493.975	1	12
494.316	1	18
494.656	1	23
494.997	1	20
495.337	1	26
495.678	1	31
496.019	1	19
496.359	1	26
496.700	1	19
497.040	1	22
497.381	1	0
497.721	1	23
498.062	1	23
498.403	1	24
498.743	1	25
499.084	1	15
499.424	1	30
499.765	1	20
500.105	1	29
500.446	1	31
500.786	1	35
501.127	1	30
501.467	1	40
501.808	1	9
502.148	1	37
502.489	1	38
502.829	1	31
503.170	1	39
503.510	1	25
503.851	1	16
504.191	1	41
504.532	1	28
504.872	1	34
505.213	1	41
505.553	1	33
505.894	1	45
506.234	1	51
506.575	1	41
506.915	1	35
507.256	1	38
507.596	1	45
507.936	1	56
508.277	1	39
508.617	1	53
508.958	1	54
509.298	1	57
509.639	1	54
509.979	1	40
510.319	1	44
510.660	1	64
511.000	1	60
511.341	1	41
511.681	1	48
512.022	1	38
512.362	1	54
512.702	1	45
513.043	1	49
513.383	1	46
513.724	1	52
514.064	1	56
514.404	1	52
514.745	1	48
515.085	1	54
515.425	1	54
515.766	1	59
516.106	1	61
516.447	1	64
516.787	1	52
517.127	1	57
517.468	1	60
517.808	1	60
518.148	1	64
518.489	1	60
518.829	1	55
519.169	1	62
519.510	1	65
519.850	1	72
520.190	1	65
520.531	1	64
520.871	1	65
521.211	1	63
521.552	1	69
521.892	1	52
522.232	1	49
522.573	1	70
522.913	1	61
523.253	1	74
523.593	1	52
523.934	1	71
524.274	1	62
524.614	1	56
524.955	1	54
525.295	1	65
525.635	1	73
525.975	1	55
526.316	1	69
526.656	1	80
526.996	1	79
527.337	1	63
527.677	1	79
528.017	1	55
528.357	1	78
528.698	1	65
529.038	1	73
529.378	1	71
529.718	1	68
530.058	1	76
530.399	1	76
530.739	1	68
531.079	1	80
531.419	1	74
531.760	1	75
532.100	1	81
532.440	1	80
532.780	1	73
533.120	1	76
533.461	1	82
533.801	1	74
534.141	1	72
534.481	1	77
534.821	1	78
535.162	1	74
535.502	1	66
535.842	1	71
536.182	1	73
536.522	1	77
536.862	1	81
537.203	1	75
537.543	1	68
537.883	1	77
538.223	1	75
538.563	1	75
538.903	1	68
539.243	1	60
539.584	1	64
539.924	1	72
540.264	1	59
540.604	1	71
540.944	1	59
541.284	1	54
541.624	1	52
541.964	1	67
542.305	1	54
542.645	1	63
542.985	1	53
543.325	1	50
543.665	1	68
544.005	1	56
544.345	1	54
544.685	1	60
545.025	1	45
545.365	1	64
545.705	1	61
546.045	1	61
546.386	1	60
546.726	1	68
547.066	1	53
547.406	1	69
547.746	1	57
548.086	1	64
548.426	1	52
548.766	1	56
549.106	1	70
549.446	1	57
549.786	1	51
550.126	1	53
550.466	1	52
550.806	1	59
551.146	1	53
551.486	1	61
551.826	1	64
552.166	1	55
552.506	1	61
552.846	1	54
553.186	1	54
553.526	1	47
553.866	1	54
554.206	1	55
554.546	1	40
554.886	1	55
555.226	1	48
555.566	1	48
555.906	1	53
556.246	1	52
556.586	1	59
556.926	1	53
557.266	1	57
557.606	1	38
557.946	1	64
558.286	1	49
558.626	1	57
558.966	1	49
559.306	1	36
559.646	1	32
559.986	1	41
560.325	1	37
560.665	1	44
561.005	1	46
561.345	1	44
561.685	1	51
562.025	1	36
562.365	1	46
562.705	1	46
563.045	1	39
563.385	1	35
563.725	1	52
564.064	1	52
564.404	1	38
564.744	1	48
565.084	1	29
565.424	1	43
565.764	1	48
566.104	1	28
566.444	1	44
566.783	1	31
567.123	1	40
567.463	1	37
567.803	1	44
568.143	1	39
568.483	1	26
568.823	1	40
569.162	1	36
569.502	1	40
569.842	1	31
570.182	1	26
570.522	1	43
570.862	1	35
571.201	1	21
571.541	1	32
571.881	1	29
572.221	1	22
572.561	1	30
572.900	1	37
573.240	1	24
573.580	1	28
573.920	1	27
574.260	1	19
574.599	1	23
574.939	1	28
575.279	1	25
575.619	1	38
575.959	1	13
576.298	1	9
576.638	1	31
576.978	1	39
577.318	1	25
577.657	1	11
577.997	1	27
578.337	1	19
578.677	1	18
579.016	1	33
579.356	1	20
579.696	1	34
580.036	1	23
580.375	1	28
580.715	1	19
581.055	1	35
581.394	1	18
581.734	1	28
582.074	1	16
582.414	1	26
582.753	1	22
583.093	1	21
583.433	1	17
583.772	1	25
584.112	1	23
584.452	1	14
584.791	1	13
585.131	1	15
585.471	1	11
585.811	1	17
586.150	1	22
586.490	1	20
586.830	1	10
587.169	1	17
587.509	1	17
587.849	1	20
588.188	1	13
588.528	1	23
588.867	1	29
589.207	1	14
589.547	1	9
589.886	1	0
590.226	1	11
590.566	1	14
590.905	1	21
591.245	1	13
591.585	1	13
591.924	1	19
592.264	1	14
592.603	1	16
592.943	1	16
593.283	1	25
593.622	1	13
593.962	1	20
594.301	1	27
594.641	1	14
594.981	1	15
595.320	1	9
595.660	1	6
595.999	1	20
596.339	1	12
596.678	1	7
597.018	1	12
597.358	1	18
597.697	1	10
598.037	1	9
598.376	1	24
598.716	1	5
599.055	1	15
599.395	1	6
599.734	1	15
600.074	1	19
600.413	1	15
600.753	1	15
601.092	1	-2
601.432	1	12
601.771	1	20
602.111	1	8
602.451	1	14
602.790	1	12
603.130	1	20
603.469	1	9
603.809	1	8
604.148	1	22
604.487	1	18
604.827	1	4
605.166	1	17
605.506	1	23
605.845	1	12
606.185	1	14
606.524	1	10
606.864	1	8
607.203	1	22
607.543	1	5
607.882	1	15
608.222	1	16
608.561	1	15
608.901	1	18
609.240	1	12
609.579	1	6
609.919	1	3
610.258	1	17
610.598	1	21
610.937	1	8
611.277	1	11
611.616	1	2
611.955	1	16
612.295	1	11
612.634	1	4
612.974	1	7
613.313	1	18
613.652	1	7
613.992	1	12
614.331	1	11
614.671	1	9
615.010	1	19
615.349	1	9
615.689	1	15
616.028	1	7
616.368	1	3
616.707	1	8
617.046	1	6
617.386	1	6
617.725	1	18
618.064	1	15
618.404	1	23
618.743	1	9
619.082	1	0
619.422	1	0
619.761	1	20
620.100	1	9
620.440	1	21
620.779	1	1
621.118	1	7
621.458	1	18
621.797	1	13
622.136	1	20
622.476	1	14
622.815	1	15
623.154	1	8
623.494	1	13
623.833	1	12
624.172	1	23
624.511	1	11
624.851	1	2
625.190	1	17
625.529	1	16
625.869	1	18
626.208	1	4
626.547	1	18
626.886	1	4
627.226	1	6
627.565	1	17
627.904	1	16
628.243	1	0
628.583	1	1
628.922	1	9
629.261	1	8
629.600	1	15
629.940	1	11
630.279	1	-4
630.618	1	11
630.957	1	-1
631.297	1	2
631.636	1	7
631.975	1	15
632.314	1	24
632.653	1	8
632.993	1	14
633.332	1	6
633.671	1	7
634.010	1	1
634.349	1	14
634.689	1	19
635.028	1	5
635.367	1	3
635.706	1	-6
636.045	1	8
636.384	1	11
636.724	1	13
637.063	1	11
637.402	1	19
637.741	1	17
638.080	1	9
638.419	1	8
638.759	1	12
639.098	1	6
639.437	1	-2
639.776	1	10
640.115	1	1
640.454	1	14
640.793	1	16
641.132	1	19
641.472	1	9
641.811	1	7
642.150	1	8
642.489	1	2
642.828	1	13
643.167	1	21
643.506	1	4
643.845	1	3
644.184	1	14
644.524	1	0
644.863	1	0
645.202	1	16
645.541	1	-6
645.880	1	6
646.219	1	6
646.558	1	8
646.897	1	7
647.236	1	9
647.575	1	9
647.914	1	3
648.253	1	13
648.592	1	2
648.931	1	13
649.270	1	13
649.610	1	24
649.949	1	20
650.288	1	11
650.627	1	11
650.966	1	5
651.305	1	3
651.644	1	4
651.983	1	8
652.322	1	15
652.661	1	14
653.000	1	-1
653.339	1	8
653.678	1	0
654.017	1	0
654.356	1	3
654.695	1	8
655.034	1	8
655.373	1	9
655.712	1	1
656.051	1	22
656.390	1	9
656.729	1	1
657.068	1	4
657.406	1	10
657.745	1	7
658.084	1	13
658.423	1	0
658.762	1	2
659.101	1	6
659.440	1	13
659.779	1	4
660.118	1	11
660.457	1	0
660.796	1	-1
661.135	1	8
661.474	1	7
661.813	1	11
662.152	1	3
662.491	1	9
662.829	1	5
663.168	1	8
663.507	1	11
663.846	1	17
664.185	1	3
664.524	1	-8
664.863	1	10
665.202	1	2
665.541	1	5
665.879	1	9
666.218	1	4
666.557	1	9
666.896	1	12
667.235	1	5
667.574	1	7
667.913	1	6
668.251	1	12
668.590	1	5
668.929	1	10
669.268	1	7
669.607	1	-3
669.946	1	9
670.285	1	12
670.623	1	10
670.962	1	7
671.301	1	0
671.640	1	-4
671.979	1	20
672.317	1	-3
672.656	1	5
672.995	1	11
673.334	1	16
673.673	1	17
674.011	1	14
674.350	1	8
674.689	1	5
675.028	1	13
675.367	1	12
675.705	1	0
676.044	1	-2
676.383	1	1
676.722	1	-1
677.060	1	4
677.399	1	-3
677.738	1	7
678.077	1	10
678.416	1	10
678.754	1	3
679.093	1	6
679.432	1	-4
679.771	1	-2
680.109	1	11
680.448	1	9
680.787	1	9
681.125	1	15
681.464	1	4
681.803	1	-7
682.142	1	14
682.480	1	0
682.819	1	14
683.158	1	8
683.496	1	-1
683.835	1	4
684.174	1	9
684.512	1	3
684.851	1	2
685.190	1	10
685.529	1	10
685.867	1	3
686.206	1	6
686.545	1	13
686.883	1	3
687.222	1	2
687.561	1	9
687.899	1	12
688.238	1	15
688.577	1	-1
688.746	1	23