File: Analysis/GaN_68K_200ms/GaN_sample E_spot4_UVVIS_68 K_200um_200 ms 2x2mm1_283.txt
340.368	1	8
340.710	1	-2
341.052	1	9
341.394	1	2
341.737	1	19
342.079	1	-6
342.421	1	4
342.763	1	-1
343.105	1	13
343.447	1	7
343.789	1	4
344.131	1	-4
344.473	1	5
344.815	1	7
345.157	1	1
345.499	1	0
345.841	1	1
346.183	1	2
346.526	1	7
346.868	1	3
347.210	1	1
347.552	1	0
347.894	1	-4
348.236	1	-2
348.578	1	6
348.920	1	9
349.262	1	4
349.604	1	7
349.946	1	4
350.288	1	1
350.630	1	-6
350.972	1	2
351.314	1	0
351.656	1	1
351.998	1	-4
352.340	1	3
352.682	1	-3
353.024	1	-2
353.366	1	6
353.708	1	10
354.050	1	5
354.392	1	11
354.734	1	1
355.076	1	4
355.418	1	-6
355.760	1	9
356.102	1	-1
356.444	1	7
356.785	1	6
357.127	1	1
357.469	1	0
357.811	1	10
358.153	1	7
358.495	1	8
358.837	1	0
359.179	1	9
359.521	1	4
359.863	1	-4
360.205	1	2
360.547	1	7
360.889	1	7
361.231	1	1
361.572	1	5
361.914	1	11
362.256	1	15
362.598	1	1
362.940	1	8
363.282	1	4
363.624	1	6
363.966	1	3
364.308	1	3
364.649	1	2
364.991	1	6
365.333	1	10
365.675	1	8
366.017	1	9
366.359	1	5
366.701	1	1
367.042	1	16
367.384	1	23
367.726	1	21
368.068	1	5
368.410	1	6
368.752	1	2
369.093	1	5
369.435	1	6
369.777	1	-2
370.119	1	13
370.461	1	12
370.803	1	-3
371.144	1	10
371.486	1	19
371.828	1	7
372.170	1	13
372.512	1	6
372.853	1	6
373.195	1	3
373.537	1	3
373.879	1	11
374.220	1	0
374.562	1	4
374.904	1	9
375.246	1	2
375.588	1	6
375.929	1	9
376.271	1	2
376.613	1	-4
376.955	1	2
377.296	1	6
377.638	1	11
377.980	1	0
378.321	1	5
378.663	1	1
379.005	1	8
379.347	1	0
379.688	1	-3
380.030	1	-1
380.372	1	8
380.714	1	1
381.055	1	0
381.397	1	3
381.739	1	10
382.080	1	-2
382.422	1	19
382.764	1	4
383.105	1	12
383.447	1	8
383.789	1	7
384.130	1	-2
384.472	1	3
384.814	1	13
385.156	1	12
385.497	1	19
385.839	1	15
386.180	1	12
386.522	1	15
386.864	1	12
387.205	1	13
387.547	1	12
387.889	1	10
388.230	1	8
388.572	1	6
388.914	1	13
389.255	1	19
389.597	1	5
389.939	1	21
390.280	1	20
390.622	1	7
390.963	1	26
391.305	1	19
391.647	1	10
391.988	1	6
392.330	1	11
392.671	1	11
393.013	1	18
393.355	1	21
393.696	1	15
394.038	1	4
394.379	1	-2
394.721	1	13
395.062	1	1
395.404	1	20
395.746	1	4
396.087	1	4
396.429	1	9
396.770	1	9
397.112	1	-1
397.453	1	0
397.795	1	12
398.136	1	9
398.478	1	9
398.819	1	12
399.161	1	6
399.503	1	10
399.844	1	11
400.186	1	16
400.527	1	8
400.869	1	9
401.210	1	0
401.552	1	24
401.893	1	15
402.235	1	15
402.576	1	19
402.918	1	-4
403.259	1	9
403.601	1	0
403.942	1	8
404.284	1	3
404.625	1	0
404.967	1	8
405.308	1	4
405.649	1	11
405.991	1	9
406.332	1	4
406.674	1	12
407.015	1	1
407.357	1	7
407.698	1	4
408.040	1	9
408.381	1	1
408.722	1	4
409.064	1	13
409.405	1	3
409.747	1	1
410.088	1	5
410.430	1	20
410.771	1	4
411.112	1	8
411.454	1	6
411.795	1	7
412.137	1	18
412.478	1	14
412.819	1	9
413.161	1	0
413.502	1	7
413.844	1	-4
414.185	1	9
414.526	1	8
414.868	1	12
415.209	1	0
415.550	1	7
415.892	1	5
416.233	1	8
416.575	1	-3
416.916	1	0
417.257	1	10
417.599	1	8
417.940	1	6
418.281	1	7
418.623	1	1
418.964	1	5
419.305	1	-1
419.647	1	15
419.988	1	10
420.329	1	6
420.671	1	13
421.012	1	19
421.353	1	14
421.695	1	3
422.036	1	7
422.377	1	4
422.718	1	0
423.060	1	8
423.401	1	4
423.742	1	2
424.084	1	4
424.425	1	1
424.766	1	8
425.107	1	-1
425.449	1	12
425.790	1	7
426.131	1	2
426.472	1	-3
426.814	1	10
427.155	1	6
427.496	1	12
427.837	1	-3
428.179	1	0
428.520	1	-5
428.861	1	8
429.202	1	3
429.544	1	3
429.885	1	5
430.226	1	3
430.567	1	14
430.909	1	3
431.250	1	-3
431.591	1	1
431.932	1	8
432.273	1	2
432.615	1	8
432.956	1	4
433.297	1	13
433.638	1	1
433.979	1	5
434.320	1	1
434.662	1	-10
435.003	1	0
435.344	1	7
435.685	1	2
436.026	1	12
436.368	1	5
436.709	1	-2
437.050	1	13
437.391	1	4
437.732	1	2
438.073	1	7
438.414	1	11
438.756	1	10
439.097	1	9
439.438	1	12
439.779	1	1
440.120	1	5
440.461	1	0
440.802	1	7
441.143	1	14
441.485	1	9
441.826	1	-13
442.167	1	7
442.508	1	-4
442.849	1	6
443.190	1	3
443.531	1	-3
443.872	1	4
444.213	1	-3
444.554	1	-1
444.895	1	2
445.237	1	-7
445.578	1	3
445.919	1	4
446.260	1	4
446.601	1	4
446.942	1	10
447.283	1	5
447.624	1	9
447.965	1	-1
448.306	1	10
448.647	1	14
448.988	1	-8
449.329	1	7
449.670	1	13
450.011	1	9
450.352	1	10
450.693	1	5
451.034	1	5
451.375	1	11
451.716	1	12
452.057	1	13
452.398	1	11
452.739	1	4
453.080	1	16
453.421	1	4
453.762	1	10
454.103	1	2
454.444	1	11
454.785	1	-2
455.126	1	6
455.467	1	5
455.808	1	5
456.149	1	2
456.490	1	10
456.831	1	5
457.172	1	0
457.513	1	10
457.854	1	4
458.195	1	0
458.536	1	13
458.877	1	12
459.218	1	6
459.559	1	4
459.899	1	16
460.240	1	9
460.581	1	11
460.922	1	7
461.263	1	10
461.604	1	2
461.945	1	5
462.286	1	10
462.627	1	-2
462.968	1	-7
463.309	1	-3
463.649	1	4
463.990	1	12
464.331	1	2
464.672	1	1
465.013	1	-7
465.354	1	-1
465.695	1	15
466.036	1	4
466.376	1	-5
466.717	1	1
467.058	1	12
467.399	1	2
467.740	1	-2
468.081	1	4
468.422	1	6
468.762	1	-3
469.103	1	0
469.444	1	2
469.785	1	6
470.126	1	5
470.467	1	5
470.807	1	4
471.148	1	-2
471.489	1	-3
471.830	1	18
472.171	1	6
472.511	1	11
472.852	1	0
473.193	1	-3
473.534	1	3
473.875	1	6
474.215	1	-1
474.556	1	2
474.897	1	6
475.238	1	3
475.578	1	1
475.919	1	8
476.260	1	2
476.601	1	0
476.942	1	8
477.282	1	-13
477.623	1	12
477.964	1	15
478.305	1	6
478.645	1	-10
478.986	1	5
479.327	1	-8
479.667	1	-3
480.008	1	4
480.349	1	0
480.690	1	5
481.030	1	0
481.371	1	0
481.712	1	6
482.053	1	12
482.393	1	-3
482.734	1	2
483.075	1	3
483.415	1	9
483.756	1	16
484.097	1	-12
484.437	1	-3
484.778	1	2
485.119	1	4
485.459	1	6
485.800	1	0
486.141	1	-9
486.481	1	6
486.822	1	11
487.163	1	-5
487.503	1	-8
487.844	1	6
488.185	1	-6
488.525	1	-7
488.866	1	5
489.207	1	16
489.547	1	2
489.888	1	4
490.228	1	4
490.569	1	6
490.910	1	0
491.250	1	4
491.591	1	-3
491.932	1	14
492.272	1	13
492.613	1	9
492.953	1	5
493.294	1	11
493.635	1	-7
493.975	1	-4
494.316	1	10
494.656	1	-3
494.997	1	-2
495.337	1	6
495.678	1	6
496.019	1	-4
496.359	1	6
496.700	1	2
497.040	1	-2
497.381	1	-10
497.721	1	-3
498.062	1	3
498.403	1	8
498.743	1	12
499.084	1	-6
499.424	1	10
499.765	1	7
500.105	1	5
500.446	1	8
500.786	1	6
501.127	1	11
501.467	1	-3
501.808	1	-12
502.148	1	10
502.489	1	16
502.829	1	11
503.170	1	8
503.510	1	4
503.851	1	-5
504.191	1	5
504.532	1	0
504.872	1	0
505.213	1	4
505.553	1	5
505.894	1	2
506.234	1	20
506.575	1	1
506.915	1	-4
507.256	1	-2
507.596	1	11
507.936	1	3
508.277	1	0
508.617	1	7
508.958	1	13
509.298	1	20
509.639	1	5
509.979	1	8
510.319	1	2
510.660	1	11
511.000	1	3
511.341	1	1
511.681	1	12
512.022	1	3
512.362	1	13
512.702	1	3
513.043	1	11
513.383	1	0
513.724	1	16
514.064	1	8
514.404	1	5
514.745	1	8
515.085	1	5
515.425	1	0
515.766	1	9
516.106	1	5
516.447	1	10
516.787	1	3
517.127	1	8
517.468	1	5
517.808	1	8
518.148	1	5
518.489	1	8
518.829	1	-3
519.169	1	17
519.510	1	4
519.850	1	0
520.190	1	5
520.531	1	15
520.871	1	-6
521.211	1	10
521.552	1	17
521.892	1	-4
522.232	1	2
522.573	1	9
522.913	1	11
523.253	1	5
523.593	1	1
523.934	1	8
524.274	1	2
524.614	1	3
524.955	1	-3
525.295	1	1
525.635	1	15
525.975	1	4
526.316	1	11
526.656	1	22
526.996	1	18
527.337	1	13
527.677	1	15
528.017	1	-4
528.357	1	7
528.698	1	7
529.038	1	13
529.378	1	15
529.718	1	13
530.058	1	-2
530.399	1	15
530.739	1	4
531.079	1	15
531.419	1	12
531.760	1	9
532.100	1	7
532.440	1	10
532.780	1	7
533.120	1	-7
533.461	1	19
533.801	1	12
534.141	1	10
534.481	1	11
534.821	1	6
535.162	1	10
535.502	1	15
535.842	1	11
536.182	1	1
536.522	1	8
536.862	1	13
537.203	1	11
537.543	1	3
537.883	1	12
538.223	1	8
538.563	1	7
538.903	1	0
539.243	1	10
539.584	1	-1
539.924	1	10
540.264	1	10
540.604	1	17
540.944	1	1
541.284	1	-5
541.624	1	11
541.964	1	7
542.305	1	-5
542.645	1	-6
542.985	1	5
543.325	1	15
543.665	1	13
544.005	1	8
544.345	1	-8
544.685	1	10
545.025	1	-2
545.365	1	1
545.705	1	13
546.045	1	11
546.386	1	8
546.726	1	2
547.066	1	-3
547.406	1	17
547.746	1	15
548.086	1	9
548.426	1	3
548.766	1	4
549.106	1	7
549.446	1	4
549.786	1	8
550.126	1	7
550.466	1	-9
550.806	1	13
551.146	1	-1
551.486	1	16
551.826	1	9
552.166	1	-2
552.506	1	3
552.846	1	0
553.186	1	12
553.526	1	6
553.866	1	15
554.206	1	9
554.546	1	-1
554.886	1	0
555.226	1	5
555.566	1	6
555.906	1	2
556.246	1	-1
556.586	1	21
556.926	1	7
557.266	1	14
557.606	1	-1
557.946	1	19
558.286	1	9
558.626	1	11
558.966	1	8
559.306	1	3
559.646	1	-2
559.986	1	4
560.325	1	-4
560.665	1	2
561.005	1	4
561.345	1	3
561.685	1	6
562.025	1	-5
562.365	1	6
562.705	1	10
563.045	1	9
563.385	1	3
563.725	1	0
564.064	1	12
564.404	1	0
564.744	1	7
565.084	1	6
565.424	1	3
565.764	1	20
566.104	1	-3
566.444	1	15
566.783	1	3
567.123	1	16
567.463	1	13
567.803	1	3
568.143	1	1
568.483	1	4
568.823	1	11
569.162	1	-6
569.502	1	8
569.842	1	9
570.182	1	-2
570.522	1	9
570.862	1	5
571.201	1	7
571.541	1	-7
571.881	1	12
572.221	1	4
572.561	1	0
572.900	1	14
573.240	1	-5
573.580	1	2
573.920	1	2
574.260	1	4
574.599	1	2
574.939	1	0
575.279	1	8
575.619	1	10
575.959	1	2
576.298	1	-5
576.638	1	9
576.978	1	7
577.318	1	10
577.657	1	-6
577.997	1	-6
578.337	1	0
578.677	1	1
579.016	1	17
579.356	1	2
579.696	1	8
580.036	1	1
580.375	1	4
580.715	1	13
581.055	1	9
581.394	1	-1
581.734	1	-2
582.074	1	-4
582.414	1	5
582.753	1	6
583.093	1	-7
583.433	1	-7
583.772	1	8
584.112	1	9
584.452	1	-1
584.791	1	-8
585.131	1	4
585.471	1	3
585.811	1	6
586.150	1	-4
586.490	1	2
586.830	1	-10
587.169	1	5
587.509	1	5
587.849	1	6
588.188	1	7
588.528	1	2
588.867	1	11
589.207	1	-6
589.547	1	-2
589.886	1	3
590.226	1	14
590.566	1	2
590.905	1	-2
591.245	1	-2
591.585	1	1
591.924	1	1
592.264	1	-3
592.603	1	5
592.943	1	0
593.283	1	9
593.622	1	6
593.962	1	6
594.301	1	7
594.641	1	-7
594.981	1	2
595.320	1	0
595.660	1	7
595.999	1	10
596.339	1	7
596.678	1	4
597.018	1	8
597.358	1	4
597.697	1	-2
598.037	1	-1
598.376	1	5
598.716	1	-2
599.055	1	1
599.395	1	19
599.734	1	-5
600.074	1	6
600.413	1	-2
600.753	1	5
601.092	1	-11
601.432	1	-2
601.771	1	-2
602.111	1	-1
602.451	1	5
602.790	1	4
603.130	1	0
603.469	1	3
603.809	1	6
604.148	1	7
604.487	1	2
604.827	1	-10
605.166	1	0
605.506	1	11
605.845	1	5
606.185	1	5
606.524	1	-3
606.864	1	-8
607.203	1	11
607.543	1	-4
607.882	1	-3
608.222	1	2
608.561	1	-2
608.901	1	11
609.240	1	3
609.579	1	2
609.919	1	-6
610.258	1	11
610.598	1	4
610.937	1	2
611.277	1	12
611.616	1	-12
611.955	1	11
612.295	1	-2
612.634	1	8
612.974	1	7
613.313	1	-6
613.652	1	-5
613.992	1	6
614.331	1	7
614.671	1	3
615.010	1	1
615.349	1	4
615.689	1	1
616.028	1	1
616.368	1	2
616.707	1	-7
617.046	1	-1
617.386	1	-2
617.725	1	10
618.064	1	5
618.404	1	9
618.743	1	4
619.082	1	4
619.422	1	10
619.761	1	6
620.100	1	8
620.440	1	10
620.779	1	-5
621.118	1	8
621.458	1	9
621.797	1	-3
622.136	1	-6
622.476	1	-2
622.815	1	0
623.154	1	4
623.494	1	-1
623.833	1	2
624.172	1	16
624.511	1	1
624.851	1	-10
625.190	1	-4
625.529	1	9
625.869	1	4
626.208	1	8
626.547	1	-1
626.886	1	0
627.226	1	0
627.565	1	12
627.904	1	8
628.243	1	-3
628.583	1	6
628.922	1	1
629.261	1	8
629.600	1	4
629.940	1	0
630.279	1	4
630.618	1	6
630.957	1	1
631.297	1	-9
631.636	1	2
631.975	1	12
632.314	1	6
632.653	1	-2
632.993	1	3
633.332	1	1
633.671	1	1
634.010	1	7
634.349	1	4
634.689	1	13
635.028	1	3
635.367	1	2
635.706	1	-2
636.045	1	2
636.384	1	4
636.724	1	8
637.063	1	14
637.402	1	10
637.741	1	11
638.080	1	8
638.419	1	5
638.759	1	9
639.098	1	6
639.437	1	-4
639.776	1	-1
640.115	1	0
640.454	1	17
640.793	1	3
641.132	1	6
641.472	1	1
641.811	1	7
642.150	1	-4
642.489	1	2
642.828	1	3
643.167	1	10
643.506	1	4
643.845	1	0
644.184	1	7
644.524	1	-6
644.863	1	2
645.202	1	0
645.541	1	-4
645.880	1	0
646.219	1	5
646.558	1	2
646.897	1	1
647.236	1	-4
647.575	1	8
647.914	1	-6
648.253	1	10
648.592	1	-3
648.931	1	-2
649.270	1	17
649.610	1	14
649.949	1	1
650.288	1	-6
650.627	1	7
650.966	1	-3
651.305	1	0
651.644	1	8
651.983	1	5
652.322	1	4
652.661	1	3
653.000	1	-2
653.339	1	4
653.678	1	2
654.017	1	-3
654.356	1	2
654.695	1	1
655.034	1	4
655.373	1	5
655.712	1	1
656.051	1	0
656.390	1	11
656.729	1	3
657.068	1	2
657.406	1	5
657.745	1	-1
658.084	1	2
658.423	1	0
658.762	1	-7
659.101	1	6
659.440	1	11
659.779	1	3
660.118	1	0
660.457	1	-8
660.796	1	3
661.135	1	-3
661.474	1	13
661.813	1	5
662.152	1	1
662.491	1	0
662.829	1	0
663.168	1	-6
663.507	1	-2
663.846	1	11
664.185	1	-3
664.524	1	-5
664.863	1	2
665.202	1	-7
665.541	1	-3
665.879	1	1
666.218	1	-10
666.557	1	7
666.896	1	3
667.235	1	-2
667.574	1	9
667.913	1	13
668.251	1	6
668.590	1	-4
668.929	1	9
669.268	1	3
669.607	1	-7
669.946	1	14
670.285	1	12
670.623	1	8
670.962	1	-1
671.301	1	-3
671.640	1	-14
671.979	1	4
672.317	1	-5
672.656	1	2
672.995	1	1
673.334	1	9
673.673	1	17
674.011	1	1
674.350	1	-5
674.689	1	-2
675.028	1	4
675.367	1	8
675.705	1	-10
676.044	1	-5
676.383	1	-10
676.722	1	5
677.060	1	9
677.399	1	6
677.738	1	-4
678.077	1	4
678.416	1	-4
678.754	1	-3
679.093	1	2
679.432	1	-9
679.771	1	-1
680.109	1	9
680.448	1	11
680.787	1	2
681.125	1	8
681.464	1	-2
681.803	1	-10
682.142	1	22
682.480	1	2
682.819	1	2
683.158	1	7
683.496	1	-8
683.835	1	14
684.174	1	2
684.512	1	-1
684.851	1	0
685.190	1	1
685.529	1	6
685.867	1	-1
686.206	1	4
686.545	1	-2
686.883	1	0
687.222	1	5
687.561	1	10
687.899	1	9
688.238	1	4
688.577	1	-2
688.746	1	9