File: Analysis/GaN_68K_200ms/GaN_sample E_spot4_UVVIS_68 K_200um_200 ms 2x2mm1_755.txt
340.368	1	4
340.710	1	-4
341.052	1	6
341.394	1	-1
341.737	1	13
342.079	1	-6
342.421	1	-3
342.763	1	-6
343.105	1	8
343.447	1	-2
343.789	1	-6
344.131	1	-3
344.473	1	-4
344.815	1	0
345.157	1	8
345.499	1	-4
345.841	1	10
346.183	1	0
346.526	1	4
346.868	1	-6
347.210	1	-5
347.552	1	1
347.894	1	7
348.236	1	7
348.578	1	-3
348.920	1	11
349.262	1	-3
349.604	1	8
349.946	1	11
350.288	1	-2
350.630	1	-9
350.972	1	1
351.314	1	-2
351.656	1	-4
351.998	1	-6
352.340	1	-1
352.682	1	1
353.024	1	-10
353.366	1	-4
353.708	1	4
354.050	1	3
354.392	1	3
354.734	1	-6
355.076	1	1
355.418	1	-3
355.760	1	11
356.102	1	-10
356.444	1	7
356.785	1	9
357.127	1	1
357.469	1	-8
357.811	1	6
358.153	1	-6
358.495	1	14
358.837	1	0
359.179	1	1
359.521	1	-7
359.863	1	-6
360.205	1	4
360.547	1	5
360.889	1	1
361.231	1	-4
361.572	1	-3
361.914	1	-9
362.256	1	17
362.598	1	8
362.940	1	3
363.282	1	3
363.624	1	-5
363.966	1	3
364.308	1	-1
364.649	1	2
364.991	1	2
365.333	1	17
365.675	1	-5
366.017	1	6
366.359	1	6
366.701	1	-3
367.042	1	11
367.384	1	15
367.726	1	11
368.068	1	-6
368.410	1	5
368.752	1	-14
369.093	1	4
369.435	1	-1
369.777	1	0
370.119	1	2
370.461	1	5
370.803	1	-1
371.144	1	4
371.486	1	9
371.828	1	-2
372.170	1	3
372.512	1	3
372.853	1	4
373.195	1	-11
373.537	1	1
373.879	1	7
374.220	1	4
374.562	1	-1
374.904	1	0
375.246	1	0
375.588	1	-7
375.929	1	1
376.271	1	-5
376.613	1	1
376.955	1	1
377.296	1	0
377.638	1	1
377.980	1	6
378.321	1	11
378.663	1	-5
379.005	1	2
379.347	1	-2
379.688	1	0
380.030	1	-2
380.372	1	-4
380.714	1	-1
381.055	1	1
381.397	1	-8
381.739	1	4
382.080	1	1
382.422	1	6
382.764	1	-8
383.105	1	-1
383.447	1	6
383.789	1	-10
384.130	1	-3
384.472	1	-13
384.814	1	6
385.156	1	8
385.497	1	4
385.839	1	2
386.180	1	-7
386.522	1	11
386.864	1	-5
387.205	1	-7
387.547	1	-1
387.889	1	11
388.230	1	6
388.572	1	4
388.914	1	12
389.255	1	7
389.597	1	-2
389.939	1	8
390.280	1	14
390.622	1	-5
390.963	1	9
391.305	1	3
391.647	1	2
391.988	1	-1
392.330	1	3
392.671	1	1
393.013	1	16
393.355	1	9
393.696	1	1
394.038	1	-13
394.379	1	2
394.721	1	6
395.062	1	-5
395.404	1	9
395.746	1	-10
396.087	1	6
396.429	1	3
396.770	1	7
397.112	1	-13
397.453	1	-11
397.795	1	3
398.136	1	7
398.478	1	1
398.819	1	8
399.161	1	-5
399.503	1	-2
399.844	1	6
400.186	1	10
400.527	1	1
400.869	1	14
401.210	1	-4
401.552	1	11
401.893	1	3
402.235	1	15
402.576	1	1
402.918	1	-3
403.259	1	-5
403.601	1	-8
403.942	1	8
404.284	1	-5
404.625	1	9
404.967	1	-2
405.308	1	1
405.649	1	-1
405.991	1	0
406.332	1	4
406.674	1	-2
407.015	1	-6
407.357	1	-1
407.698	1	-9
408.040	1	-7
408.381	1	-5
408.722	1	-3
409.064	1	2
409.405	1	-4
409.747	1	-10
410.088	1	0
410.430	1	3
410.771	1	2
411.112	1	6
411.454	1	8
411.795	1	7
412.137	1	8
412.478	1	10
412.819	1	-4
413.161	1	0
413.502	1	1
413.844	1	-1
414.185	1	-4
414.526	1	3
414.868	1	9
415.209	1	-1
415.550	1	0
415.892	1	-6
416.233	1	1
416.575	1	-2
416.916	1	-8
417.257	1	-6
417.599	1	7
417.940	1	-7
418.281	1	-4
418.623	1	4
418.964	1	4
419.305	1	-2
419.647	1	2
419.988	1	-2
420.329	1	1
420.671	1	-3
421.012	1	8
421.353	1	-1
421.695	1	6
422.036	1	0
422.377	1	0
422.718	1	-5
423.060	1	5
423.401	1	1
423.742	1	-5
424.084	1	-2
424.425	1	0
424.766	1	8
425.107	1	4
425.449	1	-1
425.790	1	-4
426.131	1	-4
426.472	1	-5
426.814	1	6
427.155	1	-8
427.496	1	4
427.837	1	-8
428.179	1	-10
428.520	1	-9
428.861	1	1
429.202	1	12
429.544	1	-2
429.885	1	8
430.226	1	1
430.567	1	15
430.909	1	-18
431.250	1	-3
431.591	1	2
431.932	1	9
432.273	1	0
432.615	1	-10
432.956	1	-1
433.297	1	2
433.638	1	7
433.979	1	-5
434.320	1	1
434.662	1	-5
435.003	1	7
435.344	1	12
435.685	1	0
436.026	1	3
436.368	1	-5
436.709	1	-2
437.050	1	5
437.391	1	6
437.732	1	5
438.073	1	6
438.414	1	11
438.756	1	-1
439.097	1	1
439.438	1	5
439.779	1	-7
440.120	1	-4
440.461	1	-9
440.802	1	11
441.143	1	15
441.485	1	-1
441.826	1	-17
442.167	1	-6
442.508	1	-6
442.849	1	1
443.190	1	-7
443.531	1	-5
443.872	1	7
444.213	1	-4
444.554	1	-9
444.895	1	-1
445.237	1	-5
445.578	1	3
445.919	1	-3
446.260	1	7
446.601	1	-6
446.942	1	2
447.283	1	-2
447.624	1	11
447.965	1	-12
448.306	1	-9
448.647	1	6
448.988	1	-16
449.329	1	7
449.670	1	-3
450.011	1	3
450.352	1	4
450.693	1	10
451.034	1	8
451.375	1	10
451.716	1	1
452.057	1	6
452.398	1	6
452.739	1	-1
453.080	1	6
453.421	1	1
453.762	1	6
454.103	1	7
454.444	1	4
454.785	1	-2
455.126	1	1
455.467	1	-6
455.808	1	1
456.149	1	-3
456.490	1	-1
456.831	1	13
457.172	1	-8
457.513	1	7
457.854	1	-4
458.195	1	-2
458.536	1	1
458.877	1	-5
459.218	1	6
459.559	1	-3
459.899	1	2
460.240	1	3
460.581	1	4
460.922	1	-8
461.263	1	6
461.604	1	-2
461.945	1	8
462.286	1	2
462.627	1	0
462.968	1	-14
463.309	1	-4
463.649	1	0
463.990	1	1
464.331	1	4
464.672	1	4
465.013	1	-10
465.354	1	-5
465.695	1	4
466.036	1	10
466.376	1	-5
466.717	1	-8
467.058	1	6
467.399	1	3
467.740	1	-11
468.081	1	1
468.422	1	7
468.762	1	-12
469.103	1	-4
469.444	1	-2
469.785	1	9
470.126	1	-3
470.467	1	-4
470.807	1	-2
471.148	1	-4
471.489	1	0
471.830	1	21
472.171	1	-2
472.511	1	10
472.852	1	-6
473.193	1	-8
473.534	1	-6
473.875	1	7
474.215	1	0
474.556	1	-10
474.897	1	8
475.238	1	-1
475.578	1	-4
475.919	1	5
476.260	1	-2
476.601	1	-8
476.942	1	-1
477.282	1	-16
477.623	1	3
477.964	1	9
478.305	1	-4
478.645	1	-10
478.986	1	-1
479.327	1	-6
479.667	1	-3
480.008	1	11
480.349	1	-7
480.690	1	3
481.030	1	-8
481.371	1	9
481.712	1	0
482.053	1	9
482.393	1	-12
482.734	1	0
483.075	1	11
483.415	1	4
483.756	1	0
484.097	1	-7
484.437	1	-15
484.778	1	-5
485.119	1	6
485.459	1	-2
485.800	1	2
486.141	1	-9
486.481	1	6
486.822	1	-5
487.163	1	-2
487.503	1	-10
487.844	1	4
488.185	1	-17
488.525	1	0
488.866	1	10
489.207	1	6
489.547	1	-3
489.888	1	1
490.228	1	-1
490.569	1	4
490.910	1	0
491.250	1	-10
491.591	1	-11
491.932	1	7
492.272	1	4
492.613	1	4
492.953	1	2
493.294	1	9
493.635	1	0
493.975	1	-6
494.316	1	8
494.656	1	3
494.997	1	-10
495.337	1	6
495.678	1	3
496.019	1	-3
496.359	1	7
496.700	1	5
497.040	1	0
497.381	1	-12
497.721	1	4
498.062	1	-5
498.403	1	0
498.743	1	10
499.084	1	-14
499.424	1	16
499.765	1	-2
500.105	1	13
500.446	1	11
500.786	1	-2
501.127	1	3
501.467	1	2
501.808	1	-14
502.148	1	3
502.489	1	8
502.829	1	4
503.170	1	1
503.510	1	-8
503.851	1	-14
504.191	1	1
504.532	1	-12
504.872	1	-8
505.213	1	5
505.553	1	1
505.894	1	5
506.234	1	3
506.575	1	-2
506.915	1	4
507.256	1	-10
507.596	1	5
507.936	1	-4
508.277	1	-8
508.617	1	6
508.958	1	9
509.298	1	7
509.639	1	-2
509.979	1	0
510.319	1	-5
510.660	1	4
511.000	1	3
511.341	1	0
511.681	1	-6
512.022	1	-8
512.362	1	-2
512.702	1	-6
513.043	1	-3
513.383	1	-14
513.724	1	13
514.064	1	-1
514.404	1	-2
514.745	1	0
515.085	1	0
515.425	1	-2
515.766	1	-5
516.106	1	-5
516.447	1	3
516.787	1	-9
517.127	1	-5
517.468	1	2
517.808	1	-6
518.148	1	-8
518.489	1	11
518.829	1	-1
519.169	1	5
519.510	1	-9
519.850	1	-3
520.190	1	-3
520.531	1	18
520.871	1	-2
521.211	1	3
521.552	1	-4
521.892	1	-9
522.232	1	-4
522.573	1	1
522.913	1	0
523.253	1	4
523.593	1	-19
523.934	1	1
524.274	1	-6
524.614	1	-3
524.955	1	-2
525.295	1	-10
525.635	1	5
525.975	1	-1
526.316	1	-2
526.656	1	27
526.996	1	5
527.337	1	-2
527.677	1	11
528.017	1	2
528.357	1	2
528.698	1	-10
529.038	1	-4
529.378	1	6
529.718	1	0
530.058	1	-2
530.399	1	6
530.739	1	-8
531.079	1	11
531.419	1	9
531.760	1	8
532.100	1	4
532.440	1	0
532.780	1	-5
533.120	1	-1
533.461	1	13
533.801	1	0
534.141	1	7
534.481	1	1
534.821	1	3
535.162	1	1
535.502	1	9
535.842	1	3
536.182	1	-5
536.522	1	2
536.862	1	7
537.203	1	6
537.543	1	6
537.883	1	-2
538.223	1	6
538.563	1	2
538.903	1	-7
539.243	1	-7
539.584	1	8
539.924	1	6
540.264	1	-4
540.604	1	5
540.944	1	-9
541.284	1	1
541.624	1	-1
541.964	1	-3
542.305	1	-11
542.645	1	10
542.985	1	2
543.325	1	3
543.665	1	4
544.005	1	3
544.345	1	-4
544.685	1	7
545.025	1	-12
545.365	1	4
545.705	1	6
546.045	1	3
546.386	1	2
546.726	1	-5
547.066	1	-5
547.406	1	11
547.746	1	8
548.086	1	6
548.426	1	2
548.766	1	3
549.106	1	4
549.446	1	7
549.786	1	7
550.126	1	-6
550.466	1	-9
550.806	1	9
551.146	1	-6
551.486	1	8
551.826	1	7
552.166	1	-6
552.506	1	-4
552.846	1	5
553.186	1	-3
553.526	1	-12
553.866	1	-3
554.206	1	-5
554.546	1	-4
554.886	1	0
555.226	1	-11
555.566	1	0
555.906	1	6
556.246	1	-2
556.586	1	1
556.926	1	-4
557.266	1	5
557.606	1	-11
557.946	1	8
558.286	1	-4
558.626	1	3
558.966	1	-3
559.306	1	0
559.646	1	-3
559.986	1	-5
560.325	1	-14
560.665	1	1
561.005	1	-5
561.345	1	-6
561.685	1	-6
562.025	1	-11
562.365	1	5
562.705	1	2
563.045	1	5
563.385	1	-8
563.725	1	-1
564.064	1	5
564.404	1	-4
564.744	1	7
565.084	1	0
565.424	1	-3
565.764	1	3
566.104	1	-5
566.444	1	8
566.783	1	-4
567.123	1	19
567.463	1	3
567.803	1	-4
568.143	1	-6
568.483	1	-10
568.823	1	11
569.162	1	4
569.502	1	-3
569.842	1	-1
570.182	1	-5
570.522	1	9
570.862	1	8
571.201	1	6
571.541	1	-3
571.881	1	0
572.221	1	3
572.561	1	-4
572.900	1	9
573.240	1	-8
573.580	1	5
573.920	1	-5
574.260	1	-5
574.599	1	3
574.939	1	-1
575.279	1	8
575.619	1	-1
575.959	1	-1
576.298	1	-13
576.638	1	-8
576.978	1	-2
577.318	1	4
577.657	1	-9
577.997	1	-2
578.337	1	-2
578.677	1	-10
579.016	1	10
579.356	1	-6
579.696	1	3
580.036	1	-9
580.375	1	4
580.715	1	-1
581.055	1	-8
581.394	1	-2
581.734	1	2
582.074	1	-3
582.414	1	5
582.753	1	4
583.093	1	-8
583.433	1	-5
583.772	1	0
584.112	1	5
584.452	1	3
584.791	1	10
585.131	1	-4
585.471	1	5
585.811	1	-4
586.150	1	-5
586.490	1	1
586.830	1	-7
587.169	1	-8
587.509	1	5
587.849	1	3
588.188	1	5
588.528	1	-4
588.867	1	10
589.207	1	-12
589.547	1	-10
589.886	1	-17
590.226	1	-3
590.566	1	1
590.905	1	8
591.245	1	-5
591.585	1	0
591.924	1	3
592.264	1	-4
592.603	1	-2
592.943	1	0
593.283	1	0
593.622	1	-6
593.962	1	6
594.301	1	5
594.641	1	0
594.981	1	-1
595.320	1	2
595.660	1	0
595.999	1	0
596.339	1	4
596.678	1	-1
597.018	1	1
597.358	1	-1
597.697	1	-4
598.037	1	-4
598.376	1	2
598.716	1	-9
599.055	1	-3
599.395	1	11
599.734	1	11
600.074	1	-5
600.413	1	-5
600.753	1	-3
601.092	1	-7
601.432	1	6
601.771	1	10
602.111	1	-10
602.451	1	-6
602.790	1	4
603.130	1	-1
603.469	1	1
603.809	1	0
604.148	1	4
604.487	1	3
604.827	1	-12
605.166	1	1
605.506	1	4
605.845	1	-1
606.185	1	-10
606.524	1	-9
606.864	1	1
607.203	1	3
607.543	1	-10
607.882	1	-8
608.222	1	-6
608.561	1	-5
608.901	1	3
609.240	1	-2
609.579	1	8
609.919	1	-9
610.258	1	8
610.598	1	4
610.937	1	0
611.277	1	10
611.616	1	-11
611.955	1	2
612.295	1	-1
612.634	1	-3
612.974	1	7
613.313	1	0
613.652	1	-7
613.992	1	6
614.331	1	0
614.671	1	8
615.010	1	3
615.349	1	5
615.689	1	-1
616.028	1	-4
616.368	1	1
616.707	1	-6
617.046	1	1
617.386	1	-3
617.725	1	9
618.064	1	7
618.404	1	7
618.743	1	0
619.082	1	6
619.422	1	-2
619.761	1	0
620.100	1	-1
620.440	1	-5
620.779	1	1
621.118	1	-6
621.458	1	9
621.797	1	-1
622.136	1	-1
622.476	1	1
622.815	1	-7
623.154	1	-1
623.494	1	8
623.833	1	0
624.172	1	17
624.511	1	2
624.851	1	-8
625.190	1	-5
625.529	1	0
625.869	1	0
626.208	1	-4
626.547	1	1
626.886	1	-8
627.226	1	1
627.565	1	11
627.904	1	3
628.243	1	-10
628.583	1	-1
628.922	1	1
629.261	1	6
629.600	1	7
629.940	1	1
630.279	1	2
630.618	1	9
630.957	1	-10
631.297	1	-1
631.636	1	-1
631.975	1	3
632.314	1	12
632.653	1	-2
632.993	1	5
633.332	1	7
633.671	1	0
634.010	1	-4
634.349	1	4
634.689	1	13
635.028	1	3
635.367	1	-2
635.706	1	-4
636.045	1	7
636.384	1	2
636.724	1	-4
637.063	1	5
637.402	1	5
637.741	1	8
638.080	1	-6
638.419	1	6
638.759	1	-2
639.098	1	10
639.437	1	-8
639.776	1	-2
640.115	1	1
640.454	1	4
640.793	1	4
641.132	1	5
641.472	1	-2
641.811	1	-4
642.150	1	1
642.489	1	3
642.828	1	-7
643.167	1	13
643.506	1	-14
643.845	1	5
644.184	1	11
644.524	1	-8
644.863	1	-5
645.202	1	-8
645.541	1	-7
645.880	1	-4
646.219	1	-2
646.558	1	1
646.897	1	-6
647.236	1	-1
647.575	1	-3
647.914	1	-4
648.253	1	1
648.592	1	2
648.931	1	-4
649.270	1	8
649.610	1	2
649.949	1	6
650.288	1	-2
650.627	1	-5
650.966	1	1
651.305	1	-2
651.644	1	-8
651.983	1	-7
652.322	1	0
652.661	1	3
653.000	1	0
653.339	1	12
653.678	1	-5
654.017	1	-1
654.356	1	4
654.695	1	1
655.034	1	-1
655.373	1	-7
655.712	1	-4
656.051	1	11
656.390	1	5
656.729	1	10
657.068	1	-6
657.406	1	4
657.745	1	-7
658.084	1	8
658.423	1	5
658.762	1	-2
659.101	1	-5
659.440	1	5
659.779	1	-1
660.118	1	5
660.457	1	-3
660.796	1	-2
661.135	1	0
661.474	1	2
661.813	1	-1
662.152	1	-3
662.491	1	-7
662.829	1	-4
663.168	1	-3
663.507	1	5
663.846	1	0
664.185	1	-1
664.524	1	-9
664.863	1	9
665.202	1	-2
665.541	1	-1
665.879	1	-2
666.218	1	-8
666.557	1	-1
666.896	1	3
667.235	1	-5
667.574	1	0
667.913	1	1
668.251	1	4
668.590	1	0
668.929	1	-2
669.268	1	2
669.607	1	-10
669.946	1	12
670.285	1	10
670.623	1	2
670.962	1	4
671.301	1	-1
671.640	1	-10
671.979	1	7
672.317	1	-4
672.656	1	-1
672.995	1	3
673.334	1	7
673.673	1	10
674.011	1	6
674.350	1	-4
674.689	1	-5
675.028	1	1
675.367	1	1
675.705	1	-12
676.044	1	-8
676.383	1	1
676.722	1	1
677.060	1	3
677.399	1	6
677.738	1	-1
678.077	1	3
678.416	1	-10
678.754	1	-2
679.093	1	-6
679.432	1	-9
679.771	1	-5
680.109	1	1
680.448	1	10
680.787	1	0
681.125	1	7
681.464	1	1
681.803	1	-9
682.142	1	8
682.480	1	-3
682.819	1	4
683.158	1	-2
683.496	1	-11
683.835	1	1
684.174	1	2
684.512	1	-5
684.851	1	-2
685.190	1	1
685.529	1	4
685.867	1	5
686.206	1	2
686.545	1	9
686.883	1	-14
687.222	1	-7
687.561	1	1
687.899	1	-8
688.238	1	0
688.577	1	-6
688.746	1	2