File: Analysis/GaN_68K_200ms/GaN_sample E_spot4_UVVIS_68 K_200um_200 ms 2x2mm1_550.txt
340.368	1	-3
340.710	1	-5
341.052	1	0
341.394	1	-7
341.737	1	6
342.079	1	0
342.421	1	5
342.763	1	-13
343.105	1	11
343.447	1	6
343.789	1	2
344.131	1	3
344.473	1	0
344.815	1	0
345.157	1	10
345.499	1	4
345.841	1	2
346.183	1	-13
346.526	1	5
346.868	1	12
347.210	1	2
347.552	1	-1
347.894	1	-6
348.236	1	11
348.578	1	7
348.920	1	10
349.262	1	2
349.604	1	6
349.946	1	11
350.288	1	-3
350.630	1	-5
350.972	1	-2
351.314	1	0
351.656	1	3
351.998	1	-9
352.340	1	-3
352.682	1	2
353.024	1	-7
353.366	1	9
353.708	1	6
354.050	1	2
354.392	1	11
354.734	1	-2
355.076	1	-2
355.418	1	0
355.760	1	8
356.102	1	-4
356.444	1	1
356.785	1	9
357.127	1	-2
357.469	1	8
357.811	1	12
358.153	1	6
358.495	1	11
358.837	1	8
359.179	1	4
359.521	1	0
359.863	1	-11
360.205	1	-3
360.547	1	-3
360.889	1	4
361.231	1	4
361.572	1	-2
361.914	1	-10
362.256	1	4
362.598	1	-1
362.940	1	1
363.282	1	0
363.624	1	-3
363.966	1	6
364.308	1	1
364.649	1	4
364.991	1	-3
365.333	1	10
365.675	1	2
366.017	1	8
366.359	1	13
366.701	1	-6
367.042	1	17
367.384	1	17
367.726	1	16
368.068	1	6
368.410	1	1
368.752	1	-2
369.093	1	4
369.435	1	-6
369.777	1	-13
370.119	1	1
370.461	1	-5
370.803	1	-2
371.144	1	13
371.486	1	-1
371.828	1	6
372.170	1	1
372.512	1	-4
372.853	1	3
373.195	1	-3
373.537	1	5
373.879	1	5
374.220	1	2
374.562	1	-2
374.904	1	2
375.246	1	8
375.588	1	-7
375.929	1	1
376.271	1	-7
376.613	1	1
376.955	1	-8
377.296	1	-2
377.638	1	1
377.980	1	6
378.321	1	5
378.663	1	-7
379.005	1	8
379.347	1	6
379.688	1	2
380.030	1	4
380.372	1	11
380.714	1	5
381.055	1	-4
381.397	1	-11
381.739	1	11
382.080	1	-9
382.422	1	7
382.764	1	-5
383.105	1	2
383.447	1	5
383.789	1	4
384.130	1	-8
384.472	1	-2
384.814	1	12
385.156	1	15
385.497	1	5
385.839	1	6
386.180	1	4
386.522	1	-3
386.864	1	-1
387.205	1	-2
387.547	1	0
387.889	1	11
388.230	1	-11
388.572	1	6
388.914	1	5
389.255	1	7
389.597	1	-8
389.939	1	3
390.280	1	5
390.622	1	-3
390.963	1	-3
391.305	1	2
391.647	1	10
391.988	1	4
392.330	1	4
392.671	1	1
393.013	1	11
393.355	1	10
393.696	1	4
394.038	1	-7
394.379	1	-8
394.721	1	6
395.062	1	-5
395.404	1	8
395.746	1	-6
396.087	1	-5
396.429	1	7
396.770	1	15
397.112	1	-3
397.453	1	-4
397.795	1	6
398.136	1	6
398.478	1	-7
398.819	1	14
399.161	1	2
399.503	1	-6
399.844	1	-6
400.186	1	13
400.527	1	8
400.869	1	14
401.210	1	-11
401.552	1	11
401.893	1	6
402.235	1	15
402.576	1	4
402.918	1	-6
403.259	1	-9
403.601	1	0
403.942	1	-1
404.284	1	-5
404.625	1	7
404.967	1	4
405.308	1	9
405.649	1	1
405.991	1	8
406.332	1	-8
406.674	1	-4
407.015	1	-4
407.357	1	8
407.698	1	-4
408.040	1	-5
408.381	1	0
408.722	1	-2
409.064	1	5
409.405	1	-3
409.747	1	-8
410.088	1	0
410.430	1	11
410.771	1	-2
411.112	1	6
411.454	1	7
411.795	1	7
412.137	1	9
412.478	1	10
412.819	1	-1
413.161	1	-2
413.502	1	3
413.844	1	2
414.185	1	4
414.526	1	2
414.868	1	6
415.209	1	4
415.550	1	-11
415.892	1	-6
416.233	1	-5
416.575	1	5
416.916	1	-1
417.257	1	6
417.599	1	1
417.940	1	-3
418.281	1	-1
418.623	1	2
418.964	1	3
419.305	1	-4
419.647	1	6
419.988	1	-3
420.329	1	8
420.671	1	2
421.012	1	20
421.353	1	5
421.695	1	0
422.036	1	-8
422.377	1	-2
422.718	1	-2
423.060	1	-3
423.401	1	2
423.742	1	-1
424.084	1	-2
424.425	1	5
424.766	1	5
425.107	1	10
425.449	1	7
425.790	1	-5
426.131	1	-6
426.472	1	1
426.814	1	10
427.155	1	-6
427.496	1	3
427.837	1	-8
428.179	1	-4
428.520	1	-11
428.861	1	3
429.202	1	9
429.544	1	4
429.885	1	-3
430.226	1	1
430.567	1	19
430.909	1	-5
431.250	1	-11
431.591	1	0
431.932	1	7
432.273	1	-11
432.615	1	7
432.956	1	-13
433.297	1	8
433.638	1	-5
433.979	1	-2
434.320	1	5
434.662	1	4
435.003	1	8
435.344	1	1
435.685	1	4
436.026	1	5
436.368	1	-5
436.709	1	-7
437.050	1	3
437.391	1	1
437.732	1	2
438.073	1	4
438.414	1	-1
438.756	1	4
439.097	1	7
439.438	1	5
439.779	1	-3
440.120	1	4
440.461	1	2
440.802	1	10
441.143	1	11
441.485	1	-6
441.826	1	-5
442.167	1	-10
442.508	1	5
442.849	1	4
443.190	1	-9
443.531	1	0
443.872	1	-6
444.213	1	-6
444.554	1	-2
444.895	1	-4
445.237	1	3
445.578	1	3
445.919	1	-1
446.260	1	3
446.601	1	-10
446.942	1	7
447.283	1	-4
447.624	1	2
447.965	1	-9
448.306	1	1
448.647	1	15
448.988	1	-5
449.329	1	1
449.670	1	10
450.011	1	-4
450.352	1	16
450.693	1	9
451.034	1	1
451.375	1	0
451.716	1	9
452.057	1	11
452.398	1	3
452.739	1	1
453.080	1	6
453.421	1	-2
453.762	1	3
454.103	1	3
454.444	1	7
454.785	1	-9
455.126	1	5
455.467	1	-8
455.808	1	-1
456.149	1	-3
456.490	1	0
456.831	1	17
457.172	1	3
457.513	1	14
457.854	1	-3
458.195	1	5
458.536	1	6
458.877	1	-6
459.218	1	1
459.559	1	5
459.899	1	0
460.240	1	-3
460.581	1	4
460.922	1	-3
461.263	1	9
461.604	1	0
461.945	1	7
462.286	1	16
462.627	1	8
462.968	1	0
463.309	1	-3
463.649	1	0
463.990	1	-4
464.331	1	3
464.672	1	-2
465.013	1	-2
465.354	1	-1
465.695	1	9
466.036	1	3
466.376	1	-1
466.717	1	-1
467.058	1	5
467.399	1	7
467.740	1	-1
468.081	1	-5
468.422	1	3
468.762	1	-7
469.103	1	0
469.444	1	-3
469.785	1	9
470.126	1	6
470.467	1	-7
470.807	1	0
471.148	1	-2
471.489	1	-6
471.830	1	11
472.171	1	-10
472.511	1	3
472.852	1	0
473.193	1	-4
473.534	1	-4
473.875	1	-4
474.215	1	-5
474.556	1	-6
474.897	1	1
475.238	1	-13
475.578	1	5
475.919	1	6
476.260	1	-9
476.601	1	0
476.942	1	-3
477.282	1	-7
477.623	1	-7
477.964	1	2
478.305	1	1
478.645	1	-12
478.986	1	-4
479.327	1	-4
479.667	1	1
480.008	1	11
480.349	1	-5
480.690	1	-6
481.030	1	-1
481.371	1	3
481.712	1	4
482.053	1	0
482.393	1	-2
482.734	1	3
483.075	1	4
483.415	1	0
483.756	1	11
484.097	1	-5
484.437	1	-14
484.778	1	5
485.119	1	1
485.459	1	0
485.800	1	-7
486.141	1	-14
486.481	1	-3
486.822	1	-5
487.163	1	-3
487.503	1	0
487.844	1	-5
488.185	1	-8
488.525	1	4
488.866	1	5
489.207	1	1
489.547	1	0
489.888	1	7
490.228	1	-4
490.569	1	7
490.910	1	2
491.250	1	-4
491.591	1	0
491.932	1	6
492.272	1	11
492.613	1	-4
492.953	1	14
493.294	1	1
493.635	1	5
493.975	1	1
494.316	1	5
494.656	1	2
494.997	1	-5
495.337	1	8
495.678	1	7
496.019	1	-9
496.359	1	8
496.700	1	-1
497.040	1	4
497.381	1	-24
497.721	1	-9
498.062	1	-1
498.403	1	1
498.743	1	1
499.084	1	-9
499.424	1	9
499.765	1	-1
500.105	1	12
500.446	1	8
500.786	1	11
501.127	1	5
501.467	1	3
501.808	1	-7
502.148	1	3
502.489	1	4
502.829	1	3
503.170	1	2
503.510	1	-4
503.851	1	-9
504.191	1	3
504.532	1	-11
504.872	1	-4
505.213	1	-4
505.553	1	6
505.894	1	10
506.234	1	12
506.575	1	-4
506.915	1	7
507.256	1	5
507.596	1	6
507.936	1	5
508.277	1	-1
508.617	1	12
508.958	1	3
509.298	1	18
509.639	1	-3
509.979	1	-2
510.319	1	-7
510.660	1	1
511.000	1	8
511.341	1	-3
511.681	1	0
512.022	1	-7
512.362	1	5
512.702	1	-13
513.043	1	1
513.383	1	-5
513.724	1	7
514.064	1	6
514.404	1	7
514.745	1	2
515.085	1	10
515.425	1	1
515.766	1	-3
516.106	1	-5
516.447	1	3
516.787	1	-8
517.127	1	-2
517.468	1	-2
517.808	1	1
518.148	1	6
518.489	1	-2
518.829	1	-9
519.169	1	10
519.510	1	1
519.850	1	-9
520.190	1	-6
520.531	1	5
520.871	1	3
521.211	1	1
521.552	1	9
521.892	1	-13
522.232	1	-9
522.573	1	1
522.913	1	-1
523.253	1	3
523.593	1	-13
523.934	1	15
524.274	1	-5
524.614	1	-1
524.955	1	2
525.295	1	-6
525.635	1	4
525.975	1	-9
526.316	1	-11
526.656	1	26
526.996	1	13
527.337	1	-1
527.677	1	10
528.017	1	-7
528.357	1	4
528.698	1	-4
529.038	1	5
529.378	1	-2
529.718	1	0
530.058	1	-1
530.399	1	13
530.739	1	-7
531.079	1	1
531.419	1	5
531.760	1	5
532.100	1	6
532.440	1	1
532.780	1	-1
533.120	1	-3
533.461	1	12
533.801	1	11
534.141	1	9
534.481	1	1
534.821	1	7
535.162	1	2
535.502	1	11
535.842	1	6
536.182	1	4
536.522	1	5
536.862	1	13
537.203	1	11
537.543	1	7
537.883	1	5
538.223	1	12
538.563	1	7
538.903	1	-2
539.243	1	-8
539.584	1	0
539.924	1	-3
540.264	1	12
540.604	1	-3
540.944	1	-5
541.284	1	-6
541.624	1	10
541.964	1	0
542.305	1	-4
542.645	1	-5
542.985	1	-2
543.325	1	2
543.665	1	9
544.005	1	-3
544.345	1	-5
544.685	1	9
545.025	1	-5
545.365	1	3
545.705	1	9
546.045	1	4
546.386	1	-9
546.726	1	7
547.066	1	-12
547.406	1	13
547.746	1	11
548.086	1	-1
548.426	1	-7
548.766	1	4
549.106	1	9
549.446	1	11
549.786	1	-5
550.126	1	6
550.466	1	-5
550.806	1	14
551.146	1	-1
551.486	1	2
551.826	1	6
552.166	1	5
552.506	1	-7
552.846	1	8
553.186	1	2
553.526	1	-4
553.866	1	7
554.206	1	-3
554.546	1	-5
554.886	1	8
555.226	1	-2
555.566	1	9
555.906	1	4
556.246	1	0
556.586	1	10
556.926	1	4
557.266	1	5
557.606	1	-9
557.946	1	2
558.286	1	6
558.626	1	3
558.966	1	1
559.306	1	-9
559.646	1	-3
559.986	1	-15
560.325	1	-5
560.665	1	-5
561.005	1	-3
561.345	1	13
561.685	1	-1
562.025	1	-15
562.365	1	-2
562.705	1	9
563.045	1	11
563.385	1	-9
563.725	1	5
564.064	1	16
564.404	1	-9
564.744	1	6
565.084	1	-8
565.424	1	-2
565.764	1	11
566.104	1	-3
566.444	1	8
566.783	1	4
567.123	1	14
567.463	1	3
567.803	1	-4
568.143	1	-10
568.483	1	-8
568.823	1	7
569.162	1	9
569.502	1	-1
569.842	1	-1
570.182	1	7
570.522	1	-1
570.862	1	7
571.201	1	3
571.541	1	-2
571.881	1	-2
572.221	1	7
572.561	1	-8
572.900	1	17
573.240	1	7
573.580	1	5
573.920	1	-5
574.260	1	-9
574.599	1	-3
574.939	1	-9
575.279	1	7
575.619	1	4
575.959	1	-6
576.298	1	-9
576.638	1	3
576.978	1	1
577.318	1	2
577.657	1	-11
577.997	1	1
578.337	1	-6
578.677	1	1
579.016	1	13
579.356	1	-3
579.696	1	5
580.036	1	-12
580.375	1	-7
580.715	1	7
581.055	1	12
581.394	1	0
581.734	1	6
582.074	1	4
582.414	1	-1
582.753	1	0
583.093	1	-4
583.433	1	-6
583.772	1	-1
584.112	1	3
584.452	1	5
584.791	1	-3
585.131	1	-7
585.471	1	3
585.811	1	-6
586.150	1	-3
586.490	1	0
586.830	1	-2
587.169	1	7
587.509	1	1
587.849	1	13
588.188	1	6
588.528	1	-1
588.867	1	11
589.207	1	-5
589.547	1	-10
589.886	1	-12
590.226	1	6
590.566	1	-4
590.905	1	1
591.245	1	1
591.585	1	-12
591.924	1	-1
592.264	1	-10
592.603	1	8
592.943	1	-3
593.283	1	5
593.622	1	0
593.962	1	6
594.301	1	8
594.641	1	-2
594.981	1	-3
595.320	1	1
595.660	1	-2
595.999	1	2
596.339	1	5
596.678	1	1
597.018	1	-7
597.358	1	-2
597.697	1	-3
598.037	1	6
598.376	1	3
598.716	1	-5
599.055	1	-6
599.395	1	10
599.734	1	6
600.074	1	-6
600.413	1	2
600.753	1	-4
601.092	1	-13
601.432	1	-5
601.771	1	7
602.111	1	-5
602.451	1	2
602.790	1	-5
603.130	1	0
603.469	1	4
603.809	1	-3
604.148	1	0
604.487	1	7
604.827	1	-10
605.166	1	-3
605.506	1	4
605.845	1	-3
606.185	1	6
606.524	1	3
606.864	1	0
607.203	1	11
607.543	1	-5
607.882	1	-2
608.222	1	-4
608.561	1	7
608.901	1	3
609.240	1	4
609.579	1	6
609.919	1	-9
610.258	1	4
610.598	1	2
610.937	1	5
611.277	1	2
611.616	1	-9
611.955	1	7
612.295	1	-3
612.634	1	1
612.974	1	10
613.313	1	1
613.652	1	-5
613.992	1	3
614.331	1	0
614.671	1	7
615.010	1	-2
615.349	1	-4
615.689	1	3
616.028	1	0
616.368	1	-7
616.707	1	-10
617.046	1	1
617.386	1	-4
617.725	1	1
618.064	1	2
618.404	1	12
618.743	1	0
619.082	1	4
619.422	1	4
619.761	1	-7
620.100	1	1
620.440	1	5
620.779	1	-7
621.118	1	-1
621.458	1	0
621.797	1	0
622.136	1	9
622.476	1	2
622.815	1	9
623.154	1	3
623.494	1	4
623.833	1	-1
624.172	1	5
624.511	1	-10
624.851	1	-14
625.190	1	1
625.529	1	11
625.869	1	4
626.208	1	2
626.547	1	3
626.886	1	-7
627.226	1	-4
627.565	1	14
627.904	1	5
628.243	1	-9
628.583	1	-4
628.922	1	5
629.261	1	6
629.600	1	10
629.940	1	4
630.279	1	-10
630.618	1	0
630.957	1	-3
631.297	1	-3
631.636	1	-3
631.975	1	-1
632.314	1	8
632.653	1	-5
632.993	1	2
633.332	1	1
633.671	1	-5
634.010	1	1
634.349	1	4
634.689	1	8
635.028	1	-3
635.367	1	-3
635.706	1	-1
636.045	1	4
636.384	1	13
636.724	1	2
637.063	1	12
637.402	1	15
637.741	1	2
638.080	1	11
638.419	1	3
638.759	1	6
639.098	1	8
639.437	1	-3
639.776	1	-4
640.115	1	-2
640.454	1	17
640.793	1	6
641.132	1	13
641.472	1	-7
641.811	1	1
642.150	1	-3
642.489	1	2
642.828	1	0
643.167	1	15
643.506	1	-6
643.845	1	-1
644.184	1	9
644.524	1	-2
644.863	1	-1
645.202	1	5
645.541	1	-5
645.880	1	-3
646.219	1	4
646.558	1	-3
646.897	1	5
647.236	1	10
647.575	1	0
647.914	1	-3
648.253	1	7
648.592	1	-1
648.931	1	2
649.270	1	12
649.610	1	8
649.949	1	5
650.288	1	2
650.627	1	9
650.966	1	-1
651.305	1	-5
651.644	1	2
651.983	1	-1
652.322	1	11
652.661	1	12
653.000	1	-1
653.339	1	9
653.678	1	4
654.017	1	-3
654.356	1	-1
654.695	1	6
655.034	1	-1
655.373	1	5
655.712	1	0
656.051	1	0
656.390	1	7
656.729	1	10
657.068	1	2
657.406	1	10
657.745	1	-4
658.084	1	2
658.423	1	-4
658.762	1	-11
659.101	1	-3
659.440	1	10
659.779	1	-8
660.118	1	2
660.457	1	2
660.796	1	-8
661.135	1	8
661.474	1	-5
661.813	1	1
662.152	1	5
662.491	1	-1
662.829	1	-3
663.168	1	-9
663.507	1	2
663.846	1	5
664.185	1	-4
664.524	1	7
664.863	1	-1
665.202	1	-11
665.541	1	-6
665.879	1	5
666.218	1	-12
666.557	1	5
666.896	1	3
667.235	1	-4
667.574	1	6
667.913	1	1
668.251	1	0
668.590	1	-6
668.929	1	-2
669.268	1	-3
669.607	1	-6
669.946	1	9
670.285	1	0
670.623	1	-1
670.962	1	-3
671.301	1	-2
671.640	1	-12
671.979	1	14
672.317	1	-10
672.656	1	-4
672.995	1	6
673.334	1	8
673.673	1	17
674.011	1	-4
674.350	1	-6
674.689	1	0
675.028	1	1
675.367	1	1
675.705	1	-7
676.044	1	-5
676.383	1	-5
676.722	1	-5
677.060	1	4
677.399	1	3
677.738	1	3
678.077	1	9
678.416	1	3
678.754	1	-6
679.093	1	-11
679.432	1	-4
679.771	1	-6
680.109	1	2
680.448	1	0
680.787	1	6
681.125	1	-7
681.464	1	-2
681.803	1	-9
682.142	1	9
682.480	1	-12
682.819	1	-3
683.158	1	7
683.496	1	5
683.835	1	6
684.174	1	1
684.512	1	-9
684.851	1	-2
685.190	1	4
685.529	1	-3
685.867	1	4
686.206	1	2
686.545	1	6
686.883	1	-1
687.222	1	4
687.561	1	0
687.899	1	-6
688.238	1	4
688.577	1	-4
688.746	1	8