File: Analysis/GaN_68K_200ms/GaN_sample E_spot4_UVVIS_68 K_200um_200 ms 2x2mm1_731.txt
340.368	1	1
340.710	1	-7
341.052	1	-1
341.394	1	-8
341.737	1	14
342.079	1	1
342.421	1	-9
342.763	1	-5
343.105	1	7
343.447	1	0
343.789	1	-4
344.131	1	-7
344.473	1	-4
344.815	1	1
345.157	1	-4
345.499	1	4
345.841	1	6
346.183	1	-3
346.526	1	3
346.868	1	0
347.210	1	12
347.552	1	4
347.894	1	-11
348.236	1	4
348.578	1	15
348.920	1	6
349.262	1	-7
349.604	1	0
349.946	1	2
350.288	1	7
350.630	1	-7
350.972	1	8
351.314	1	-7
351.656	1	-2
351.998	1	3
352.340	1	2
352.682	1	-10
353.024	1	-13
353.366	1	0
353.708	1	3
354.050	1	0
354.392	1	6
354.734	1	-4
355.076	1	1
355.418	1	0
355.760	1	1
356.102	1	-5
356.444	1	4
356.785	1	12
357.127	1	0
357.469	1	-4
357.811	1	11
358.153	1	1
358.495	1	13
358.837	1	6
359.179	1	1
359.521	1	1
359.863	1	-11
360.205	1	0
360.547	1	5
360.889	1	3
361.231	1	-3
361.572	1	6
361.914	1	-4
362.256	1	10
362.598	1	-2
362.940	1	-8
363.282	1	-1
363.624	1	-1
363.966	1	5
364.308	1	3
364.649	1	-3
364.991	1	2
365.333	1	7
365.675	1	3
366.017	1	10
366.359	1	2
366.701	1	-10
367.042	1	8
367.384	1	6
367.726	1	14
368.068	1	8
368.410	1	-5
368.752	1	-4
369.093	1	-2
369.435	1	8
369.777	1	7
370.119	1	-4
370.461	1	3
370.803	1	-14
371.144	1	11
371.486	1	-3
371.828	1	-5
372.170	1	4
372.512	1	-1
372.853	1	2
373.195	1	-11
373.537	1	1
373.879	1	9
374.220	1	-3
374.562	1	-3
374.904	1	-3
375.246	1	-2
375.588	1	-2
375.929	1	7
376.271	1	3
376.613	1	-8
376.955	1	-1
377.296	1	2
377.638	1	2
377.980	1	2
378.321	1	4
378.663	1	-10
379.005	1	5
379.347	1	10
379.688	1	-7
380.030	1	-11
380.372	1	-1
380.714	1	-5
381.055	1	3
381.397	1	-2
381.739	1	5
382.080	1	-11
382.422	1	14
382.764	1	-7
383.105	1	-3
383.447	1	9
383.789	1	4
384.130	1	-4
384.472	1	-4
384.814	1	8
385.156	1	10
385.497	1	5
385.839	1	0
386.180	1	0
386.522	1	5
386.864	1	-7
387.205	1	2
387.547	1	0
387.889	1	4
388.230	1	-4
388.572	1	4
388.914	1	8
389.255	1	-2
389.597	1	-9
389.939	1	5
390.280	1	8
390.622	1	7
390.963	1	-4
391.305	1	5
391.647	1	-1
391.988	1	-5
392.330	1	7
392.671	1	2
393.013	1	11
393.355	1	10
393.696	1	2
394.038	1	-5
394.379	1	-16
394.721	1	3
395.062	1	-11
395.404	1	1
395.746	1	6
396.087	1	8
396.429	1	7
396.770	1	2
397.112	1	5
397.453	1	-4
397.795	1	11
398.136	1	11
398.478	1	-14
398.819	1	3
399.161	1	-1
399.503	1	-5
399.844	1	-4
400.186	1	9
400.527	1	7
400.869	1	3
401.210	1	-2
401.552	1	15
401.893	1	4
402.235	1	13
402.576	1	4
402.918	1	-4
403.259	1	-7
403.601	1	-5
403.942	1	13
404.284	1	3
404.625	1	3
404.967	1	8
405.308	1	-1
405.649	1	4
405.991	1	6
406.332	1	-7
406.674	1	2
407.015	1	1
407.357	1	3
407.698	1	-4
408.040	1	-6
408.381	1	-4
408.722	1	-4
409.064	1	2
409.405	1	2
409.747	1	-7
410.088	1	5
410.430	1	-2
410.771	1	4
411.112	1	3
411.454	1	5
411.795	1	8
412.137	1	-2
412.478	1	4
412.819	1	-5
413.161	1	4
413.502	1	-5
413.844	1	-5
414.185	1	0
414.526	1	1
414.868	1	6
415.209	1	-8
415.550	1	-13
415.892	1	-3
416.233	1	6
416.575	1	-4
416.916	1	6
417.257	1	1
417.599	1	5
417.940	1	-1
418.281	1	4
418.623	1	-4
418.964	1	-1
419.305	1	-6
419.647	1	-2
419.988	1	-7
420.329	1	12
420.671	1	3
421.012	1	-1
421.353	1	7
421.695	1	-3
422.036	1	-8
422.377	1	4
422.718	1	-5
423.060	1	2
423.401	1	-3
423.742	1	-1
424.084	1	6
424.425	1	-7
424.766	1	-7
425.107	1	-5
425.449	1	-1
425.790	1	-9
426.131	1	2
426.472	1	-12
426.814	1	8
427.155	1	-5
427.496	1	9
427.837	1	-6
428.179	1	-2
428.520	1	-2
428.861	1	0
429.202	1	1
429.544	1	-5
429.885	1	-6
430.226	1	-4
430.567	1	2
430.909	1	-14
431.250	1	-9
431.591	1	3
431.932	1	1
432.273	1	-7
432.615	1	5
432.956	1	-9
433.297	1	2
433.638	1	-3
433.979	1	5
434.320	1	-6
434.662	1	-4
435.003	1	4
435.344	1	7
435.685	1	-3
436.026	1	-6
436.368	1	-5
436.709	1	-5
437.050	1	6
437.391	1	0
437.732	1	-10
438.073	1	6
438.414	1	-12
438.756	1	0
439.097	1	6
439.438	1	7
439.779	1	-3
440.120	1	-4
440.461	1	1
440.802	1	5
441.143	1	-1
441.485	1	-8
441.826	1	-7
442.167	1	6
442.508	1	5
442.849	1	6
443.190	1	-13
443.531	1	3
443.872	1	-1
444.213	1	-3
444.554	1	1
444.895	1	-5
445.237	1	-8
445.578	1	8
445.919	1	1
446.260	1	-3
446.601	1	-6
446.942	1	3
447.283	1	1
447.624	1	6
447.965	1	-4
448.306	1	8
448.647	1	7
448.988	1	-19
449.329	1	-1
449.670	1	4
450.011	1	1
450.352	1	2
450.693	1	9
451.034	1	8
451.375	1	1
451.716	1	7
452.057	1	4
452.398	1	4
452.739	1	-1
453.080	1	11
453.421	1	1
453.762	1	6
454.103	1	3
454.444	1	10
454.785	1	-9
455.126	1	3
455.467	1	4
455.808	1	1
456.149	1	-6
456.490	1	1
456.831	1	0
457.172	1	-1
457.513	1	14
457.854	1	4
458.195	1	2
458.536	1	8
458.877	1	-11
459.218	1	4
459.559	1	0
459.899	1	14
460.240	1	5
460.581	1	9
460.922	1	4
461.263	1	8
461.604	1	-5
461.945	1	3
462.286	1	11
462.627	1	0
462.968	1	1
463.309	1	0
463.649	1	9
463.990	1	-2
464.331	1	10
464.672	1	-6
465.013	1	-2
465.354	1	6
465.695	1	9
466.036	1	-1
466.376	1	-1
466.717	1	-5
467.058	1	5
467.399	1	6
467.740	1	-1
468.081	1	4
468.422	1	3
468.762	1	-12
469.103	1	-3
469.444	1	-7
469.785	1	4
470.126	1	0
470.467	1	-8
470.807	1	-4
471.148	1	-2
471.489	1	-2
471.830	1	5
472.171	1	5
472.511	1	9
472.852	1	-2
473.193	1	-3
473.534	1	-3
473.875	1	5
474.215	1	-3
474.556	1	-9
474.897	1	2
475.238	1	1
475.578	1	-2
475.919	1	-6
476.260	1	2
476.601	1	4
476.942	1	1
477.282	1	-6
477.623	1	4
477.964	1	2
478.305	1	0
478.645	1	-1
478.986	1	0
479.327	1	-6
479.667	1	-1
480.008	1	9
480.349	1	-1
480.690	1	5
481.030	1	-5
481.371	1	2
481.712	1	4
482.053	1	10
482.393	1	-5
482.734	1	-4
483.075	1	5
483.415	1	5
483.756	1	0
484.097	1	-6
484.437	1	-10
484.778	1	9
485.119	1	2
485.459	1	1
485.800	1	1
486.141	1	2
486.481	1	6
486.822	1	-1
487.163	1	-9
487.503	1	-12
487.844	1	2
488.185	1	-5
488.525	1	-2
488.866	1	3
489.207	1	6
489.547	1	1
489.888	1	-1
490.228	1	-6
490.569	1	8
490.910	1	-6
491.250	1	1
491.591	1	-6
491.932	1	7
492.272	1	10
492.613	1	-3
492.953	1	-3
493.294	1	2
493.635	1	-5
493.975	1	-4
494.316	1	11
494.656	1	-3
494.997	1	-9
495.337	1	0
495.678	1	5
496.019	1	4
496.359	1	-3
496.700	1	-2
497.040	1	2
497.381	1	-19
497.721	1	1
498.062	1	-12
498.403	1	7
498.743	1	-6
499.084	1	-18
499.424	1	17
499.765	1	5
500.105	1	6
500.446	1	3
500.786	1	-2
501.127	1	9
501.467	1	-2
501.808	1	0
502.148	1	2
502.489	1	9
502.829	1	4
503.170	1	1
503.510	1	-11
503.851	1	-14
504.191	1	8
504.532	1	3
504.872	1	-4
505.213	1	-1
505.553	1	5
505.894	1	14
506.234	1	11
506.575	1	2
506.915	1	-5
507.256	1	-9
507.596	1	5
507.936	1	2
508.277	1	6
508.617	1	5
508.958	1	15
509.298	1	12
509.639	1	12
509.979	1	-2
510.319	1	-8
510.660	1	12
511.000	1	5
511.341	1	-10
511.681	1	3
512.022	1	-8
512.362	1	1
512.702	1	-15
513.043	1	2
513.383	1	-4
513.724	1	4
514.064	1	1
514.404	1	5
514.745	1	2
515.085	1	6
515.425	1	-5
515.766	1	2
516.106	1	-2
516.447	1	-2
516.787	1	-7
517.127	1	5
517.468	1	0
517.808	1	2
518.148	1	3
518.489	1	3
518.829	1	-6
519.169	1	1
519.510	1	6
519.850	1	-9
520.190	1	-2
520.531	1	7
520.871	1	-5
521.211	1	-1
521.552	1	-1
521.892	1	-3
522.232	1	-3
522.573	1	7
522.913	1	1
523.253	1	6
523.593	1	-12
523.934	1	9
524.274	1	-11
524.614	1	3
524.955	1	6
525.295	1	-7
525.635	1	16
525.975	1	-8
526.316	1	3
526.656	1	9
526.996	1	5
527.337	1	-8
527.677	1	8
528.017	1	-7
528.357	1	3
528.698	1	-4
529.038	1	6
529.378	1	7
529.718	1	0
530.058	1	-8
530.399	1	19
530.739	1	-11
531.079	1	10
531.419	1	0
531.760	1	5
532.100	1	9
532.440	1	2
532.780	1	-2
533.120	1	-13
533.461	1	11
533.801	1	3
534.141	1	3
534.481	1	2
534.821	1	11
535.162	1	-1
535.502	1	4
535.842	1	6
536.182	1	0
536.522	1	0
536.862	1	7
537.203	1	-1
537.543	1	0
537.883	1	7
538.223	1	5
538.563	1	4
538.903	1	-6
539.243	1	-1
539.584	1	-1
539.924	1	8
540.264	1	5
540.604	1	6
540.944	1	-9
541.284	1	-6
541.624	1	3
541.964	1	-7
542.305	1	-11
542.645	1	3
542.985	1	2
543.325	1	5
543.665	1	11
544.005	1	-4
544.345	1	-7
544.685	1	2
545.025	1	-5
545.365	1	-3
545.705	1	-3
546.045	1	6
546.386	1	3
546.726	1	2
547.066	1	-4
547.406	1	7
547.746	1	13
548.086	1	12
548.426	1	-5
548.766	1	1
549.106	1	4
549.446	1	9
549.786	1	2
550.126	1	-4
550.466	1	-9
550.806	1	11
551.146	1	-1
551.486	1	9
551.826	1	0
552.166	1	-2
552.506	1	-6
552.846	1	6
553.186	1	6
553.526	1	-3
553.866	1	5
554.206	1	-3
554.546	1	-7
554.886	1	-6
555.226	1	-8
555.566	1	5
555.906	1	2
556.246	1	1
556.586	1	10
556.926	1	7
557.266	1	6
557.606	1	-4
557.946	1	12
558.286	1	2
558.626	1	5
558.966	1	2
559.306	1	-7
559.646	1	-5
559.986	1	-4
560.325	1	-4
560.665	1	5
561.005	1	-2
561.345	1	-1
561.685	1	5
562.025	1	0
562.365	1	2
562.705	1	9
563.045	1	7
563.385	1	-3
563.725	1	8
564.064	1	5
564.404	1	-3
564.744	1	7
565.084	1	-10
565.424	1	4
565.764	1	5
566.104	1	-2
566.444	1	14
566.783	1	-4
567.123	1	16
567.463	1	1
567.803	1	-5
568.143	1	-2
568.483	1	-7
568.823	1	1
569.162	1	4
569.502	1	-4
569.842	1	1
570.182	1	-1
570.522	1	0
570.862	1	1
571.201	1	11
571.541	1	-4
571.881	1	0
572.221	1	5
572.561	1	-9
572.900	1	3
573.240	1	-7
573.580	1	-2
573.920	1	4
574.260	1	-5
574.599	1	-5
574.939	1	1
575.279	1	3
575.619	1	-4
575.959	1	-6
576.298	1	-9
576.638	1	6
576.978	1	-1
577.318	1	-1
577.657	1	-15
577.997	1	-11
578.337	1	-7
578.677	1	0
579.016	1	11
579.356	1	-4
579.696	1	0
580.036	1	2
580.375	1	2
580.715	1	2
581.055	1	7
581.394	1	-7
581.734	1	10
582.074	1	-8
582.414	1	10
582.753	1	4
583.093	1	2
583.433	1	-7
583.772	1	-5
584.112	1	6
584.452	1	0
584.791	1	-9
585.131	1	-6
585.471	1	4
585.811	1	0
586.150	1	2
586.490	1	-12
586.830	1	-14
587.169	1	-1
587.509	1	8
587.849	1	16
588.188	1	-8
588.528	1	6
588.867	1	6
589.207	1	-10
589.547	1	-4
589.886	1	-7
590.226	1	-3
590.566	1	0
590.905	1	-2
591.245	1	-1
591.585	1	-8
591.924	1	3
592.264	1	-3
592.603	1	-5
592.943	1	1
593.283	1	2
593.622	1	-9
593.962	1	9
594.301	1	10
594.641	1	2
594.981	1	-3
595.320	1	8
595.660	1	-4
595.999	1	3
596.339	1	5
596.678	1	4
597.018	1	-1
597.358	1	7
597.697	1	-5
598.037	1	0
598.376	1	0
598.716	1	-3
599.055	1	2
599.395	1	5
599.734	1	-7
600.074	1	-10
600.413	1	0
600.753	1	2
601.092	1	-22
601.432	1	-1
601.771	1	15
602.111	1	-6
602.451	1	0
602.790	1	3
603.130	1	1
603.469	1	-8
603.809	1	6
604.148	1	-6
604.487	1	3
604.827	1	-10
605.166	1	-1
605.506	1	2
605.845	1	-6
606.185	1	-3
606.524	1	-6
606.864	1	-1
607.203	1	9
607.543	1	-10
607.882	1	-6
608.222	1	3
608.561	1	2
608.901	1	-3
609.240	1	0
609.579	1	6
609.919	1	-4
610.258	1	8
610.598	1	5
610.937	1	2
611.277	1	7
611.616	1	-8
611.955	1	9
612.295	1	7
612.634	1	-2
612.974	1	9
613.313	1	-8
613.652	1	-2
613.992	1	-6
614.331	1	2
614.671	1	-4
615.010	1	2
615.349	1	-3
615.689	1	-2
616.028	1	1
616.368	1	-4
616.707	1	6
617.046	1	10
617.386	1	-15
617.725	1	-3
618.064	1	1
618.404	1	11
618.743	1	-11
619.082	1	-5
619.422	1	-5
619.761	1	-4
620.100	1	2
620.440	1	1
620.779	1	-6
621.118	1	-6
621.458	1	-2
621.797	1	-2
622.136	1	6
622.476	1	7
622.815	1	0
623.154	1	6
623.494	1	7
623.833	1	-3
624.172	1	10
624.511	1	-3
624.851	1	-13
625.190	1	4
625.529	1	1
625.869	1	7
626.208	1	-10
626.547	1	5
626.886	1	-9
627.226	1	-8
627.565	1	2
627.904	1	0
628.243	1	-10
628.583	1	-5
628.922	1	-11
629.261	1	11
629.600	1	4
629.940	1	1
630.279	1	-3
630.618	1	9
630.957	1	-5
631.297	1	-9
631.636	1	2
631.975	1	0
632.314	1	17
632.653	1	-9
632.993	1	3
633.332	1	6
633.671	1	-4
634.010	1	-4
634.349	1	-5
634.689	1	4
635.028	1	4
635.367	1	-7
635.706	1	2
636.045	1	-2
636.384	1	1
636.724	1	5
637.063	1	3
637.402	1	8
637.741	1	7
638.080	1	3
638.419	1	1
638.759	1	3
639.098	1	2
639.437	1	-8
639.776	1	-4
640.115	1	-3
640.454	1	12
640.793	1	9
641.132	1	8
641.472	1	-4
641.811	1	-2
642.150	1	-7
642.489	1	3
642.828	1	-4
643.167	1	8
643.506	1	-2
643.845	1	4
644.184	1	4
644.524	1	-4
644.863	1	-1
645.202	1	2
645.541	1	-11
645.880	1	-5
646.219	1	4
646.558	1	-2
646.897	1	-4
647.236	1	9
647.575	1	-1
647.914	1	-14
648.253	1	6
648.592	1	3
648.931	1	4
649.270	1	10
649.610	1	10
649.949	1	-3
650.288	1	-5
650.627	1	0
650.966	1	-7
651.305	1	-4
651.644	1	-1
651.983	1	3
652.322	1	-1
652.661	1	9
653.000	1	1
653.339	1	-5
653.678	1	-11
654.017	1	-7
654.356	1	13
654.695	1	2
655.034	1	3
655.373	1	-6
655.712	1	-8
656.051	1	10
656.390	1	12
656.729	1	4
657.068	1	-2
657.406	1	3
657.745	1	4
658.084	1	9
658.423	1	-6
658.762	1	5
659.101	1	2
659.440	1	1
659.779	1	-11
660.118	1	7
660.457	1	-8
660.796	1	-3
661.135	1	4
661.474	1	-3
661.813	1	0
662.152	1	4
662.491	1	-2
662.829	1	-5
663.168	1	-5
663.507	1	4
663.846	1	5
664.185	1	1
664.524	1	-7
664.863	1	-5
665.202	1	-14
665.541	1	-3
665.879	1	8
666.218	1	-6
666.557	1	4
666.896	1	-10
667.235	1	0
667.574	1	-6
667.913	1	0
668.251	1	-2
668.590	1	-9
668.929	1	4
669.268	1	6
669.607	1	-9
669.946	1	13
670.285	1	-1
670.623	1	5
670.962	1	1
671.301	1	-9
671.640	1	-7
671.979	1	8
672.317	1	-10
672.656	1	0
672.995	1	0
673.334	1	-3
673.673	1	11
674.011	1	5
674.350	1	-6
674.689	1	0
675.028	1	11
675.367	1	-6
675.705	1	-11
676.044	1	-11
676.383	1	2
676.722	1	-3
677.060	1	6
677.399	1	2
677.738	1	-9
678.077	1	-7
678.416	1	7
678.754	1	-1
679.093	1	0
679.432	1	-2
679.771	1	5
680.109	1	10
680.448	1	0
680.787	1	2
681.125	1	7
681.464	1	-3
681.803	1	-11
682.142	1	10
682.480	1	6
682.819	1	-4
683.158	1	14
683.496	1	-8
683.835	1	3
684.174	1	-4
684.512	1	-2
684.851	1	-6
685.190	1	12
685.529	1	-3
685.867	1	-1
686.206	1	8
686.545	1	5
686.883	1	-9
687.222	1	-3
687.561	1	-1
687.899	1	1
688.238	1	3
688.577	1	-7
688.746	1	2