File: Analysis/GaN_68K_200ms/GaN_sample E_spot4_UVVIS_68 K_200um_200 ms 2x2mm1_400.txt
340.368	1	5
340.710	1	-4
341.052	1	3
341.394	1	-8
341.737	1	2
342.079	1	-8
342.421	1	-5
342.763	1	4
343.105	1	6
343.447	1	-1
343.789	1	-6
344.131	1	-5
344.473	1	-3
344.815	1	3
345.157	1	3
345.499	1	7
345.841	1	5
346.183	1	0
346.526	1	12
346.868	1	2
347.210	1	-1
347.552	1	-2
347.894	1	-3
348.236	1	2
348.578	1	-5
348.920	1	12
349.262	1	-1
349.604	1	17
349.946	1	3
350.288	1	0
350.630	1	-10
350.972	1	-5
351.314	1	-5
351.656	1	7
351.998	1	-4
352.340	1	7
352.682	1	-4
353.024	1	-4
353.366	1	10
353.708	1	3
354.050	1	7
354.392	1	3
354.734	1	-10
355.076	1	0
355.418	1	-3
355.760	1	-2
356.102	1	-2
356.444	1	2
356.785	1	16
357.127	1	1
357.469	1	1
357.811	1	10
358.153	1	-1
358.495	1	14
358.837	1	6
359.179	1	8
359.521	1	1
359.863	1	-10
360.205	1	-4
360.547	1	8
360.889	1	3
361.231	1	4
361.572	1	0
361.914	1	-4
362.256	1	7
362.598	1	4
362.940	1	1
363.282	1	11
363.624	1	9
363.966	1	8
364.308	1	-2
364.649	1	4
364.991	1	10
365.333	1	10
365.675	1	-1
366.017	1	8
366.359	1	-3
366.701	1	1
367.042	1	10
367.384	1	13
367.726	1	3
368.068	1	-1
368.410	1	1
368.752	1	-16
369.093	1	9
369.435	1	6
369.777	1	0
370.119	1	2
370.461	1	-2
370.803	1	-1
371.144	1	10
371.486	1	10
371.828	1	4
372.170	1	6
372.512	1	-6
372.853	1	-3
373.195	1	-1
373.537	1	7
373.879	1	5
374.220	1	1
374.562	1	7
374.904	1	17
375.246	1	0
375.588	1	4
375.929	1	8
376.271	1	-2
376.613	1	10
376.955	1	-11
377.296	1	9
377.638	1	0
377.980	1	6
378.321	1	9
378.663	1	0
379.005	1	4
379.347	1	-4
379.688	1	1
380.030	1	-4
380.372	1	6
380.714	1	1
381.055	1	-1
381.397	1	-6
381.739	1	7
382.080	1	-5
382.422	1	10
382.764	1	1
383.105	1	-5
383.447	1	8
383.789	1	-2
384.130	1	4
384.472	1	-4
384.814	1	15
385.156	1	10
385.497	1	14
385.839	1	16
386.180	1	9
386.522	1	7
386.864	1	4
387.205	1	6
387.547	1	-5
387.889	1	18
388.230	1	1
388.572	1	-2
388.914	1	21
389.255	1	16
389.597	1	5
389.939	1	20
390.280	1	8
390.622	1	-1
390.963	1	3
391.305	1	11
391.647	1	9
391.988	1	6
392.330	1	5
392.671	1	8
393.013	1	12
393.355	1	16
393.696	1	5
394.038	1	-1
394.379	1	-4
394.721	1	14
395.062	1	-2
395.404	1	14
395.746	1	-1
396.087	1	3
396.429	1	10
396.770	1	2
397.112	1	3
397.453	1	-2
397.795	1	11
398.136	1	9
398.478	1	0
398.819	1	11
399.161	1	5
399.503	1	4
399.844	1	1
400.186	1	12
400.527	1	5
400.869	1	8
401.210	1	3
401.552	1	13
401.893	1	11
402.235	1	12
402.576	1	13
402.918	1	1
403.259	1	-2
403.601	1	7
403.942	1	10
404.284	1	3
404.625	1	5
404.967	1	0
405.308	1	0
405.649	1	2
405.991	1	11
406.332	1	4
406.674	1	7
407.015	1	-10
407.357	1	3
407.698	1	3
408.040	1	-4
408.381	1	4
408.722	1	-1
409.064	1	10
409.405	1	7
409.747	1	0
410.088	1	5
410.430	1	12
410.771	1	-1
411.112	1	6
411.454	1	13
411.795	1	12
412.137	1	20
412.478	1	10
412.819	1	9
413.161	1	2
413.502	1	0
413.844	1	0
414.185	1	12
414.526	1	6
414.868	1	-1
415.209	1	1
415.550	1	-9
415.892	1	0
416.233	1	1
416.575	1	-9
416.916	1	-4
417.257	1	8
417.599	1	8
417.940	1	-4
418.281	1	3
418.623	1	1
418.964	1	4
419.305	1	-8
419.647	1	10
419.988	1	-7
420.329	1	13
420.671	1	2
421.012	1	-4
421.353	1	7
421.695	1	-2
422.036	1	-1
422.377	1	2
422.718	1	5
423.060	1	1
423.401	1	0
423.742	1	5
424.084	1	9
424.425	1	4
424.766	1	3
425.107	1	6
425.449	1	5
425.790	1	-5
426.131	1	20
426.472	1	-5
426.814	1	14
427.155	1	-4
427.496	1	12
427.837	1	-11
428.179	1	0
428.520	1	-1
428.861	1	-1
429.202	1	7
429.544	1	5
429.885	1	2
430.226	1	-5
430.567	1	11
430.909	1	-11
431.250	1	-13
431.591	1	4
431.932	1	1
432.273	1	1
432.615	1	6
432.956	1	0
433.297	1	11
433.638	1	-2
433.979	1	5
434.320	1	-5
434.662	1	-1
435.003	1	7
435.344	1	-5
435.685	1	10
436.026	1	-3
436.368	1	1
436.709	1	-15
437.050	1	4
437.391	1	6
437.732	1	9
438.073	1	8
438.414	1	3
438.756	1	1
439.097	1	10
439.438	1	8
439.779	1	0
440.120	1	5
440.461	1	-2
440.802	1	-1
441.143	1	17
441.485	1	-6
441.826	1	-5
442.167	1	11
442.508	1	9
442.849	1	1
443.190	1	-14
443.531	1	0
443.872	1	-9
444.213	1	-9
444.554	1	-2
444.895	1	5
445.237	1	-4
445.578	1	8
445.919	1	-4
446.260	1	3
446.601	1	-9
446.942	1	4
447.283	1	4
447.624	1	2
447.965	1	-1
448.306	1	7
448.647	1	16
448.988	1	-9
449.329	1	3
449.670	1	6
450.011	1	6
450.352	1	11
450.693	1	5
451.034	1	4
451.375	1	10
451.716	1	8
452.057	1	7
452.398	1	6
452.739	1	6
453.080	1	20
453.421	1	-2
453.762	1	-1
454.103	1	8
454.444	1	10
454.785	1	-11
455.126	1	6
455.467	1	8
455.808	1	1
456.149	1	1
456.490	1	3
456.831	1	3
457.172	1	-1
457.513	1	11
457.854	1	3
458.195	1	-5
458.536	1	8
458.877	1	-3
459.218	1	7
459.559	1	4
459.899	1	16
460.240	1	4
460.581	1	3
460.922	1	-1
461.263	1	6
461.604	1	-2
461.945	1	10
462.286	1	6
462.627	1	-4
462.968	1	7
463.309	1	2
463.649	1	-3
463.990	1	6
464.331	1	6
464.672	1	3
465.013	1	-8
465.354	1	0
465.695	1	2
466.036	1	1
466.376	1	-8
466.717	1	-5
467.058	1	1
467.399	1	6
467.740	1	-1
468.081	1	7
468.422	1	0
468.762	1	-6
469.103	1	-4
469.444	1	0
469.785	1	2
470.126	1	4
470.467	1	2
470.807	1	9
471.148	1	2
471.489	1	-2
471.830	1	20
472.171	1	4
472.511	1	9
472.852	1	-3
473.193	1	-6
473.534	1	3
473.875	1	2
474.215	1	-5
474.556	1	-11
474.897	1	1
475.238	1	2
475.578	1	7
475.919	1	-1
476.260	1	-17
476.601	1	-2
476.942	1	6
477.282	1	-4
477.623	1	6
477.964	1	1
478.305	1	5
478.645	1	-2
478.986	1	-10
479.327	1	-5
479.667	1	-5
480.008	1	15
480.349	1	2
480.690	1	-2
481.030	1	-4
481.371	1	7
481.712	1	3
482.053	1	11
482.393	1	-4
482.734	1	1
483.075	1	5
483.415	1	16
483.756	1	16
484.097	1	-8
484.437	1	-7
484.778	1	9
485.119	1	7
485.459	1	7
485.800	1	-1
486.141	1	-7
486.481	1	1
486.822	1	5
487.163	1	-11
487.503	1	-5
487.844	1	0
488.185	1	-2
488.525	1	-2
488.866	1	6
489.207	1	8
489.547	1	-4
489.888	1	5
490.228	1	-3
490.569	1	11
490.910	1	-2
491.250	1	6
491.591	1	4
491.932	1	6
492.272	1	7
492.613	1	1
492.953	1	1
493.294	1	9
493.635	1	2
493.975	1	-6
494.316	1	8
494.656	1	3
494.997	1	0
495.337	1	3
495.678	1	11
496.019	1	-2
496.359	1	2
496.700	1	-3
497.040	1	8
497.381	1	-21
497.721	1	4
498.062	1	-3
498.403	1	10
498.743	1	7
499.084	1	-16
499.424	1	9
499.765	1	-2
500.105	1	14
500.446	1	15
500.786	1	7
501.127	1	9
501.467	1	7
501.808	1	-8
502.148	1	-1
502.489	1	15
502.829	1	3
503.170	1	9
503.510	1	2
503.851	1	-4
504.191	1	-4
504.532	1	-12
504.872	1	-3
505.213	1	0
505.553	1	-2
505.894	1	4
506.234	1	11
506.575	1	1
506.915	1	1
507.256	1	2
507.596	1	2
507.936	1	1
508.277	1	-3
508.617	1	2
508.958	1	4
509.298	1	10
509.639	1	14
509.979	1	4
510.319	1	-4
510.660	1	9
511.000	1	11
511.341	1	-9
511.681	1	2
512.022	1	-12
512.362	1	-1
512.702	1	-7
513.043	1	5
513.383	1	-1
513.724	1	11
514.064	1	0
514.404	1	8
514.745	1	7
515.085	1	-5
515.425	1	1
515.766	1	6
516.106	1	-4
516.447	1	5
516.787	1	-1
517.127	1	-6
517.468	1	1
517.808	1	15
518.148	1	-1
518.489	1	15
518.829	1	-2
519.169	1	5
519.510	1	5
519.850	1	-5
520.190	1	11
520.531	1	-3
520.871	1	-1
521.211	1	8
521.552	1	11
521.892	1	0
522.232	1	-5
522.573	1	0
522.913	1	11
523.253	1	0
523.593	1	-9
523.934	1	12
524.274	1	10
524.614	1	-3
524.955	1	6
525.295	1	-2
525.635	1	5
525.975	1	-1
526.316	1	3
526.656	1	20
526.996	1	13
527.337	1	7
527.677	1	19
528.017	1	-7
528.357	1	3
528.698	1	-1
529.038	1	15
529.378	1	7
529.718	1	3
530.058	1	11
530.399	1	12
530.739	1	-2
531.079	1	7
531.419	1	6
531.760	1	-1
532.100	1	13
532.440	1	-3
532.780	1	0
533.120	1	-3
533.461	1	10
533.801	1	5
534.141	1	11
534.481	1	3
534.821	1	15
535.162	1	3
535.502	1	6
535.842	1	-9
536.182	1	2
536.522	1	5
536.862	1	4
537.203	1	21
537.543	1	9
537.883	1	4
538.223	1	4
538.563	1	-1
538.903	1	5
539.243	1	2
539.584	1	4
539.924	1	6
540.264	1	4
540.604	1	7
540.944	1	3
541.284	1	2
541.624	1	5
541.964	1	3
542.305	1	0
542.645	1	4
542.985	1	5
543.325	1	5
543.665	1	12
544.005	1	-4
544.345	1	0
544.685	1	3
545.025	1	-2
545.365	1	5
545.705	1	8
546.045	1	13
546.386	1	9
546.726	1	-5
547.066	1	0
547.406	1	12
547.746	1	3
548.086	1	6
548.426	1	1
548.766	1	-5
549.106	1	9
549.446	1	0
549.786	1	8
550.126	1	0
550.466	1	-5
550.806	1	8
551.146	1	5
551.486	1	6
551.826	1	6
552.166	1	6
552.506	1	-8
552.846	1	5
553.186	1	2
553.526	1	3
553.866	1	0
554.206	1	0
554.546	1	3
554.886	1	8
555.226	1	-3
555.566	1	6
555.906	1	4
556.246	1	9
556.586	1	11
556.926	1	4
557.266	1	16
557.606	1	2
557.946	1	6
558.286	1	6
558.626	1	0
558.966	1	-5
559.306	1	-1
559.646	1	-6
559.986	1	-8
560.325	1	-6
560.665	1	11
561.005	1	-4
561.345	1	6
561.685	1	4
562.025	1	-2
562.365	1	9
562.705	1	8
563.045	1	3
563.385	1	-1
563.725	1	5
564.064	1	12
564.404	1	0
564.744	1	8
565.084	1	1
565.424	1	-3
565.764	1	16
566.104	1	-6
566.444	1	12
566.783	1	9
567.123	1	14
567.463	1	-4
567.803	1	-1
568.143	1	-1
568.483	1	-9
568.823	1	4
569.162	1	0
569.502	1	9
569.842	1	4
570.182	1	-2
570.522	1	0
570.862	1	4
571.201	1	11
571.541	1	-6
571.881	1	7
572.221	1	3
572.561	1	-6
572.900	1	17
573.240	1	5
573.580	1	-2
573.920	1	-3
574.260	1	-7
574.599	1	5
574.939	1	2
575.279	1	12
575.619	1	7
575.959	1	-2
576.298	1	-9
576.638	1	6
576.978	1	0
577.318	1	12
577.657	1	-13
577.997	1	-3
578.337	1	-1
578.677	1	-6
579.016	1	18
579.356	1	1
579.696	1	6
580.036	1	-1
580.375	1	1
580.715	1	8
581.055	1	9
581.394	1	2
581.734	1	-1
582.074	1	-1
582.414	1	-2
582.753	1	7
583.093	1	-1
583.433	1	-4
583.772	1	-4
584.112	1	6
584.452	1	-3
584.791	1	1
585.131	1	-8
585.471	1	-6
585.811	1	-9
586.150	1	9
586.490	1	-7
586.830	1	-18
587.169	1	4
587.509	1	-4
587.849	1	13
588.188	1	5
588.528	1	6
588.867	1	4
589.207	1	-12
589.547	1	-8
589.886	1	-10
590.226	1	2
590.566	1	4
590.905	1	7
591.245	1	-1
591.585	1	-4
591.924	1	2
592.264	1	7
592.603	1	-7
592.943	1	-1
593.283	1	15
593.622	1	0
593.962	1	9
594.301	1	13
594.641	1	-1
594.981	1	-4
595.320	1	4
595.660	1	4
595.999	1	9
596.339	1	5
596.678	1	0
597.018	1	5
597.358	1	6
597.697	1	-3
598.037	1	-8
598.376	1	11
598.716	1	-4
599.055	1	4
599.395	1	6
599.734	1	-2
600.074	1	-2
600.413	1	-3
600.753	1	4
601.092	1	-1
601.432	1	1
601.771	1	2
602.111	1	-4
602.451	1	-2
602.790	1	0
603.130	1	-6
603.469	1	2
603.809	1	5
604.148	1	3
604.487	1	2
604.827	1	-10
605.166	1	-5
605.506	1	9
605.845	1	1
606.185	1	-3
606.524	1	-2
606.864	1	-8
607.203	1	5
607.543	1	-10
607.882	1	7
608.222	1	3
608.561	1	3
608.901	1	0
609.240	1	3
609.579	1	-3
609.919	1	-5
610.258	1	2
610.598	1	2
610.937	1	-2
611.277	1	7
611.616	1	0
611.955	1	3
612.295	1	6
612.634	1	-2
612.974	1	6
613.313	1	2
613.652	1	-5
613.992	1	10
614.331	1	-1
614.671	1	10
615.010	1	9
615.349	1	0
615.689	1	1
616.028	1	4
616.368	1	-4
616.707	1	-6
617.046	1	9
617.386	1	2
617.725	1	12
618.064	1	-1
618.404	1	8
618.743	1	3
619.082	1	-1
619.422	1	-1
619.761	1	2
620.100	1	3
620.440	1	10
620.779	1	-2
621.118	1	-3
621.458	1	3
621.797	1	2
622.136	1	5
622.476	1	-4
622.815	1	-1
623.154	1	10
623.494	1	1
623.833	1	1
624.172	1	16
624.511	1	0
624.851	1	-11
625.190	1	3
625.529	1	1
625.869	1	6
626.208	1	-8
626.547	1	-9
626.886	1	-6
627.226	1	-3
627.565	1	7
627.904	1	-8
628.243	1	-3
628.583	1	-2
628.922	1	1
629.261	1	9
629.600	1	7
629.940	1	3
630.279	1	-17
630.618	1	3
630.957	1	-8
631.297	1	-8
631.636	1	-5
631.975	1	5
632.314	1	13
632.653	1	-2
632.993	1	7
633.332	1	8
633.671	1	-3
634.010	1	7
634.349	1	3
634.689	1	5
635.028	1	-1
635.367	1	-3
635.706	1	-8
636.045	1	-3
636.384	1	5
636.724	1	-1
637.063	1	4
637.402	1	8
637.741	1	11
638.080	1	-3
638.419	1	4
638.759	1	5
639.098	1	0
639.437	1	-6
639.776	1	3
640.115	1	2
640.454	1	-2
640.793	1	8
641.132	1	7
641.472	1	-2
641.811	1	-2
642.150	1	5
642.489	1	-5
642.828	1	-2
643.167	1	9
643.506	1	-9
643.845	1	6
644.184	1	2
644.524	1	-5
644.863	1	-10
645.202	1	1
645.541	1	-5
645.880	1	-3
646.219	1	6
646.558	1	0
646.897	1	-6
647.236	1	6
647.575	1	-1
647.914	1	-4
648.253	1	8
648.592	1	-3
648.931	1	7
649.270	1	10
649.610	1	9
649.949	1	-1
650.288	1	-7
650.627	1	-2
650.966	1	-2
651.305	1	-3
651.644	1	4
651.983	1	3
652.322	1	-1
652.661	1	0
653.000	1	-5
653.339	1	-2
653.678	1	-1
654.017	1	4
654.356	1	9
654.695	1	9
655.034	1	-2
655.373	1	7
655.712	1	-1
656.051	1	8
656.390	1	-2
656.729	1	3
657.068	1	2
657.406	1	7
657.745	1	-10
658.084	1	5
658.423	1	-6
658.762	1	-8
659.101	1	-6
659.440	1	13
659.779	1	0
660.118	1	0
660.457	1	-6
660.796	1	-7
661.135	1	7
661.474	1	2
661.813	1	7
662.152	1	-6
662.491	1	0
662.829	1	-4
663.168	1	3
663.507	1	0
663.846	1	13
664.185	1	-3
664.524	1	-3
664.863	1	5
665.202	1	-8
665.541	1	2
665.879	1	1
666.218	1	-6
666.557	1	7
666.896	1	0
667.235	1	0
667.574	1	6
667.913	1	7
668.251	1	-4
668.590	1	-4
668.929	1	-5
669.268	1	0
669.607	1	-11
669.946	1	11
670.285	1	6
670.623	1	-2
670.962	1	0
671.301	1	2
671.640	1	-12
671.979	1	16
672.317	1	-2
672.656	1	1
672.995	1	6
673.334	1	8
673.673	1	16
674.011	1	11
674.350	1	-1
674.689	1	2
675.028	1	-3
675.367	1	12
675.705	1	-11
676.044	1	-1
676.383	1	-2
676.722	1	7
677.060	1	5
677.399	1	-3
677.738	1	-7
678.077	1	2
678.416	1	-3
678.754	1	-2
679.093	1	1
679.432	1	0
679.771	1	1
680.109	1	6
680.448	1	-6
680.787	1	5
681.125	1	4
681.464	1	-1
681.803	1	-6
682.142	1	11
682.480	1	6
682.819	1	14
683.158	1	3
683.496	1	-3
683.835	1	-1
684.174	1	4
684.512	1	0
684.851	1	0
685.190	1	9
685.529	1	-2
685.867	1	3
686.206	1	7
686.545	1	6
686.883	1	2
687.222	1	-3
687.561	1	3
687.899	1	-1
688.238	1	4
688.577	1	-8
688.746	1	-1