File: Analysis/GaN_68K_200ms/GaN_sample E_spot4_UVVIS_68 K_200um_200 ms 2x2mm1_560.txt
340.368	1	3
340.710	1	-6
341.052	1	5
341.394	1	-7
341.737	1	4
342.079	1	-3
342.421	1	-9
342.763	1	-1
343.105	1	2
343.447	1	5
343.789	1	-2
344.131	1	-6
344.473	1	0
344.815	1	4
345.157	1	-1
345.499	1	2
345.841	1	0
346.183	1	-4
346.526	1	8
346.868	1	-1
347.210	1	0
347.552	1	3
347.894	1	2
348.236	1	2
348.578	1	3
348.920	1	5
349.262	1	-4
349.604	1	12
349.946	1	2
350.288	1	2
350.630	1	-10
350.972	1	-6
351.314	1	3
351.656	1	7
351.998	1	-3
352.340	1	1
352.682	1	3
353.024	1	-3
353.366	1	8
353.708	1	4
354.050	1	-1
354.392	1	10
354.734	1	-3
355.076	1	-4
355.418	1	-4
355.760	1	-2
356.102	1	-3
356.444	1	0
356.785	1	3
357.127	1	1
357.469	1	-4
357.811	1	12
358.153	1	8
358.495	1	12
358.837	1	6
359.179	1	5
359.521	1	-1
359.863	1	4
360.205	1	-1
360.547	1	4
360.889	1	-3
361.231	1	9
361.572	1	-4
361.914	1	-3
362.256	1	12
362.598	1	3
362.940	1	-6
363.282	1	1
363.624	1	9
363.966	1	4
364.308	1	-7
364.649	1	5
364.991	1	1
365.333	1	2
365.675	1	3
366.017	1	7
366.359	1	-5
366.701	1	-12
367.042	1	13
367.384	1	8
367.726	1	9
368.068	1	3
368.410	1	-6
368.752	1	0
369.093	1	12
369.435	1	0
369.777	1	-2
370.119	1	7
370.461	1	0
370.803	1	0
371.144	1	4
371.486	1	10
371.828	1	9
372.170	1	2
372.512	1	-5
372.853	1	3
373.195	1	1
373.537	1	5
373.879	1	7
374.220	1	1
374.562	1	7
374.904	1	4
375.246	1	-2
375.588	1	-10
375.929	1	6
376.271	1	-1
376.613	1	8
376.955	1	-7
377.296	1	2
377.638	1	4
377.980	1	3
378.321	1	-3
378.663	1	0
379.005	1	-3
379.347	1	8
379.688	1	-1
380.030	1	1
380.372	1	-4
380.714	1	8
381.055	1	10
381.397	1	2
381.739	1	5
382.080	1	-5
382.422	1	12
382.764	1	2
383.105	1	0
383.447	1	14
383.789	1	3
384.130	1	-6
384.472	1	-5
384.814	1	9
385.156	1	16
385.497	1	0
385.839	1	0
386.180	1	4
386.522	1	2
386.864	1	0
387.205	1	7
387.547	1	-4
387.889	1	12
388.230	1	8
388.572	1	1
388.914	1	8
389.255	1	0
389.597	1	-1
389.939	1	5
390.280	1	9
390.622	1	1
390.963	1	12
391.305	1	15
391.647	1	5
391.988	1	-3
392.330	1	11
392.671	1	3
393.013	1	7
393.355	1	16
393.696	1	-2
394.038	1	3
394.379	1	-5
394.721	1	-2
395.062	1	-8
395.404	1	8
395.746	1	-10
396.087	1	-1
396.429	1	8
396.770	1	9
397.112	1	-4
397.453	1	-3
397.795	1	0
398.136	1	1
398.478	1	3
398.819	1	10
399.161	1	2
399.503	1	10
399.844	1	-2
400.186	1	11
400.527	1	6
400.869	1	4
401.210	1	-1
401.552	1	13
401.893	1	4
402.235	1	11
402.576	1	9
402.918	1	-7
403.259	1	-3
403.601	1	-10
403.942	1	10
404.284	1	1
404.625	1	8
404.967	1	7
405.308	1	4
405.649	1	4
405.991	1	11
406.332	1	3
406.674	1	5
407.015	1	-4
407.357	1	-3
407.698	1	-1
408.040	1	-12
408.381	1	-1
408.722	1	-1
409.064	1	3
409.405	1	2
409.747	1	1
410.088	1	10
410.430	1	4
410.771	1	3
411.112	1	4
411.454	1	6
411.795	1	5
412.137	1	18
412.478	1	9
412.819	1	-8
413.161	1	-2
413.502	1	-5
413.844	1	-8
414.185	1	3
414.526	1	13
414.868	1	5
415.209	1	2
415.550	1	-9
415.892	1	-13
416.233	1	3
416.575	1	-4
416.916	1	-2
417.257	1	13
417.599	1	4
417.940	1	1
418.281	1	1
418.623	1	-3
418.964	1	0
419.305	1	1
419.647	1	7
419.988	1	-5
420.329	1	-1
420.671	1	-2
421.012	1	9
421.353	1	5
421.695	1	1
422.036	1	4
422.377	1	2
422.718	1	6
423.060	1	0
423.401	1	8
423.742	1	9
424.084	1	3
424.425	1	0
424.766	1	0
425.107	1	-2
425.449	1	5
425.790	1	0
426.131	1	3
426.472	1	-8
426.814	1	10
427.155	1	0
427.496	1	14
427.837	1	-8
428.179	1	-2
428.520	1	-9
428.861	1	2
429.202	1	4
429.544	1	5
429.885	1	-1
430.226	1	-6
430.567	1	2
430.909	1	-3
431.250	1	-6
431.591	1	3
431.932	1	7
432.273	1	-7
432.615	1	1
432.956	1	-6
433.297	1	8
433.638	1	-9
433.979	1	0
434.320	1	-3
434.662	1	1
435.003	1	-1
435.344	1	1
435.685	1	1
436.026	1	6
436.368	1	0
436.709	1	-2
437.050	1	11
437.391	1	6
437.732	1	-2
438.073	1	4
438.414	1	1
438.756	1	5
439.097	1	5
439.438	1	6
439.779	1	4
440.120	1	2
440.461	1	-8
440.802	1	5
441.143	1	10
441.485	1	-8
441.826	1	-1
442.167	1	5
442.508	1	3
442.849	1	8
443.190	1	-20
443.531	1	5
443.872	1	-3
444.213	1	0
444.554	1	0
444.895	1	-5
445.237	1	4
445.578	1	1
445.919	1	4
446.260	1	-8
446.601	1	1
446.942	1	7
447.283	1	-4
447.624	1	1
447.965	1	-11
448.306	1	-1
448.647	1	3
448.988	1	-11
449.329	1	-4
449.670	1	9
450.011	1	-5
450.352	1	10
450.693	1	5
451.034	1	10
451.375	1	8
451.716	1	8
452.057	1	4
452.398	1	1
452.739	1	1
453.080	1	8
453.421	1	4
453.762	1	2
454.103	1	-7
454.444	1	10
454.785	1	-6
455.126	1	-3
455.467	1	7
455.808	1	6
456.149	1	2
456.490	1	8
456.831	1	8
457.172	1	1
457.513	1	8
457.854	1	-4
458.195	1	-4
458.536	1	7
458.877	1	3
459.218	1	4
459.559	1	-1
459.899	1	13
460.240	1	4
460.581	1	13
460.922	1	-6
461.263	1	10
461.604	1	-10
461.945	1	9
462.286	1	1
462.627	1	-6
462.968	1	0
463.309	1	5
463.649	1	-2
463.990	1	8
464.331	1	3
464.672	1	7
465.013	1	-5
465.354	1	3
465.695	1	11
466.036	1	-2
466.376	1	4
466.717	1	-12
467.058	1	10
467.399	1	0
467.740	1	4
468.081	1	-4
468.422	1	-5
468.762	1	-6
469.103	1	2
469.444	1	7
469.785	1	4
470.126	1	7
470.467	1	-6
470.807	1	-1
471.148	1	-7
471.489	1	0
471.830	1	17
472.171	1	-7
472.511	1	10
472.852	1	-6
473.193	1	-6
473.534	1	1
473.875	1	12
474.215	1	-2
474.556	1	-7
474.897	1	1
475.238	1	0
475.578	1	-3
475.919	1	1
476.260	1	2
476.601	1	2
476.942	1	-4
477.282	1	-17
477.623	1	2
477.964	1	9
478.305	1	1
478.645	1	-8
478.986	1	-8
479.327	1	2
479.667	1	7
480.008	1	3
480.349	1	1
480.690	1	3
481.030	1	-3
481.371	1	7
481.712	1	8
482.053	1	12
482.393	1	-2
482.734	1	2
483.075	1	7
483.415	1	9
483.756	1	10
484.097	1	-9
484.437	1	-11
484.778	1	5
485.119	1	4
485.459	1	9
485.800	1	0
486.141	1	-4
486.481	1	0
486.822	1	6
487.163	1	-10
487.503	1	-13
487.844	1	-2
488.185	1	-9
488.525	1	-1
488.866	1	3
489.207	1	0
489.547	1	-7
489.888	1	-1
490.228	1	-7
490.569	1	6
490.910	1	-1
491.250	1	0
491.591	1	-13
491.932	1	8
492.272	1	12
492.613	1	8
492.953	1	12
493.294	1	14
493.635	1	2
493.975	1	5
494.316	1	3
494.656	1	1
494.997	1	3
495.337	1	3
495.678	1	-2
496.019	1	-2
496.359	1	-3
496.700	1	-5
497.040	1	3
497.381	1	-16
497.721	1	2
498.062	1	5
498.403	1	1
498.743	1	3
499.084	1	-15
499.424	1	10
499.765	1	3
500.105	1	10
500.446	1	3
500.786	1	-5
501.127	1	10
501.467	1	-2
501.808	1	-10
502.148	1	3
502.489	1	3
502.829	1	-1
503.170	1	-2
503.510	1	-5
503.851	1	-9
504.191	1	3
504.532	1	-10
504.872	1	6
505.213	1	-1
505.553	1	11
505.894	1	-2
506.234	1	13
506.575	1	1
506.915	1	2
507.256	1	-13
507.596	1	1
507.936	1	4
508.277	1	-1
508.617	1	5
508.958	1	5
509.298	1	10
509.639	1	10
509.979	1	9
510.319	1	2
510.660	1	2
511.000	1	11
511.341	1	-8
511.681	1	3
512.022	1	-5
512.362	1	1
512.702	1	-5
513.043	1	1
513.383	1	-5
513.724	1	11
514.064	1	3
514.404	1	2
514.745	1	-5
515.085	1	0
515.425	1	-6
515.766	1	0
516.106	1	-1
516.447	1	2
516.787	1	-5
517.127	1	-3
517.468	1	-2
517.808	1	5
518.148	1	-4
518.489	1	6
518.829	1	-7
519.169	1	11
519.510	1	-5
519.850	1	-7
520.190	1	5
520.531	1	3
520.871	1	-9
521.211	1	-1
521.552	1	3
521.892	1	-8
522.232	1	7
522.573	1	2
522.913	1	9
523.253	1	8
523.593	1	-19
523.934	1	9
524.274	1	-3
524.614	1	8
524.955	1	2
525.295	1	-6
525.635	1	8
525.975	1	-4
526.316	1	7
526.656	1	20
526.996	1	5
527.337	1	8
527.677	1	15
528.017	1	-9
528.357	1	4
528.698	1	-6
529.038	1	2
529.378	1	5
529.718	1	7
530.058	1	2
530.399	1	3
530.739	1	-2
531.079	1	11
531.419	1	16
531.760	1	3
532.100	1	4
532.440	1	-1
532.780	1	2
533.120	1	1
533.461	1	11
533.801	1	0
534.141	1	10
534.481	1	-4
534.821	1	1
535.162	1	3
535.502	1	9
535.842	1	2
536.182	1	-2
536.522	1	5
536.862	1	0
537.203	1	3
537.543	1	8
537.883	1	11
538.223	1	9
538.563	1	2
538.903	1	-4
539.243	1	5
539.584	1	3
539.924	1	8
540.264	1	4
540.604	1	8
540.944	1	-4
541.284	1	4
541.624	1	8
541.964	1	3
542.305	1	-5
542.645	1	0
542.985	1	-8
543.325	1	-4
543.665	1	12
544.005	1	5
544.345	1	0
544.685	1	6
545.025	1	-7
545.365	1	5
545.705	1	5
546.045	1	15
546.386	1	1
546.726	1	5
547.066	1	-7
547.406	1	10
547.746	1	0
548.086	1	5
548.426	1	5
548.766	1	-5
549.106	1	0
549.446	1	-5
549.786	1	4
550.126	1	-2
550.466	1	-3
550.806	1	12
551.146	1	1
551.486	1	6
551.826	1	0
552.166	1	4
552.506	1	-6
552.846	1	10
553.186	1	0
553.526	1	-2
553.866	1	0
554.206	1	2
554.546	1	-10
554.886	1	-3
555.226	1	-4
555.566	1	0
555.906	1	9
556.246	1	3
556.586	1	12
556.926	1	8
557.266	1	9
557.606	1	-3
557.946	1	11
558.286	1	3
558.626	1	3
558.966	1	-4
559.306	1	-2
559.646	1	2
559.986	1	-3
560.325	1	-13
560.665	1	12
561.005	1	4
561.345	1	-1
561.685	1	-6
562.025	1	-3
562.365	1	-2
562.705	1	7
563.045	1	4
563.385	1	-1
563.725	1	-2
564.064	1	14
564.404	1	0
564.744	1	11
565.084	1	-10
565.424	1	-4
565.764	1	4
566.104	1	2
566.444	1	12
566.783	1	8
567.123	1	17
567.463	1	2
567.803	1	-1
568.143	1	-4
568.483	1	1
568.823	1	8
569.162	1	-6
569.502	1	3
569.842	1	-5
570.182	1	-8
570.522	1	9
570.862	1	4
571.201	1	4
571.541	1	0
571.881	1	4
572.221	1	4
572.561	1	-5
572.900	1	13
573.240	1	-9
573.580	1	3
573.920	1	-17
574.260	1	-4
574.599	1	-6
574.939	1	-2
575.279	1	11
575.619	1	0
575.959	1	-6
576.298	1	-7
576.638	1	5
576.978	1	10
577.318	1	3
577.657	1	-17
577.997	1	0
578.337	1	-2
578.677	1	2
579.016	1	14
579.356	1	-3
579.696	1	8
580.036	1	-5
580.375	1	1
580.715	1	6
581.055	1	2
581.394	1	-6
581.734	1	2
582.074	1	-1
582.414	1	3
582.753	1	3
583.093	1	-1
583.433	1	-6
583.772	1	5
584.112	1	3
584.452	1	6
584.791	1	7
585.131	1	-5
585.471	1	2
585.811	1	-7
586.150	1	-6
586.490	1	-5
586.830	1	-8
587.169	1	3
587.509	1	-2
587.849	1	5
588.188	1	-3
588.528	1	6
588.867	1	11
589.207	1	-15
589.547	1	-3
589.886	1	-10
590.226	1	4
590.566	1	-4
590.905	1	3
591.245	1	-6
591.585	1	5
591.924	1	-6
592.264	1	-8
592.603	1	-6
592.943	1	0
593.283	1	7
593.622	1	-5
593.962	1	-1
594.301	1	11
594.641	1	-3
594.981	1	1
595.320	1	6
595.660	1	0
595.999	1	8
596.339	1	6
596.678	1	0
597.018	1	-5
597.358	1	13
597.697	1	-4
598.037	1	5
598.376	1	4
598.716	1	-11
599.055	1	1
599.395	1	15
599.734	1	-1
600.074	1	-1
600.413	1	-6
600.753	1	7
601.092	1	-12
601.432	1	2
601.771	1	13
602.111	1	-13
602.451	1	3
602.790	1	2
603.130	1	12
603.469	1	-7
603.809	1	11
604.148	1	6
604.487	1	9
604.827	1	-3
605.166	1	-12
605.506	1	4
605.845	1	-1
606.185	1	-4
606.524	1	-8
606.864	1	2
607.203	1	8
607.543	1	-7
607.882	1	-3
608.222	1	5
608.561	1	4
608.901	1	10
609.240	1	-15
609.579	1	9
609.919	1	-4
610.258	1	10
610.598	1	-1
610.937	1	2
611.277	1	9
611.616	1	-3
611.955	1	7
612.295	1	0
612.634	1	0
612.974	1	14
613.313	1	-9
613.652	1	-12
613.992	1	-4
614.331	1	2
614.671	1	8
615.010	1	13
615.349	1	-3
615.689	1	4
616.028	1	-3
616.368	1	0
616.707	1	-2
617.046	1	7
617.386	1	5
617.725	1	10
618.064	1	0
618.404	1	8
618.743	1	-5
619.082	1	5
619.422	1	-5
619.761	1	6
620.100	1	3
620.440	1	3
620.779	1	-6
621.118	1	-1
621.458	1	2
621.797	1	-2
622.136	1	0
622.476	1	4
622.815	1	3
623.154	1	1
623.494	1	-1
623.833	1	2
624.172	1	6
624.511	1	-5
624.851	1	-13
625.190	1	-4
625.529	1	7
625.869	1	10
626.208	1	-2
626.547	1	0
626.886	1	1
627.226	1	2
627.565	1	-7
627.904	1	5
628.243	1	-9
628.583	1	-1
628.922	1	-5
629.261	1	0
629.600	1	4
629.940	1	1
630.279	1	-5
630.618	1	3
630.957	1	-10
631.297	1	-3
631.636	1	2
631.975	1	1
632.314	1	4
632.653	1	-8
632.993	1	11
633.332	1	11
633.671	1	6
634.010	1	2
634.349	1	-5
634.689	1	7
635.028	1	8
635.367	1	4
635.706	1	-3
636.045	1	-7
636.384	1	4
636.724	1	0
637.063	1	5
637.402	1	3
637.741	1	4
638.080	1	-1
638.419	1	2
638.759	1	7
639.098	1	1
639.437	1	-4
639.776	1	-7
640.115	1	-4
640.454	1	11
640.793	1	5
641.132	1	6
641.472	1	2
641.811	1	2
642.150	1	-1
642.489	1	5
642.828	1	-1
643.167	1	8
643.506	1	-3
643.845	1	0
644.184	1	-1
644.524	1	-4
644.863	1	-7
645.202	1	1
645.541	1	-2
645.880	1	2
646.219	1	0
646.558	1	3
646.897	1	-7
647.236	1	2
647.575	1	2
647.914	1	-4
648.253	1	0
648.592	1	-4
648.931	1	7
649.270	1	11
649.610	1	3
649.949	1	-5
650.288	1	-6
650.627	1	-2
650.966	1	-7
651.305	1	4
651.644	1	-1
651.983	1	2
652.322	1	3
652.661	1	5
653.000	1	0
653.339	1	7
653.678	1	-9
654.017	1	-3
654.356	1	4
654.695	1	5
655.034	1	-1
655.373	1	-1
655.712	1	-11
656.051	1	7
656.390	1	2
656.729	1	3
657.068	1	1
657.406	1	1
657.745	1	-10
658.084	1	12
658.423	1	-5
658.762	1	1
659.101	1	9
659.440	1	3
659.779	1	-1
660.118	1	6
660.457	1	-6
660.796	1	-5
661.135	1	2
661.474	1	3
661.813	1	4
662.152	1	1
662.491	1	6
662.829	1	-3
663.168	1	-2
663.507	1	1
663.846	1	4
664.185	1	-8
664.524	1	-3
664.863	1	12
665.202	1	-8
665.541	1	8
665.879	1	-2
666.218	1	-11
666.557	1	6
666.896	1	-3
667.235	1	-2
667.574	1	4
667.913	1	0
668.251	1	-3
668.590	1	-4
668.929	1	5
669.268	1	-3
669.607	1	-9
669.946	1	12
670.285	1	-2
670.623	1	9
670.962	1	-5
671.301	1	-5
671.640	1	-20
671.979	1	14
672.317	1	-8
672.656	1	1
672.995	1	-7
673.334	1	8
673.673	1	13
674.011	1	3
674.350	1	-9
674.689	1	-8
675.028	1	2
675.367	1	9
675.705	1	-7
676.044	1	-12
676.383	1	-5
676.722	1	3
677.060	1	4
677.399	1	-2
677.738	1	-8
678.077	1	1
678.416	1	-3
678.754	1	-8
679.093	1	7
679.432	1	-5
679.771	1	2
680.109	1	8
680.448	1	-1
680.787	1	-8
681.125	1	1
681.464	1	-6
681.803	1	-6
682.142	1	23
682.480	1	4
682.819	1	6
683.158	1	1
683.496	1	-10
683.835	1	0
684.174	1	-2
684.512	1	2
684.851	1	-5
685.190	1	4
685.529	1	5
685.867	1	1
686.206	1	5
686.545	1	0
686.883	1	-9
687.222	1	-7
687.561	1	-3
687.899	1	-3
688.238	1	0
688.577	1	-6
688.746	1	2