File: Analysis/GaN_68K_200ms/GaN_sample E_spot4_UVVIS_68 K_200um_200 ms 2x2mm1_528.txt
340.368	1	3
340.710	1	-8
341.052	1	-2
341.394	1	-8
341.737	1	10
342.079	1	-1
342.421	1	-2
342.763	1	5
343.105	1	13
343.447	1	-1
343.789	1	2
344.131	1	0
344.473	1	3
344.815	1	1
345.157	1	3
345.499	1	5
345.841	1	7
346.183	1	6
346.526	1	7
346.868	1	-2
347.210	1	-4
347.552	1	2
347.894	1	-5
348.236	1	0
348.578	1	-2
348.920	1	14
349.262	1	-6
349.604	1	9
349.946	1	5
350.288	1	-1
350.630	1	-5
350.972	1	6
351.314	1	-3
351.656	1	6
351.998	1	-10
352.340	1	-1
352.682	1	-6
353.024	1	-3
353.366	1	-1
353.708	1	0
354.050	1	7
354.392	1	-3
354.734	1	0
355.076	1	-1
355.418	1	7
355.760	1	1
356.102	1	5
356.444	1	4
356.785	1	13
357.127	1	-8
357.469	1	1
357.811	1	13
358.153	1	4
358.495	1	8
358.837	1	0
359.179	1	5
359.521	1	0
359.863	1	3
360.205	1	-4
360.547	1	4
360.889	1	3
361.231	1	3
361.572	1	-3
361.914	1	-9
362.256	1	13
362.598	1	0
362.940	1	-5
363.282	1	-2
363.624	1	0
363.966	1	11
364.308	1	-1
364.649	1	-8
364.991	1	9
365.333	1	12
365.675	1	-1
366.017	1	-2
366.359	1	2
366.701	1	-6
367.042	1	2
367.384	1	-5
367.726	1	3
368.068	1	1
368.410	1	-5
368.752	1	-6
369.093	1	-1
369.435	1	2
369.777	1	1
370.119	1	2
370.461	1	-3
370.803	1	2
371.144	1	10
371.486	1	4
371.828	1	2
372.170	1	6
372.512	1	-5
372.853	1	4
373.195	1	-10
373.537	1	-2
373.879	1	7
374.220	1	4
374.562	1	3
374.904	1	0
375.246	1	4
375.588	1	5
375.929	1	-1
376.271	1	-6
376.613	1	3
376.955	1	-3
377.296	1	8
377.638	1	1
377.980	1	3
378.321	1	5
378.663	1	-8
379.005	1	9
379.347	1	6
379.688	1	4
380.030	1	-1
380.372	1	-10
380.714	1	6
381.055	1	1
381.397	1	-13
381.739	1	10
382.080	1	-17
382.422	1	2
382.764	1	2
383.105	1	3
383.447	1	11
383.789	1	-6
384.130	1	-15
384.472	1	-4
384.814	1	8
385.156	1	10
385.497	1	10
385.839	1	9
386.180	1	-3
386.522	1	6
386.864	1	0
387.205	1	-2
387.547	1	-3
387.889	1	6
388.230	1	8
388.572	1	10
388.914	1	4
389.255	1	1
389.597	1	1
389.939	1	6
390.280	1	17
390.622	1	-1
390.963	1	3
391.305	1	8
391.647	1	0
391.988	1	-1
392.330	1	15
392.671	1	3
393.013	1	9
393.355	1	12
393.696	1	1
394.038	1	1
394.379	1	0
394.721	1	2
395.062	1	-2
395.404	1	3
395.746	1	1
396.087	1	-1
396.429	1	10
396.770	1	-1
397.112	1	-5
397.453	1	-7
397.795	1	-3
398.136	1	5
398.478	1	-4
398.819	1	11
399.161	1	1
399.503	1	1
399.844	1	4
400.186	1	9
400.527	1	1
400.869	1	13
401.210	1	-10
401.552	1	8
401.893	1	5
402.235	1	7
402.576	1	9
402.918	1	-3
403.259	1	-6
403.601	1	-2
403.942	1	2
404.284	1	-3
404.625	1	0
404.967	1	-3
405.308	1	-1
405.649	1	-1
405.991	1	7
406.332	1	-2
406.674	1	13
407.015	1	-6
407.357	1	1
407.698	1	-5
408.040	1	-1
408.381	1	-5
408.722	1	-2
409.064	1	2
409.405	1	5
409.747	1	-1
410.088	1	6
410.430	1	7
410.771	1	0
411.112	1	6
411.454	1	12
411.795	1	5
412.137	1	5
412.478	1	9
412.819	1	5
413.161	1	-5
413.502	1	5
413.844	1	-3
414.185	1	8
414.526	1	2
414.868	1	6
415.209	1	4
415.550	1	-1
415.892	1	-8
416.233	1	6
416.575	1	3
416.916	1	-6
417.257	1	7
417.599	1	5
417.940	1	5
418.281	1	-7
418.623	1	-2
418.964	1	9
419.305	1	-4
419.647	1	5
419.988	1	-3
420.329	1	6
420.671	1	5
421.012	1	11
421.353	1	11
421.695	1	2
422.036	1	-3
422.377	1	1
422.718	1	-6
423.060	1	-11
423.401	1	-2
423.742	1	1
424.084	1	7
424.425	1	0
424.766	1	-1
425.107	1	5
425.449	1	-1
425.790	1	1
426.131	1	1
426.472	1	-11
426.814	1	10
427.155	1	1
427.496	1	16
427.837	1	-3
428.179	1	-15
428.520	1	3
428.861	1	6
429.202	1	6
429.544	1	4
429.885	1	-1
430.226	1	-6
430.567	1	16
430.909	1	-9
431.250	1	-6
431.591	1	0
431.932	1	10
432.273	1	-2
432.615	1	3
432.956	1	0
433.297	1	3
433.638	1	-6
433.979	1	1
434.320	1	-6
434.662	1	2
435.003	1	5
435.344	1	0
435.685	1	0
436.026	1	-3
436.368	1	-8
436.709	1	3
437.050	1	4
437.391	1	0
437.732	1	6
438.073	1	3
438.414	1	7
438.756	1	4
439.097	1	0
439.438	1	8
439.779	1	5
440.120	1	-5
440.461	1	-1
440.802	1	3
441.143	1	4
441.485	1	-5
441.826	1	-12
442.167	1	8
442.508	1	-1
442.849	1	1
443.190	1	-6
443.531	1	6
443.872	1	3
444.213	1	-8
444.554	1	-7
444.895	1	-8
445.237	1	-6
445.578	1	7
445.919	1	1
446.260	1	1
446.601	1	-11
446.942	1	2
447.283	1	2
447.624	1	8
447.965	1	-6
448.306	1	-4
448.647	1	8
448.988	1	-8
449.329	1	8
449.670	1	10
450.011	1	4
450.352	1	11
450.693	1	5
451.034	1	10
451.375	1	12
451.716	1	2
452.057	1	4
452.398	1	4
452.739	1	1
453.080	1	9
453.421	1	-3
453.762	1	-4
454.103	1	-3
454.444	1	13
454.785	1	-4
455.126	1	5
455.467	1	2
455.808	1	-6
456.149	1	-2
456.490	1	2
456.831	1	16
457.172	1	2
457.513	1	6
457.854	1	2
458.195	1	-5
458.536	1	0
458.877	1	-2
459.218	1	3
459.559	1	-2
459.899	1	12
460.240	1	0
460.581	1	7
460.922	1	5
461.263	1	-2
461.604	1	2
461.945	1	4
462.286	1	3
462.627	1	4
462.968	1	0
463.309	1	5
463.649	1	-3
463.990	1	-2
464.331	1	-1
464.672	1	5
465.013	1	-6
465.354	1	7
465.695	1	3
466.036	1	8
466.376	1	4
466.717	1	1
467.058	1	10
467.399	1	-3
467.740	1	-3
468.081	1	2
468.422	1	5
468.762	1	-13
469.103	1	1
469.444	1	1
469.785	1	7
470.126	1	12
470.467	1	-7
470.807	1	-7
471.148	1	-6
471.489	1	-3
471.830	1	10
472.171	1	-7
472.511	1	7
472.852	1	-5
473.193	1	-15
473.534	1	-3
473.875	1	-5
474.215	1	-6
474.556	1	-15
474.897	1	-1
475.238	1	2
475.578	1	1
475.919	1	2
476.260	1	0
476.601	1	-1
476.942	1	-5
477.282	1	-10
477.623	1	8
477.964	1	3
478.305	1	12
478.645	1	8
478.986	1	5
479.327	1	-3
479.667	1	3
480.008	1	13
480.349	1	6
480.690	1	6
481.030	1	-5
481.371	1	1
481.712	1	-3
482.053	1	5
482.393	1	-14
482.734	1	0
483.075	1	5
483.415	1	8
483.756	1	14
484.097	1	-16
484.437	1	-14
484.778	1	10
485.119	1	2
485.459	1	7
485.800	1	-5
486.141	1	-12
486.481	1	-4
486.822	1	3
487.163	1	-6
487.503	1	-14
487.844	1	1
488.185	1	2
488.525	1	-1
488.866	1	3
489.207	1	9
489.547	1	-8
489.888	1	9
490.228	1	-9
490.569	1	5
490.910	1	-5
491.250	1	3
491.591	1	-2
491.932	1	0
492.272	1	7
492.613	1	2
492.953	1	0
493.294	1	3
493.635	1	2
493.975	1	2
494.316	1	11
494.656	1	-5
494.997	1	-1
495.337	1	-4
495.678	1	7
496.019	1	-7
496.359	1	7
496.700	1	5
497.040	1	5
497.381	1	-16
497.721	1	-5
498.062	1	1
498.403	1	1
498.743	1	5
499.084	1	-9
499.424	1	12
499.765	1	-4
500.105	1	5
500.446	1	4
500.786	1	3
501.127	1	3
501.467	1	-2
501.808	1	-6
502.148	1	0
502.489	1	3
502.829	1	-4
503.170	1	10
503.510	1	0
503.851	1	-18
504.191	1	0
504.532	1	-8
504.872	1	7
505.213	1	3
505.553	1	7
505.894	1	3
506.234	1	9
506.575	1	6
506.915	1	0
507.256	1	-10
507.596	1	5
507.936	1	3
508.277	1	-4
508.617	1	9
508.958	1	16
509.298	1	6
509.639	1	3
509.979	1	3
510.319	1	6
510.660	1	16
511.000	1	12
511.341	1	-6
511.681	1	-5
512.022	1	-6
512.362	1	-2
512.702	1	-13
513.043	1	7
513.383	1	2
513.724	1	3
514.064	1	15
514.404	1	0
514.745	1	0
515.085	1	-1
515.425	1	7
515.766	1	-5
516.106	1	0
516.447	1	1
516.787	1	-4
517.127	1	4
517.468	1	-9
517.808	1	1
518.148	1	3
518.489	1	0
518.829	1	-2
519.169	1	5
519.510	1	3
519.850	1	1
520.190	1	10
520.531	1	5
520.871	1	-9
521.211	1	6
521.552	1	8
521.892	1	-1
522.232	1	-2
522.573	1	-3
522.913	1	5
523.253	1	2
523.593	1	-7
523.934	1	6
524.274	1	-6
524.614	1	7
524.955	1	-6
525.295	1	-8
525.635	1	16
525.975	1	-3
526.316	1	-7
526.656	1	22
526.996	1	16
527.337	1	2
527.677	1	7
528.017	1	-2
528.357	1	17
528.698	1	-5
529.038	1	7
529.378	1	-1
529.718	1	-3
530.058	1	0
530.399	1	15
530.739	1	5
531.079	1	11
531.419	1	3
531.760	1	1
532.100	1	0
532.440	1	-4
532.780	1	1
533.120	1	-2
533.461	1	13
533.801	1	-4
534.141	1	8
534.481	1	4
534.821	1	6
535.162	1	7
535.502	1	4
535.842	1	-5
536.182	1	-2
536.522	1	11
536.862	1	0
537.203	1	1
537.543	1	-4
537.883	1	12
538.223	1	13
538.563	1	-5
538.903	1	-5
539.243	1	1
539.584	1	-4
539.924	1	8
540.264	1	4
540.604	1	6
540.944	1	1
541.284	1	-5
541.624	1	3
541.964	1	9
542.305	1	-11
542.645	1	0
542.985	1	-9
543.325	1	4
543.665	1	6
544.005	1	-3
544.345	1	-3
544.685	1	6
545.025	1	1
545.365	1	2
545.705	1	8
546.045	1	3
546.386	1	10
546.726	1	10
547.066	1	-10
547.406	1	8
547.746	1	7
548.086	1	1
548.426	1	-3
548.766	1	5
549.106	1	1
549.446	1	1
549.786	1	5
550.126	1	-8
550.466	1	6
550.806	1	3
551.146	1	-1
551.486	1	8
551.826	1	2
552.166	1	3
552.506	1	1
552.846	1	14
553.186	1	0
553.526	1	-6
553.866	1	2
554.206	1	0
554.546	1	0
554.886	1	2
555.226	1	-7
555.566	1	5
555.906	1	5
556.246	1	3
556.586	1	8
556.926	1	4
557.266	1	13
557.606	1	3
557.946	1	-2
558.286	1	7
558.626	1	9
558.966	1	0
559.306	1	2
559.646	1	-4
559.986	1	-5
560.325	1	-7
560.665	1	18
561.005	1	5
561.345	1	-1
561.685	1	-8
562.025	1	-5
562.365	1	0
562.705	1	3
563.045	1	6
563.385	1	-11
563.725	1	4
564.064	1	12
564.404	1	-3
564.744	1	1
565.084	1	-7
565.424	1	-2
565.764	1	8
566.104	1	-11
566.444	1	14
566.783	1	-2
567.123	1	15
567.463	1	2
567.803	1	-4
568.143	1	-9
568.483	1	-6
568.823	1	2
569.162	1	2
569.502	1	-1
569.842	1	-1
570.182	1	-4
570.522	1	2
570.862	1	5
571.201	1	6
571.541	1	-9
571.881	1	-1
572.221	1	1
572.561	1	-7
572.900	1	17
573.240	1	-5
573.580	1	8
573.920	1	-1
574.260	1	1
574.599	1	-1
574.939	1	-2
575.279	1	-8
575.619	1	-3
575.959	1	2
576.298	1	-3
576.638	1	8
576.978	1	-4
577.318	1	8
577.657	1	-13
577.997	1	-15
578.337	1	3
578.677	1	-5
579.016	1	15
579.356	1	1
579.696	1	8
580.036	1	-8
580.375	1	-11
580.715	1	7
581.055	1	4
581.394	1	-3
581.734	1	0
582.074	1	-2
582.414	1	-4
582.753	1	8
583.093	1	-8
583.433	1	-7
583.772	1	-3
584.112	1	10
584.452	1	1
584.791	1	-3
585.131	1	5
585.471	1	5
585.811	1	-4
586.150	1	5
586.490	1	-2
586.830	1	-5
587.169	1	-4
587.509	1	4
587.849	1	4
588.188	1	-1
588.528	1	-1
588.867	1	2
589.207	1	-13
589.547	1	-1
589.886	1	-12
590.226	1	-1
590.566	1	-3
590.905	1	6
591.245	1	5
591.585	1	-6
591.924	1	1
592.264	1	-10
592.603	1	-4
592.943	1	-11
593.283	1	6
593.622	1	0
593.962	1	-1
594.301	1	10
594.641	1	-5
594.981	1	-2
595.320	1	14
595.660	1	-10
595.999	1	1
596.339	1	4
596.678	1	-5
597.018	1	1
597.358	1	11
597.697	1	-7
598.037	1	-1
598.376	1	13
598.716	1	-3
599.055	1	-1
599.395	1	9
599.734	1	-7
600.074	1	-9
600.413	1	6
600.753	1	3
601.092	1	-12
601.432	1	-6
601.771	1	4
602.111	1	-1
602.451	1	-6
602.790	1	4
603.130	1	5
603.469	1	2
603.809	1	0
604.148	1	9
604.487	1	4
604.827	1	-12
605.166	1	-10
605.506	1	-4
605.845	1	5
606.185	1	6
606.524	1	-4
606.864	1	-5
607.203	1	8
607.543	1	-5
607.882	1	-4
608.222	1	-3
608.561	1	3
608.901	1	7
609.240	1	-1
609.579	1	4
609.919	1	-4
610.258	1	0
610.598	1	3
610.937	1	-5
611.277	1	5
611.616	1	-9
611.955	1	-5
612.295	1	2
612.634	1	-4
612.974	1	7
613.313	1	-2
613.652	1	-9
613.992	1	2
614.331	1	9
614.671	1	6
615.010	1	7
615.349	1	-2
615.689	1	0
616.028	1	-6
616.368	1	1
616.707	1	-3
617.046	1	5
617.386	1	8
617.725	1	-2
618.064	1	4
618.404	1	12
618.743	1	0
619.082	1	7
619.422	1	-5
619.761	1	12
620.100	1	2
620.440	1	3
620.779	1	-2
621.118	1	0
621.458	1	5
621.797	1	-1
622.136	1	0
622.476	1	2
622.815	1	4
623.154	1	4
623.494	1	-2
623.833	1	-3
624.172	1	12
624.511	1	-7
624.851	1	-12
625.190	1	0
625.529	1	4
625.869	1	4
626.208	1	-5
626.547	1	9
626.886	1	5
627.226	1	-1
627.565	1	14
627.904	1	0
628.243	1	-7
628.583	1	1
628.922	1	-2
629.261	1	1
629.600	1	12
629.940	1	10
630.279	1	-6
630.618	1	-13
630.957	1	-9
631.297	1	-4
631.636	1	2
631.975	1	-2
632.314	1	10
632.653	1	-3
632.993	1	8
633.332	1	6
633.671	1	2
634.010	1	-2
634.349	1	3
634.689	1	1
635.028	1	-7
635.367	1	-1
635.706	1	-7
636.045	1	0
636.384	1	7
636.724	1	9
637.063	1	10
637.402	1	0
637.741	1	1
638.080	1	0
638.419	1	10
638.759	1	-4
639.098	1	4
639.437	1	-5
639.776	1	4
640.115	1	-8
640.454	1	11
640.793	1	12
641.132	1	-2
641.472	1	-4
641.811	1	-1
642.150	1	4
642.489	1	-6
642.828	1	-2
643.167	1	14
643.506	1	-14
643.845	1	2
644.184	1	8
644.524	1	-9
644.863	1	-15
645.202	1	0
645.541	1	-5
645.880	1	-1
646.219	1	-1
646.558	1	4
646.897	1	1
647.236	1	4
647.575	1	0
647.914	1	-9
648.253	1	6
648.592	1	7
648.931	1	11
649.270	1	10
649.610	1	5
649.949	1	-6
650.288	1	6
650.627	1	1
650.966	1	0
651.305	1	-9
651.644	1	-2
651.983	1	10
652.322	1	4
652.661	1	6
653.000	1	-5
653.339	1	0
653.678	1	4
654.017	1	4
654.356	1	9
654.695	1	0
655.034	1	-3
655.373	1	-2
655.712	1	-4
656.051	1	8
656.390	1	0
656.729	1	4
657.068	1	-5
657.406	1	6
657.745	1	0
658.084	1	3
658.423	1	-3
658.762	1	-13
659.101	1	-2
659.440	1	4
659.779	1	1
660.118	1	6
660.457	1	-3
660.796	1	5
661.135	1	6
661.474	1	0
661.813	1	-7
662.152	1	4
662.491	1	1
662.829	1	-7
663.168	1	-5
663.507	1	-6
663.846	1	8
664.185	1	-3
664.524	1	-8
664.863	1	1
665.202	1	-3
665.541	1	0
665.879	1	-10
666.218	1	-2
666.557	1	5
666.896	1	-8
667.235	1	-7
667.574	1	1
667.913	1	6
668.251	1	4
668.590	1	0
668.929	1	2
669.268	1	12
669.607	1	-11
669.946	1	8
670.285	1	-2
670.623	1	-6
670.962	1	-3
671.301	1	1
671.640	1	-12
671.979	1	11
672.317	1	-4
672.656	1	7
672.995	1	-6
673.334	1	9
673.673	1	9
674.011	1	10
674.350	1	-10
674.689	1	4
675.028	1	3
675.367	1	-8
675.705	1	-13
676.044	1	3
676.383	1	-3
676.722	1	4
677.060	1	5
677.399	1	7
677.738	1	3
678.077	1	-2
678.416	1	4
678.754	1	-12
679.093	1	-1
679.432	1	-4
679.771	1	-5
680.109	1	9
680.448	1	1
680.787	1	0
681.125	1	1
681.464	1	0
681.803	1	-13
682.142	1	8
682.480	1	-4
682.819	1	-1
683.158	1	-3
683.496	1	1
683.835	1	6
684.174	1	-2
684.512	1	2
684.851	1	-16
685.190	1	6
685.529	1	0
685.867	1	1
686.206	1	3
686.545	1	0
686.883	1	1
687.222	1	-3
687.561	1	8
687.899	1	1
688.238	1	5
688.577	1	-9
688.746	1	10