File: Analysis/GaN_68K_200ms/GaN_sample E_spot4_UVVIS_68 K_200um_200 ms 2x2mm1_771.txt
340.368	1	-1
340.710	1	-5
341.052	1	0
341.394	1	0
341.737	1	-3
342.079	1	-7
342.421	1	-7
342.763	1	-6
343.105	1	12
343.447	1	6
343.789	1	-6
344.131	1	-6
344.473	1	-12
344.815	1	5
345.157	1	4
345.499	1	1
345.841	1	-6
346.183	1	-2
346.526	1	8
346.868	1	3
347.210	1	0
347.552	1	-4
347.894	1	4
348.236	1	2
348.578	1	4
348.920	1	3
349.262	1	-5
349.604	1	10
349.946	1	4
350.288	1	-4
350.630	1	-15
350.972	1	-8
351.314	1	2
351.656	1	-4
351.998	1	-3
352.340	1	-8
352.682	1	-7
353.024	1	-3
353.366	1	4
353.708	1	6
354.050	1	4
354.392	1	13
354.734	1	1
355.076	1	5
355.418	1	-15
355.760	1	-3
356.102	1	-5
356.444	1	3
356.785	1	12
357.127	1	-3
357.469	1	-4
357.811	1	12
358.153	1	-6
358.495	1	5
358.837	1	4
359.179	1	-5
359.521	1	-2
359.863	1	-8
360.205	1	-4
360.547	1	3
360.889	1	-1
361.231	1	-4
361.572	1	4
361.914	1	-1
362.256	1	7
362.598	1	-6
362.940	1	5
363.282	1	-5
363.624	1	7
363.966	1	9
364.308	1	-5
364.649	1	-1
364.991	1	-1
365.333	1	12
365.675	1	-1
366.017	1	5
366.359	1	3
366.701	1	-3
367.042	1	4
367.384	1	10
367.726	1	4
368.068	1	-3
368.410	1	4
368.752	1	-6
369.093	1	6
369.435	1	1
369.777	1	-9
370.119	1	11
370.461	1	3
370.803	1	-5
371.144	1	6
371.486	1	13
371.828	1	1
372.170	1	6
372.512	1	0
372.853	1	7
373.195	1	-12
373.537	1	1
373.879	1	2
374.220	1	3
374.562	1	-2
374.904	1	0
375.246	1	-7
375.588	1	-7
375.929	1	6
376.271	1	-4
376.613	1	5
376.955	1	1
377.296	1	7
377.638	1	-7
377.980	1	10
378.321	1	-1
378.663	1	-8
379.005	1	10
379.347	1	6
379.688	1	-1
380.030	1	-10
380.372	1	-3
380.714	1	-4
381.055	1	-5
381.397	1	-7
381.739	1	7
382.080	1	-11
382.422	1	8
382.764	1	7
383.105	1	3
383.447	1	10
383.789	1	7
384.130	1	-8
384.472	1	-4
384.814	1	-3
385.156	1	16
385.497	1	6
385.839	1	3
386.180	1	1
386.522	1	0
386.864	1	-4
387.205	1	0
387.547	1	-8
387.889	1	9
388.230	1	5
388.572	1	-1
388.914	1	3
389.255	1	4
389.597	1	-3
389.939	1	0
390.280	1	13
390.622	1	-11
390.963	1	7
391.305	1	4
391.647	1	8
391.988	1	-1
392.330	1	7
392.671	1	-3
393.013	1	9
393.355	1	15
393.696	1	4
394.038	1	2
394.379	1	-6
394.721	1	-1
395.062	1	-3
395.404	1	10
395.746	1	-3
396.087	1	1
396.429	1	8
396.770	1	8
397.112	1	1
397.453	1	-10
397.795	1	3
398.136	1	5
398.478	1	7
398.819	1	9
399.161	1	2
399.503	1	1
399.844	1	5
400.186	1	11
400.527	1	0
400.869	1	5
401.210	1	-10
401.552	1	16
401.893	1	0
402.235	1	10
402.576	1	9
402.918	1	-10
403.259	1	-11
403.601	1	-1
403.942	1	2
404.284	1	0
404.625	1	-1
404.967	1	1
405.308	1	3
405.649	1	0
405.991	1	1
406.332	1	-1
406.674	1	3
407.015	1	-9
407.357	1	7
407.698	1	-15
408.040	1	-7
408.381	1	0
408.722	1	-1
409.064	1	-4
409.405	1	3
409.747	1	-3
410.088	1	4
410.430	1	7
410.771	1	7
411.112	1	0
411.454	1	10
411.795	1	-2
412.137	1	8
412.478	1	10
412.819	1	-1
413.161	1	-10
413.502	1	-3
413.844	1	-4
414.185	1	5
414.526	1	-3
414.868	1	4
415.209	1	-9
415.550	1	-4
415.892	1	-1
416.233	1	2
416.575	1	-3
416.916	1	-4
417.257	1	2
417.599	1	2
417.940	1	0
418.281	1	4
418.623	1	-6
418.964	1	-1
419.305	1	6
419.647	1	7
419.988	1	-8
420.329	1	-1
420.671	1	2
421.012	1	13
421.353	1	5
421.695	1	-2
422.036	1	-3
422.377	1	3
422.718	1	3
423.060	1	-10
423.401	1	1
423.742	1	-3
424.084	1	5
424.425	1	8
424.766	1	-1
425.107	1	0
425.449	1	0
425.790	1	-5
426.131	1	5
426.472	1	4
426.814	1	7
427.155	1	0
427.496	1	3
427.837	1	-5
428.179	1	-7
428.520	1	-10
428.861	1	1
429.202	1	3
429.544	1	3
429.885	1	-4
430.226	1	-10
430.567	1	15
430.909	1	-1
431.250	1	-9
431.591	1	0
431.932	1	5
432.273	1	0
432.615	1	-4
432.956	1	-2
433.297	1	2
433.638	1	-2
433.979	1	2
434.320	1	-7
434.662	1	-6
435.003	1	11
435.344	1	3
435.685	1	6
436.026	1	0
436.368	1	6
436.709	1	-7
437.050	1	4
437.391	1	1
437.732	1	1
438.073	1	11
438.414	1	3
438.756	1	-5
439.097	1	4
439.438	1	6
439.779	1	-2
440.120	1	2
440.461	1	-3
440.802	1	-1
441.143	1	4
441.485	1	-1
441.826	1	5
442.167	1	0
442.508	1	1
442.849	1	6
443.190	1	-18
443.531	1	2
443.872	1	7
444.213	1	-5
444.554	1	2
444.895	1	4
445.237	1	-13
445.578	1	14
445.919	1	-7
446.260	1	-5
446.601	1	-1
446.942	1	1
447.283	1	-2
447.624	1	5
447.965	1	-8
448.306	1	-3
448.647	1	7
448.988	1	-9
449.329	1	8
449.670	1	10
450.011	1	2
450.352	1	5
450.693	1	-1
451.034	1	13
451.375	1	3
451.716	1	10
452.057	1	7
452.398	1	-3
452.739	1	-5
453.080	1	7
453.421	1	-2
453.762	1	2
454.103	1	-5
454.444	1	-7
454.785	1	-6
455.126	1	-2
455.467	1	-3
455.808	1	-10
456.149	1	-14
456.490	1	1
456.831	1	9
457.172	1	1
457.513	1	6
457.854	1	2
458.195	1	3
458.536	1	8
458.877	1	0
459.218	1	5
459.559	1	-2
459.899	1	17
460.240	1	6
460.581	1	2
460.922	1	-9
461.263	1	3
461.604	1	-6
461.945	1	9
462.286	1	9
462.627	1	-1
462.968	1	-2
463.309	1	-2
463.649	1	-2
463.990	1	2
464.331	1	6
464.672	1	-1
465.013	1	-14
465.354	1	1
465.695	1	8
466.036	1	0
466.376	1	-9
466.717	1	-7
467.058	1	10
467.399	1	0
467.740	1	-7
468.081	1	4
468.422	1	7
468.762	1	-12
469.103	1	-11
469.444	1	-4
469.785	1	0
470.126	1	-2
470.467	1	-9
470.807	1	-1
471.148	1	-8
471.489	1	-7
471.830	1	4
472.171	1	-1
472.511	1	6
472.852	1	-7
473.193	1	-5
473.534	1	0
473.875	1	-6
474.215	1	-8
474.556	1	-11
474.897	1	1
475.238	1	-3
475.578	1	7
475.919	1	6
476.260	1	2
476.601	1	-9
476.942	1	-3
477.282	1	-9
477.623	1	7
477.964	1	15
478.305	1	6
478.645	1	-4
478.986	1	-8
479.327	1	-2
479.667	1	4
480.008	1	8
480.349	1	-3
480.690	1	-3
481.030	1	-5
481.371	1	15
481.712	1	-1
482.053	1	4
482.393	1	-12
482.734	1	-3
483.075	1	2
483.415	1	3
483.756	1	10
484.097	1	1
484.437	1	-2
484.778	1	6
485.119	1	8
485.459	1	2
485.800	1	-9
486.141	1	-6
486.481	1	2
486.822	1	10
487.163	1	-4
487.503	1	-11
487.844	1	4
488.185	1	-8
488.525	1	-8
488.866	1	4
489.207	1	7
489.547	1	0
489.888	1	-2
490.228	1	-11
490.569	1	5
490.910	1	-5
491.250	1	-3
491.591	1	3
491.932	1	4
492.272	1	5
492.613	1	4
492.953	1	7
493.294	1	-3
493.635	1	6
493.975	1	-4
494.316	1	9
494.656	1	4
494.997	1	-9
495.337	1	-5
495.678	1	10
496.019	1	-11
496.359	1	3
496.700	1	5
497.040	1	6
497.381	1	-14
497.721	1	-5
498.062	1	-5
498.403	1	2
498.743	1	0
499.084	1	-9
499.424	1	10
499.765	1	1
500.105	1	2
500.446	1	6
500.786	1	-3
501.127	1	7
501.467	1	-4
501.808	1	-7
502.148	1	5
502.489	1	4
502.829	1	0
503.170	1	4
503.510	1	-4
503.851	1	-16
504.191	1	5
504.532	1	-14
504.872	1	-6
505.213	1	4
505.553	1	0
505.894	1	0
506.234	1	3
506.575	1	7
506.915	1	-6
507.256	1	0
507.596	1	7
507.936	1	10
508.277	1	4
508.617	1	13
508.958	1	9
509.298	1	8
509.639	1	12
509.979	1	-2
510.319	1	2
510.660	1	0
511.000	1	5
511.341	1	-5
511.681	1	12
512.022	1	3
512.362	1	4
512.702	1	-12
513.043	1	-5
513.383	1	-14
513.724	1	9
514.064	1	3
514.404	1	-4
514.745	1	6
515.085	1	0
515.425	1	-11
515.766	1	-1
516.106	1	4
516.447	1	10
516.787	1	1
517.127	1	6
517.468	1	5
517.808	1	3
518.148	1	8
518.489	1	6
518.829	1	-2
519.169	1	-2
519.510	1	-1
519.850	1	-12
520.190	1	0
520.531	1	6
520.871	1	-3
521.211	1	-3
521.552	1	3
521.892	1	-5
522.232	1	-8
522.573	1	10
522.913	1	3
523.253	1	0
523.593	1	-15
523.934	1	-4
524.274	1	-3
524.614	1	0
524.955	1	4
525.295	1	0
525.635	1	13
525.975	1	-3
526.316	1	-6
526.656	1	15
526.996	1	9
527.337	1	6
527.677	1	10
528.017	1	6
528.357	1	11
528.698	1	2
529.038	1	6
529.378	1	4
529.718	1	5
530.058	1	-3
530.399	1	9
530.739	1	-2
531.079	1	4
531.419	1	10
531.760	1	5
532.100	1	6
532.440	1	-7
532.780	1	-5
533.120	1	-1
533.461	1	10
533.801	1	-5
534.141	1	4
534.481	1	-4
534.821	1	8
535.162	1	2
535.502	1	0
535.842	1	-2
536.182	1	-2
536.522	1	9
536.862	1	7
537.203	1	6
537.543	1	-5
537.883	1	5
538.223	1	9
538.563	1	-1
538.903	1	1
539.243	1	-6
539.584	1	6
539.924	1	1
540.264	1	0
540.604	1	-4
540.944	1	-1
541.284	1	-2
541.624	1	7
541.964	1	6
542.305	1	-8
542.645	1	-2
542.985	1	1
543.325	1	-9
543.665	1	11
544.005	1	1
544.345	1	-11
544.685	1	9
545.025	1	-12
545.365	1	6
545.705	1	0
546.045	1	6
546.386	1	2
546.726	1	-2
547.066	1	-14
547.406	1	6
547.746	1	5
548.086	1	0
548.426	1	-2
548.766	1	-4
549.106	1	1
549.446	1	-3
549.786	1	4
550.126	1	-2
550.466	1	-9
550.806	1	9
551.146	1	1
551.486	1	-5
551.826	1	6
552.166	1	3
552.506	1	-5
552.846	1	2
553.186	1	6
553.526	1	4
553.866	1	-5
554.206	1	2
554.546	1	-10
554.886	1	-2
555.226	1	-7
555.566	1	-2
555.906	1	6
556.246	1	11
556.586	1	3
556.926	1	14
557.266	1	9
557.606	1	-6
557.946	1	-5
558.286	1	5
558.626	1	5
558.966	1	-1
559.306	1	-6
559.646	1	-1
559.986	1	-16
560.325	1	-11
560.665	1	3
561.005	1	-4
561.345	1	5
561.685	1	-7
562.025	1	0
562.365	1	8
562.705	1	10
563.045	1	3
563.385	1	-3
563.725	1	-4
564.064	1	11
564.404	1	5
564.744	1	6
565.084	1	-6
565.424	1	-3
565.764	1	3
566.104	1	-7
566.444	1	14
566.783	1	1
567.123	1	10
567.463	1	-1
567.803	1	-7
568.143	1	-7
568.483	1	-7
568.823	1	9
569.162	1	4
569.502	1	-2
569.842	1	4
570.182	1	-8
570.522	1	0
570.862	1	1
571.201	1	6
571.541	1	1
571.881	1	-1
572.221	1	-4
572.561	1	-8
572.900	1	18
573.240	1	-7
573.580	1	8
573.920	1	-6
574.260	1	-3
574.599	1	3
574.939	1	0
575.279	1	7
575.619	1	3
575.959	1	-6
576.298	1	-14
576.638	1	1
576.978	1	-10
577.318	1	7
577.657	1	-16
577.997	1	-17
578.337	1	1
578.677	1	-10
579.016	1	8
579.356	1	-3
579.696	1	3
580.036	1	-1
580.375	1	-3
580.715	1	15
581.055	1	3
581.394	1	-4
581.734	1	6
582.074	1	-4
582.414	1	4
582.753	1	1
583.093	1	-3
583.433	1	-5
583.772	1	4
584.112	1	5
584.452	1	-5
584.791	1	-9
585.131	1	-11
585.471	1	0
585.811	1	-5
586.150	1	7
586.490	1	-10
586.830	1	-4
587.169	1	2
587.509	1	-3
587.849	1	12
588.188	1	-7
588.528	1	5
588.867	1	4
589.207	1	-10
589.547	1	-1
589.886	1	-7
590.226	1	0
590.566	1	-1
590.905	1	2
591.245	1	-1
591.585	1	2
591.924	1	-5
592.264	1	1
592.603	1	-6
592.943	1	2
593.283	1	0
593.622	1	-3
593.962	1	4
594.301	1	5
594.641	1	-1
594.981	1	4
595.320	1	8
595.660	1	-9
595.999	1	-1
596.339	1	7
596.678	1	-1
597.018	1	0
597.358	1	1
597.697	1	0
598.037	1	-4
598.376	1	9
598.716	1	3
599.055	1	-1
599.395	1	8
599.734	1	-4
600.074	1	-4
600.413	1	-2
600.753	1	2
601.092	1	-12
601.432	1	2
601.771	1	5
602.111	1	-9
602.451	1	-5
602.790	1	1
603.130	1	6
603.469	1	1
603.809	1	9
604.148	1	2
604.487	1	-2
604.827	1	-3
605.166	1	-1
605.506	1	7
605.845	1	-8
606.185	1	1
606.524	1	-5
606.864	1	-4
607.203	1	9
607.543	1	-6
607.882	1	1
608.222	1	1
608.561	1	11
608.901	1	3
609.240	1	-11
609.579	1	0
609.919	1	-10
610.258	1	4
610.598	1	6
610.937	1	-6
611.277	1	2
611.616	1	-4
611.955	1	-10
612.295	1	-3
612.634	1	4
612.974	1	3
613.313	1	-2
613.652	1	0
613.992	1	-1
614.331	1	-4
614.671	1	10
615.010	1	2
615.349	1	3
615.689	1	-3
616.028	1	-4
616.368	1	-3
616.707	1	1
617.046	1	-1
617.386	1	-8
617.725	1	11
618.064	1	5
618.404	1	8
618.743	1	-4
619.082	1	6
619.422	1	5
619.761	1	0
620.100	1	-2
620.440	1	10
620.779	1	-3
621.118	1	6
621.458	1	5
621.797	1	2
622.136	1	-1
622.476	1	2
622.815	1	-5
623.154	1	-2
623.494	1	1
623.833	1	-4
624.172	1	10
624.511	1	7
624.851	1	-12
625.190	1	-5
625.529	1	4
625.869	1	2
626.208	1	-10
626.547	1	-3
626.886	1	-6
627.226	1	3
627.565	1	6
627.904	1	-3
628.243	1	-5
628.583	1	-4
628.922	1	-1
629.261	1	1
629.600	1	7
629.940	1	2
630.279	1	-6
630.618	1	0
630.957	1	-4
631.297	1	5
631.636	1	1
631.975	1	-1
632.314	1	7
632.653	1	-6
632.993	1	0
633.332	1	3
633.671	1	-7
634.010	1	-2
634.349	1	7
634.689	1	15
635.028	1	0
635.367	1	5
635.706	1	-1
636.045	1	1
636.384	1	3
636.724	1	1
637.063	1	4
637.402	1	7
637.741	1	6
638.080	1	-5
638.419	1	8
638.759	1	-1
639.098	1	-2
639.437	1	-8
639.776	1	-2
640.115	1	-8
640.454	1	1
640.793	1	6
641.132	1	3
641.472	1	1
641.811	1	4
642.150	1	-1
642.489	1	-1
642.828	1	4
643.167	1	-2
643.506	1	-6
643.845	1	1
644.184	1	7
644.524	1	-15
644.863	1	-12
645.202	1	8
645.541	1	-7
645.880	1	-2
646.219	1	-1
646.558	1	-2
646.897	1	-7
647.236	1	3
647.575	1	5
647.914	1	-9
648.253	1	2
648.592	1	-2
648.931	1	5
649.270	1	9
649.610	1	11
649.949	1	-7
650.288	1	-6
650.627	1	5
650.966	1	-8
651.305	1	-17
651.644	1	-4
651.983	1	2
652.322	1	3
652.661	1	-2
653.000	1	0
653.339	1	4
653.678	1	3
654.017	1	0
654.356	1	-1
654.695	1	0
655.034	1	-5
655.373	1	-1
655.712	1	-4
656.051	1	7
656.390	1	-7
656.729	1	3
657.068	1	-6
657.406	1	6
657.745	1	-7
658.084	1	2
658.423	1	-7
658.762	1	-10
659.101	1	2
659.440	1	8
659.779	1	-8
660.118	1	6
660.457	1	-4
660.796	1	-6
661.135	1	-6
661.474	1	0
661.813	1	2
662.152	1	-7
662.491	1	-1
662.829	1	-2
663.168	1	-4
663.507	1	-1
663.846	1	6
664.185	1	0
664.524	1	-4
664.863	1	-2
665.202	1	-9
665.541	1	0
665.879	1	-3
666.218	1	-6
666.557	1	14
666.896	1	-7
667.235	1	-3
667.574	1	0
667.913	1	3
668.251	1	-6
668.590	1	-9
668.929	1	-4
669.268	1	8
669.607	1	-4
669.946	1	15
670.285	1	3
670.623	1	2
670.962	1	0
671.301	1	-4
671.640	1	-16
671.979	1	7
672.317	1	-6
672.656	1	3
672.995	1	8
673.334	1	7
673.673	1	15
674.011	1	0
674.350	1	-2
674.689	1	1
675.028	1	-2
675.367	1	0
675.705	1	-3
676.044	1	-12
676.383	1	1
676.722	1	-3
677.060	1	3
677.399	1	-1
677.738	1	-7
678.077	1	3
678.416	1	-3
678.754	1	8
679.093	1	-2
679.432	1	-6
679.771	1	-5
680.109	1	5
680.448	1	-7
680.787	1	6
681.125	1	9
681.464	1	-1
681.803	1	-8
682.142	1	14
682.480	1	-2
682.819	1	3
683.158	1	-1
683.496	1	-10
683.835	1	5
684.174	1	-5
684.512	1	2
684.851	1	4
685.190	1	-1
685.529	1	4
685.867	1	-12
686.206	1	4
686.545	1	4
686.883	1	-4
687.222	1	-8
687.561	1	5
687.899	1	-2
688.238	1	-7
688.577	1	-12
688.746	1	-2