File: Analysis/GaN_68K_200ms/GaN_sample E_spot4_UVVIS_68 K_200um_200 ms 2x2mm1_510.txt
340.368	1	4
340.710	1	-2
341.052	1	3
341.394	1	-4
341.737	1	7
342.079	1	-8
342.421	1	-7
342.763	1	-11
343.105	1	7
343.447	1	0
343.789	1	-6
344.131	1	2
344.473	1	-5
344.815	1	3
345.157	1	11
345.499	1	14
345.841	1	-4
346.183	1	4
346.526	1	5
346.868	1	4
347.210	1	0
347.552	1	4
347.894	1	1
348.236	1	-7
348.578	1	1
348.920	1	11
349.262	1	-4
349.604	1	11
349.946	1	8
350.288	1	2
350.630	1	-10
350.972	1	-4
351.314	1	-12
351.656	1	2
351.998	1	-2
352.340	1	-14
352.682	1	-3
353.024	1	-7
353.366	1	1
353.708	1	0
354.050	1	1
354.392	1	9
354.734	1	-3
355.076	1	-1
355.418	1	-7
355.760	1	3
356.102	1	-11
356.444	1	-3
356.785	1	8
357.127	1	-3
357.469	1	3
357.811	1	12
358.153	1	5
358.495	1	7
358.837	1	5
359.179	1	5
359.521	1	5
359.863	1	0
360.205	1	-1
360.547	1	-2
360.889	1	3
361.231	1	1
361.572	1	-4
361.914	1	-4
362.256	1	-2
362.598	1	-5
362.940	1	6
363.282	1	4
363.624	1	-1
363.966	1	2
364.308	1	1
364.649	1	3
364.991	1	7
365.333	1	16
365.675	1	0
366.017	1	5
366.359	1	14
366.701	1	-9
367.042	1	13
367.384	1	4
367.726	1	11
368.068	1	2
368.410	1	6
368.752	1	1
369.093	1	-2
369.435	1	-6
369.777	1	1
370.119	1	9
370.461	1	-1
370.803	1	0
371.144	1	5
371.486	1	7
371.828	1	11
372.170	1	12
372.512	1	8
372.853	1	3
373.195	1	3
373.537	1	-1
373.879	1	9
374.220	1	8
374.562	1	-2
374.904	1	-2
375.246	1	-2
375.588	1	-1
375.929	1	7
376.271	1	-3
376.613	1	4
376.955	1	-1
377.296	1	10
377.638	1	10
377.980	1	10
378.321	1	4
378.663	1	-2
379.005	1	2
379.347	1	1
379.688	1	-10
380.030	1	-1
380.372	1	6
380.714	1	5
381.055	1	0
381.397	1	-7
381.739	1	15
382.080	1	-7
382.422	1	12
382.764	1	-5
383.105	1	3
383.447	1	4
383.789	1	1
384.130	1	0
384.472	1	2
384.814	1	14
385.156	1	7
385.497	1	12
385.839	1	5
386.180	1	0
386.522	1	3
386.864	1	5
387.205	1	2
387.547	1	-11
387.889	1	16
388.230	1	6
388.572	1	12
388.914	1	10
389.255	1	2
389.597	1	-1
389.939	1	9
390.280	1	14
390.622	1	-2
390.963	1	12
391.305	1	11
391.647	1	8
391.988	1	3
392.330	1	10
392.671	1	15
393.013	1	10
393.355	1	13
393.696	1	-2
394.038	1	4
394.379	1	4
394.721	1	2
395.062	1	-4
395.404	1	18
395.746	1	5
396.087	1	8
396.429	1	-2
396.770	1	1
397.112	1	-4
397.453	1	2
397.795	1	10
398.136	1	12
398.478	1	0
398.819	1	3
399.161	1	8
399.503	1	12
399.844	1	-2
400.186	1	10
400.527	1	15
400.869	1	13
401.210	1	-1
401.552	1	17
401.893	1	7
402.235	1	3
402.576	1	12
402.918	1	1
403.259	1	-1
403.601	1	-10
403.942	1	4
404.284	1	6
404.625	1	14
404.967	1	7
405.308	1	-1
405.649	1	0
405.991	1	5
406.332	1	-4
406.674	1	9
407.015	1	-4
407.357	1	-1
407.698	1	-6
408.040	1	-4
408.381	1	13
408.722	1	2
409.064	1	6
409.405	1	2
409.747	1	-1
410.088	1	4
410.430	1	8
410.771	1	2
411.112	1	-6
411.454	1	11
411.795	1	14
412.137	1	3
412.478	1	9
412.819	1	-4
413.161	1	-3
413.502	1	2
413.844	1	3
414.185	1	9
414.526	1	6
414.868	1	8
415.209	1	0
415.550	1	-1
415.892	1	-2
416.233	1	1
416.575	1	-4
416.916	1	-9
417.257	1	6
417.599	1	8
417.940	1	-2
418.281	1	-7
418.623	1	1
418.964	1	-3
419.305	1	1
419.647	1	12
419.988	1	0
420.329	1	4
420.671	1	5
421.012	1	7
421.353	1	8
421.695	1	4
422.036	1	3
422.377	1	0
422.718	1	1
423.060	1	1
423.401	1	-5
423.742	1	-2
424.084	1	7
424.425	1	1
424.766	1	8
425.107	1	-6
425.449	1	10
425.790	1	1
426.131	1	0
426.472	1	-6
426.814	1	1
427.155	1	-1
427.496	1	5
427.837	1	-5
428.179	1	-1
428.520	1	-8
428.861	1	3
429.202	1	5
429.544	1	1
429.885	1	0
430.226	1	-5
430.567	1	10
430.909	1	-2
431.250	1	-9
431.591	1	-3
431.932	1	10
432.273	1	-1
432.615	1	0
432.956	1	-11
433.297	1	4
433.638	1	-4
433.979	1	5
434.320	1	1
434.662	1	-5
435.003	1	3
435.344	1	6
435.685	1	11
436.026	1	-2
436.368	1	-4
436.709	1	-4
437.050	1	10
437.391	1	-3
437.732	1	2
438.073	1	6
438.414	1	9
438.756	1	3
439.097	1	1
439.438	1	9
439.779	1	1
440.120	1	5
440.461	1	-2
440.802	1	2
441.143	1	5
441.485	1	1
441.826	1	-10
442.167	1	7
442.508	1	6
442.849	1	12
443.190	1	-11
443.531	1	9
443.872	1	4
444.213	1	-2
444.554	1	5
444.895	1	-1
445.237	1	-5
445.578	1	14
445.919	1	-5
446.260	1	11
446.601	1	-4
446.942	1	9
447.283	1	-3
447.624	1	5
447.965	1	-3
448.306	1	8
448.647	1	13
448.988	1	-13
449.329	1	2
449.670	1	5
450.011	1	4
450.352	1	5
450.693	1	1
451.034	1	9
451.375	1	8
451.716	1	8
452.057	1	8
452.398	1	-3
452.739	1	-4
453.080	1	12
453.421	1	8
453.762	1	3
454.103	1	1
454.444	1	1
454.785	1	3
455.126	1	3
455.467	1	3
455.808	1	-1
456.149	1	-5
456.490	1	-6
456.831	1	6
457.172	1	-3
457.513	1	-2
457.854	1	1
458.195	1	-7
458.536	1	8
458.877	1	7
459.218	1	0
459.559	1	8
459.899	1	6
460.240	1	5
460.581	1	2
460.922	1	-2
461.263	1	7
461.604	1	3
461.945	1	9
462.286	1	6
462.627	1	2
462.968	1	-7
463.309	1	2
463.649	1	7
463.990	1	7
464.331	1	3
464.672	1	-3
465.013	1	-5
465.354	1	2
465.695	1	7
466.036	1	-1
466.376	1	-9
466.717	1	2
467.058	1	12
467.399	1	-3
467.740	1	6
468.081	1	2
468.422	1	2
468.762	1	-10
469.103	1	-6
469.444	1	0
469.785	1	7
470.126	1	0
470.467	1	-4
470.807	1	-5
471.148	1	-10
471.489	1	-3
471.830	1	12
472.171	1	0
472.511	1	14
472.852	1	1
473.193	1	1
473.534	1	-2
473.875	1	8
474.215	1	4
474.556	1	-14
474.897	1	9
475.238	1	-2
475.578	1	1
475.919	1	1
476.260	1	-5
476.601	1	-5
476.942	1	-3
477.282	1	-12
477.623	1	7
477.964	1	18
478.305	1	-2
478.645	1	-14
478.986	1	-2
479.327	1	-11
479.667	1	6
480.008	1	13
480.349	1	-3
480.690	1	-3
481.030	1	-4
481.371	1	1
481.712	1	10
482.053	1	10
482.393	1	-8
482.734	1	-1
483.075	1	8
483.415	1	1
483.756	1	11
484.097	1	-12
484.437	1	2
484.778	1	1
485.119	1	6
485.459	1	1
485.800	1	0
486.141	1	-5
486.481	1	0
486.822	1	12
487.163	1	1
487.503	1	-17
487.844	1	-4
488.185	1	-8
488.525	1	0
488.866	1	11
489.207	1	12
489.547	1	4
489.888	1	-3
490.228	1	-7
490.569	1	1
490.910	1	3
491.250	1	-2
491.591	1	-7
491.932	1	1
492.272	1	10
492.613	1	8
492.953	1	1
493.294	1	8
493.635	1	-7
493.975	1	3
494.316	1	3
494.656	1	-2
494.997	1	3
495.337	1	5
495.678	1	-5
496.019	1	-2
496.359	1	2
496.700	1	-4
497.040	1	-2
497.381	1	-16
497.721	1	-7
498.062	1	-1
498.403	1	2
498.743	1	0
499.084	1	-7
499.424	1	12
499.765	1	4
500.105	1	1
500.446	1	2
500.786	1	-3
501.127	1	15
501.467	1	-1
501.808	1	-8
502.148	1	11
502.489	1	14
502.829	1	3
503.170	1	-3
503.510	1	-5
503.851	1	-13
504.191	1	-1
504.532	1	-7
504.872	1	-10
505.213	1	0
505.553	1	7
505.894	1	4
506.234	1	13
506.575	1	-3
506.915	1	-7
507.256	1	-1
507.596	1	7
507.936	1	5
508.277	1	-3
508.617	1	15
508.958	1	4
509.298	1	15
509.639	1	13
509.979	1	2
510.319	1	3
510.660	1	5
511.000	1	1
511.341	1	-7
511.681	1	-2
512.022	1	-2
512.362	1	-2
512.702	1	-8
513.043	1	6
513.383	1	-9
513.724	1	2
514.064	1	1
514.404	1	0
514.745	1	0
515.085	1	4
515.425	1	-7
515.766	1	12
516.106	1	-5
516.447	1	2
516.787	1	-10
517.127	1	-2
517.468	1	-4
517.808	1	-6
518.148	1	-1
518.489	1	11
518.829	1	-4
519.169	1	13
519.510	1	9
519.850	1	-4
520.190	1	-6
520.531	1	5
520.871	1	-1
521.211	1	3
521.552	1	5
521.892	1	-5
522.232	1	-7
522.573	1	4
522.913	1	4
523.253	1	7
523.593	1	-5
523.934	1	13
524.274	1	-3
524.614	1	6
524.955	1	-2
525.295	1	-4
525.635	1	11
525.975	1	3
526.316	1	0
526.656	1	17
526.996	1	13
527.337	1	-3
527.677	1	11
528.017	1	-3
528.357	1	10
528.698	1	0
529.038	1	9
529.378	1	2
529.718	1	5
530.058	1	6
530.399	1	8
530.739	1	-2
531.079	1	1
531.419	1	11
531.760	1	4
532.100	1	2
532.440	1	-1
532.780	1	-3
533.120	1	-6
533.461	1	18
533.801	1	5
534.141	1	12
534.481	1	4
534.821	1	11
535.162	1	3
535.502	1	0
535.842	1	1
536.182	1	-1
536.522	1	16
536.862	1	2
537.203	1	15
537.543	1	11
537.883	1	11
538.223	1	3
538.563	1	4
538.903	1	-3
539.243	1	6
539.584	1	6
539.924	1	10
540.264	1	3
540.604	1	6
540.944	1	3
541.284	1	2
541.624	1	0
541.964	1	-2
542.305	1	-5
542.645	1	-1
542.985	1	2
543.325	1	3
543.665	1	10
544.005	1	0
544.345	1	-8
544.685	1	10
545.025	1	-3
545.365	1	7
545.705	1	10
546.045	1	5
546.386	1	10
546.726	1	-1
547.066	1	-4
547.406	1	8
547.746	1	7
548.086	1	-2
548.426	1	-5
548.766	1	-2
549.106	1	7
549.446	1	3
549.786	1	-1
550.126	1	-1
550.466	1	0
550.806	1	14
551.146	1	-6
551.486	1	10
551.826	1	9
552.166	1	-2
552.506	1	-3
552.846	1	-1
553.186	1	2
553.526	1	4
553.866	1	5
554.206	1	6
554.546	1	-13
554.886	1	5
555.226	1	-4
555.566	1	2
555.906	1	3
556.246	1	-3
556.586	1	5
556.926	1	4
557.266	1	12
557.606	1	-12
557.946	1	8
558.286	1	9
558.626	1	7
558.966	1	2
559.306	1	1
559.646	1	-5
559.986	1	-2
560.325	1	-12
560.665	1	6
561.005	1	5
561.345	1	4
561.685	1	-1
562.025	1	-7
562.365	1	-1
562.705	1	9
563.045	1	14
563.385	1	-6
563.725	1	14
564.064	1	11
564.404	1	-3
564.744	1	9
565.084	1	-5
565.424	1	11
565.764	1	7
566.104	1	-4
566.444	1	-1
566.783	1	0
567.123	1	20
567.463	1	-2
567.803	1	-9
568.143	1	-9
568.483	1	5
568.823	1	7
569.162	1	10
569.502	1	-5
569.842	1	-1
570.182	1	-5
570.522	1	5
570.862	1	-1
571.201	1	-3
571.541	1	-3
571.881	1	3
572.221	1	7
572.561	1	-13
572.900	1	13
573.240	1	-2
573.580	1	8
573.920	1	-2
574.260	1	-3
574.599	1	-1
574.939	1	4
575.279	1	7
575.619	1	7
575.959	1	-7
576.298	1	-12
576.638	1	-4
576.978	1	-4
577.318	1	3
577.657	1	-11
577.997	1	-13
578.337	1	-1
578.677	1	0
579.016	1	18
579.356	1	-6
579.696	1	6
580.036	1	0
580.375	1	1
580.715	1	0
581.055	1	-2
581.394	1	-3
581.734	1	3
582.074	1	-5
582.414	1	10
582.753	1	7
583.093	1	3
583.433	1	-5
583.772	1	6
584.112	1	4
584.452	1	6
584.791	1	3
585.131	1	-13
585.471	1	4
585.811	1	-5
586.150	1	2
586.490	1	-9
586.830	1	-10
587.169	1	4
587.509	1	8
587.849	1	7
588.188	1	1
588.528	1	-1
588.867	1	11
589.207	1	-8
589.547	1	-3
589.886	1	-5
590.226	1	5
590.566	1	-2
590.905	1	0
591.245	1	1
591.585	1	-6
591.924	1	-6
592.264	1	3
592.603	1	-3
592.943	1	9
593.283	1	6
593.622	1	-4
593.962	1	8
594.301	1	16
594.641	1	-11
594.981	1	-2
595.320	1	17
595.660	1	-1
595.999	1	0
596.339	1	7
596.678	1	3
597.018	1	7
597.358	1	8
597.697	1	-9
598.037	1	6
598.376	1	5
598.716	1	-9
599.055	1	6
599.395	1	14
599.734	1	1
600.074	1	-3
600.413	1	4
600.753	1	4
601.092	1	-11
601.432	1	-10
601.771	1	13
602.111	1	-6
602.451	1	3
602.790	1	3
603.130	1	2
603.469	1	-3
603.809	1	4
604.148	1	-1
604.487	1	7
604.827	1	-5
605.166	1	8
605.506	1	6
605.845	1	-8
606.185	1	5
606.524	1	-9
606.864	1	-10
607.203	1	8
607.543	1	-2
607.882	1	-4
608.222	1	7
608.561	1	5
608.901	1	15
609.240	1	2
609.579	1	2
609.919	1	-7
610.258	1	15
610.598	1	0
610.937	1	-4
611.277	1	-7
611.616	1	-9
611.955	1	3
612.295	1	0
612.634	1	3
612.974	1	7
613.313	1	4
613.652	1	-7
613.992	1	3
614.331	1	1
614.671	1	-1
615.010	1	9
615.349	1	2
615.689	1	5
616.028	1	-3
616.368	1	-2
616.707	1	-3
617.046	1	7
617.386	1	-4
617.725	1	15
618.064	1	6
618.404	1	11
618.743	1	1
619.082	1	2
619.422	1	6
619.761	1	0
620.100	1	2
620.440	1	4
620.779	1	5
621.118	1	-3
621.458	1	5
621.797	1	1
622.136	1	1
622.476	1	1
622.815	1	2
623.154	1	10
623.494	1	0
623.833	1	2
624.172	1	11
624.511	1	3
624.851	1	-5
625.190	1	-1
625.529	1	5
625.869	1	2
626.208	1	3
626.547	1	3
626.886	1	-9
627.226	1	-4
627.565	1	12
627.904	1	4
628.243	1	-2
628.583	1	-4
628.922	1	-3
629.261	1	9
629.600	1	11
629.940	1	3
630.279	1	-7
630.618	1	1
630.957	1	-11
631.297	1	6
631.636	1	-3
631.975	1	9
632.314	1	6
632.653	1	-3
632.993	1	3
633.332	1	9
633.671	1	1
634.010	1	6
634.349	1	3
634.689	1	6
635.028	1	4
635.367	1	5
635.706	1	-9
636.045	1	7
636.384	1	4
636.724	1	14
637.063	1	7
637.402	1	7
637.741	1	8
638.080	1	5
638.419	1	4
638.759	1	1
639.098	1	0
639.437	1	-4
639.776	1	1
640.115	1	-8
640.454	1	9
640.793	1	9
641.132	1	16
641.472	1	-6
641.811	1	-3
642.150	1	0
642.489	1	-1
642.828	1	3
643.167	1	7
643.506	1	-9
643.845	1	-11
644.184	1	9
644.524	1	1
644.863	1	0
645.202	1	-3
645.541	1	-8
645.880	1	6
646.219	1	8
646.558	1	-11
646.897	1	-2
647.236	1	1
647.575	1	1
647.914	1	-3
648.253	1	-4
648.592	1	-1
648.931	1	7
649.270	1	8
649.610	1	7
649.949	1	3
650.288	1	-5
650.627	1	-8
650.966	1	1
651.305	1	-10
651.644	1	1
651.983	1	3
652.322	1	7
652.661	1	3
653.000	1	-4
653.339	1	1
653.678	1	2
654.017	1	12
654.356	1	9
654.695	1	9
655.034	1	-10
655.373	1	7
655.712	1	-4
656.051	1	4
656.390	1	1
656.729	1	8
657.068	1	-11
657.406	1	1
657.745	1	4
658.084	1	1
658.423	1	-1
658.762	1	-12
659.101	1	6
659.440	1	5
659.779	1	-5
660.118	1	2
660.457	1	6
660.796	1	-6
661.135	1	5
661.474	1	-1
661.813	1	1
662.152	1	3
662.491	1	1
662.829	1	2
663.168	1	-1
663.507	1	2
663.846	1	4
664.185	1	1
664.524	1	-2
664.863	1	4
665.202	1	-12
665.541	1	-6
665.879	1	-1
666.218	1	-5
666.557	1	8
666.896	1	2
667.235	1	-2
667.574	1	7
667.913	1	3
668.251	1	5
668.590	1	-9
668.929	1	7
669.268	1	0
669.607	1	-3
669.946	1	9
670.285	1	-3
670.623	1	3
670.962	1	0
671.301	1	5
671.640	1	-9
671.979	1	9
672.317	1	8
672.656	1	7
672.995	1	9
673.334	1	7
673.673	1	2
674.011	1	11
674.350	1	-3
674.689	1	9
675.028	1	5
675.367	1	2
675.705	1	-11
676.044	1	0
676.383	1	5
676.722	1	6
677.060	1	11
677.399	1	-6
677.738	1	-4
678.077	1	5
678.416	1	-6
678.754	1	-8
679.093	1	4
679.432	1	-4
679.771	1	3
680.109	1	4
680.448	1	-4
680.787	1	8
681.125	1	6
681.464	1	-7
681.803	1	-14
682.142	1	12
682.480	1	1
682.819	1	-1
683.158	1	-3
683.496	1	-7
683.835	1	7
684.174	1	3
684.512	1	-8
684.851	1	1
685.190	1	14
685.529	1	8
685.867	1	2
686.206	1	1
686.545	1	12
686.883	1	-11
687.222	1	-7
687.561	1	2
687.899	1	-2
688.238	1	-1
688.577	1	-2
688.746	1	1