File: Analysis/GaN_68K_200ms/GaN_sample E_spot4_UVVIS_68 K_200um_200 ms 2x2mm1_754.txt
340.368	1	-1
340.710	1	-8
341.052	1	3
341.394	1	-10
341.737	1	9
342.079	1	-1
342.421	1	-5
342.763	1	-7
343.105	1	3
343.447	1	4
343.789	1	-3
344.131	1	-1
344.473	1	6
344.815	1	9
345.157	1	-4
345.499	1	5
345.841	1	9
346.183	1	1
346.526	1	0
346.868	1	1
347.210	1	-1
347.552	1	6
347.894	1	0
348.236	1	0
348.578	1	7
348.920	1	2
349.262	1	-4
349.604	1	5
349.946	1	8
350.288	1	2
350.630	1	-13
350.972	1	-4
351.314	1	3
351.656	1	6
351.998	1	-4
352.340	1	-6
352.682	1	-1
353.024	1	-10
353.366	1	-2
353.708	1	3
354.050	1	5
354.392	1	7
354.734	1	0
355.076	1	1
355.418	1	-1
355.760	1	-1
356.102	1	-4
356.444	1	4
356.785	1	8
357.127	1	5
357.469	1	2
357.811	1	5
358.153	1	0
358.495	1	8
358.837	1	1
359.179	1	-8
359.521	1	3
359.863	1	-11
360.205	1	-3
360.547	1	-9
360.889	1	-2
361.231	1	-4
361.572	1	2
361.914	1	-6
362.256	1	4
362.598	1	-8
362.940	1	2
363.282	1	-1
363.624	1	3
363.966	1	-1
364.308	1	-5
364.649	1	3
364.991	1	6
365.333	1	9
365.675	1	-8
366.017	1	4
366.359	1	-4
366.701	1	-5
367.042	1	-2
367.384	1	-9
367.726	1	7
368.068	1	-10
368.410	1	1
368.752	1	0
369.093	1	2
369.435	1	-13
369.777	1	-8
370.119	1	8
370.461	1	-3
370.803	1	6
371.144	1	3
371.486	1	14
371.828	1	0
372.170	1	10
372.512	1	-5
372.853	1	5
373.195	1	-5
373.537	1	-1
373.879	1	4
374.220	1	4
374.562	1	-5
374.904	1	5
375.246	1	-3
375.588	1	-2
375.929	1	1
376.271	1	-7
376.613	1	1
376.955	1	5
377.296	1	6
377.638	1	2
377.980	1	-3
378.321	1	1
378.663	1	-7
379.005	1	-3
379.347	1	0
379.688	1	-3
380.030	1	-3
380.372	1	4
380.714	1	1
381.055	1	4
381.397	1	-9
381.739	1	3
382.080	1	-8
382.422	1	13
382.764	1	-4
383.105	1	-2
383.447	1	11
383.789	1	1
384.130	1	-5
384.472	1	-8
384.814	1	3
385.156	1	12
385.497	1	6
385.839	1	-2
386.180	1	1
386.522	1	2
386.864	1	-3
387.205	1	-6
387.547	1	-6
387.889	1	13
388.230	1	7
388.572	1	11
388.914	1	7
389.255	1	9
389.597	1	-4
389.939	1	8
390.280	1	9
390.622	1	-8
390.963	1	-1
391.305	1	3
391.647	1	1
391.988	1	-4
392.330	1	4
392.671	1	-2
393.013	1	9
393.355	1	8
393.696	1	1
394.038	1	-10
394.379	1	-13
394.721	1	-2
395.062	1	-5
395.404	1	1
395.746	1	-4
396.087	1	-6
396.429	1	3
396.770	1	-1
397.112	1	0
397.453	1	-13
397.795	1	0
398.136	1	-2
398.478	1	-6
398.819	1	12
399.161	1	13
399.503	1	-2
399.844	1	7
400.186	1	13
400.527	1	0
400.869	1	13
401.210	1	-6
401.552	1	8
401.893	1	5
402.235	1	2
402.576	1	12
402.918	1	-3
403.259	1	-7
403.601	1	-6
403.942	1	3
404.284	1	-9
404.625	1	3
404.967	1	3
405.308	1	-4
405.649	1	-9
405.991	1	5
406.332	1	-11
406.674	1	2
407.015	1	-5
407.357	1	7
407.698	1	-13
408.040	1	-6
408.381	1	-5
408.722	1	-7
409.064	1	-1
409.405	1	1
409.747	1	4
410.088	1	6
410.430	1	8
410.771	1	-7
411.112	1	8
411.454	1	11
411.795	1	5
412.137	1	12
412.478	1	0
412.819	1	-5
413.161	1	-3
413.502	1	-11
413.844	1	-3
414.185	1	0
414.526	1	1
414.868	1	9
415.209	1	-3
415.550	1	-2
415.892	1	-6
416.233	1	-2
416.575	1	-1
416.916	1	5
417.257	1	4
417.599	1	7
417.940	1	-1
418.281	1	-4
418.623	1	-8
418.964	1	2
419.305	1	-1
419.647	1	15
419.988	1	-8
420.329	1	6
420.671	1	1
421.012	1	5
421.353	1	9
421.695	1	1
422.036	1	-1
422.377	1	-1
422.718	1	4
423.060	1	3
423.401	1	6
423.742	1	-6
424.084	1	6
424.425	1	0
424.766	1	6
425.107	1	1
425.449	1	1
425.790	1	-9
426.131	1	1
426.472	1	-11
426.814	1	3
427.155	1	-8
427.496	1	6
427.837	1	-6
428.179	1	-9
428.520	1	-8
428.861	1	-4
429.202	1	3
429.544	1	-4
429.885	1	6
430.226	1	-6
430.567	1	5
430.909	1	-8
431.250	1	-6
431.591	1	10
431.932	1	2
432.273	1	-2
432.615	1	-5
432.956	1	2
433.297	1	3
433.638	1	-7
433.979	1	-2
434.320	1	3
434.662	1	0
435.003	1	4
435.344	1	7
435.685	1	6
436.026	1	-4
436.368	1	-5
436.709	1	-14
437.050	1	4
437.391	1	6
437.732	1	-3
438.073	1	8
438.414	1	7
438.756	1	7
439.097	1	13
439.438	1	8
439.779	1	8
440.120	1	-5
440.461	1	-9
440.802	1	1
441.143	1	7
441.485	1	-4
441.826	1	-13
442.167	1	-2
442.508	1	1
442.849	1	2
443.190	1	-11
443.531	1	1
443.872	1	0
444.213	1	-3
444.554	1	-2
444.895	1	-5
445.237	1	-5
445.578	1	6
445.919	1	-5
446.260	1	-1
446.601	1	-16
446.942	1	7
447.283	1	-4
447.624	1	6
447.965	1	-7
448.306	1	1
448.647	1	7
448.988	1	-15
449.329	1	0
449.670	1	5
450.011	1	4
450.352	1	-4
450.693	1	5
451.034	1	-3
451.375	1	7
451.716	1	4
452.057	1	7
452.398	1	2
452.739	1	8
453.080	1	5
453.421	1	0
453.762	1	1
454.103	1	0
454.444	1	4
454.785	1	-5
455.126	1	1
455.467	1	7
455.808	1	-3
456.149	1	-7
456.490	1	-1
456.831	1	6
457.172	1	-6
457.513	1	12
457.854	1	-2
458.195	1	1
458.536	1	2
458.877	1	-1
459.218	1	1
459.559	1	6
459.899	1	11
460.240	1	6
460.581	1	5
460.922	1	-6
461.263	1	0
461.604	1	-4
461.945	1	5
462.286	1	0
462.627	1	1
462.968	1	-2
463.309	1	-3
463.649	1	-2
463.990	1	12
464.331	1	0
464.672	1	-1
465.013	1	-7
465.354	1	6
465.695	1	2
466.036	1	0
466.376	1	-7
466.717	1	-14
467.058	1	8
467.399	1	0
467.740	1	8
468.081	1	-7
468.422	1	0
468.762	1	-9
469.103	1	-2
469.444	1	-4
469.785	1	3
470.126	1	-3
470.467	1	-6
470.807	1	2
471.148	1	-3
471.489	1	-3
471.830	1	16
472.171	1	-4
472.511	1	9
472.852	1	-6
473.193	1	-3
473.534	1	0
473.875	1	6
474.215	1	-9
474.556	1	-6
474.897	1	1
475.238	1	5
475.578	1	7
475.919	1	-2
476.260	1	-2
476.601	1	6
476.942	1	-2
477.282	1	-11
477.623	1	-2
477.964	1	6
478.305	1	6
478.645	1	-11
478.986	1	7
479.327	1	-5
479.667	1	-1
480.008	1	5
480.349	1	2
480.690	1	8
481.030	1	-4
481.371	1	-5
481.712	1	1
482.053	1	8
482.393	1	-10
482.734	1	-5
483.075	1	5
483.415	1	4
483.756	1	0
484.097	1	-3
484.437	1	-14
484.778	1	1
485.119	1	1
485.459	1	-1
485.800	1	-4
486.141	1	-7
486.481	1	4
486.822	1	8
487.163	1	-10
487.503	1	-17
487.844	1	0
488.185	1	-1
488.525	1	3
488.866	1	8
489.207	1	7
489.547	1	-5
489.888	1	1
490.228	1	-16
490.569	1	6
490.910	1	-14
491.250	1	0
491.591	1	3
491.932	1	6
492.272	1	9
492.613	1	1
492.953	1	3
493.294	1	10
493.635	1	-4
493.975	1	-1
494.316	1	5
494.656	1	-1
494.997	1	-9
495.337	1	5
495.678	1	11
496.019	1	-6
496.359	1	7
496.700	1	-5
497.040	1	6
497.381	1	-16
497.721	1	-7
498.062	1	-5
498.403	1	-3
498.743	1	2
499.084	1	-13
499.424	1	7
499.765	1	0
500.105	1	-2
500.446	1	3
500.786	1	3
501.127	1	7
501.467	1	4
501.808	1	-15
502.148	1	0
502.489	1	3
502.829	1	-3
503.170	1	3
503.510	1	0
503.851	1	-13
504.191	1	7
504.532	1	4
504.872	1	-7
505.213	1	-1
505.553	1	2
505.894	1	-2
506.234	1	10
506.575	1	1
506.915	1	-9
507.256	1	-8
507.596	1	4
507.936	1	3
508.277	1	-1
508.617	1	6
508.958	1	19
509.298	1	14
509.639	1	3
509.979	1	-1
510.319	1	-3
510.660	1	4
511.000	1	13
511.341	1	-7
511.681	1	11
512.022	1	-12
512.362	1	-4
512.702	1	0
513.043	1	8
513.383	1	-7
513.724	1	-5
514.064	1	8
514.404	1	-1
514.745	1	8
515.085	1	-4
515.425	1	0
515.766	1	8
516.106	1	-1
516.447	1	5
516.787	1	2
517.127	1	4
517.468	1	2
517.808	1	-1
518.148	1	-2
518.489	1	7
518.829	1	-2
519.169	1	0
519.510	1	0
519.850	1	-1
520.190	1	1
520.531	1	0
520.871	1	-9
521.211	1	-6
521.552	1	9
521.892	1	-17
522.232	1	-3
522.573	1	6
522.913	1	-2
523.253	1	-4
523.593	1	-18
523.934	1	7
524.274	1	-5
524.614	1	7
524.955	1	2
525.295	1	-13
525.635	1	0
525.975	1	2
526.316	1	-1
526.656	1	10
526.996	1	5
527.337	1	0
527.677	1	10
528.017	1	-4
528.357	1	6
528.698	1	-6
529.038	1	-4
529.378	1	2
529.718	1	6
530.058	1	1
530.399	1	4
530.739	1	-5
531.079	1	-2
531.419	1	10
531.760	1	5
532.100	1	4
532.440	1	-4
532.780	1	0
533.120	1	-5
533.461	1	10
533.801	1	-3
534.141	1	10
534.481	1	-9
534.821	1	10
535.162	1	3
535.502	1	9
535.842	1	-4
536.182	1	-8
536.522	1	6
536.862	1	1
537.203	1	-3
537.543	1	-1
537.883	1	3
538.223	1	1
538.563	1	9
538.903	1	-8
539.243	1	-2
539.584	1	2
539.924	1	-3
540.264	1	5
540.604	1	0
540.944	1	0
541.284	1	-4
541.624	1	5
541.964	1	-3
542.305	1	0
542.645	1	-1
542.985	1	-5
543.325	1	-4
543.665	1	5
544.005	1	-5
544.345	1	1
544.685	1	2
545.025	1	-6
545.365	1	7
545.705	1	2
546.045	1	6
546.386	1	5
546.726	1	-3
547.066	1	-11
547.406	1	2
547.746	1	8
548.086	1	8
548.426	1	1
548.766	1	6
549.106	1	11
549.446	1	-4
549.786	1	2
550.126	1	-3
550.466	1	-8
550.806	1	17
551.146	1	-6
551.486	1	2
551.826	1	4
552.166	1	0
552.506	1	1
552.846	1	5
553.186	1	-3
553.526	1	-6
553.866	1	6
554.206	1	-6
554.546	1	-3
554.886	1	2
555.226	1	-12
555.566	1	3
555.906	1	2
556.246	1	-3
556.586	1	7
556.926	1	-5
557.266	1	10
557.606	1	-11
557.946	1	8
558.286	1	-4
558.626	1	-1
558.966	1	4
559.306	1	-1
559.646	1	-11
559.986	1	-10
560.325	1	-16
560.665	1	-5
561.005	1	8
561.345	1	2
561.685	1	-3
562.025	1	2
562.365	1	-1
562.705	1	9
563.045	1	3
563.385	1	-8
563.725	1	-2
564.064	1	8
564.404	1	-7
564.744	1	1
565.084	1	0
565.424	1	-2
565.764	1	10
566.104	1	3
566.444	1	1
566.783	1	-2
567.123	1	15
567.463	1	-4
567.803	1	-1
568.143	1	-5
568.483	1	-9
568.823	1	9
569.162	1	4
569.502	1	3
569.842	1	4
570.182	1	3
570.522	1	6
570.862	1	9
571.201	1	-1
571.541	1	-10
571.881	1	4
572.221	1	-1
572.561	1	-7
572.900	1	13
573.240	1	-12
573.580	1	2
573.920	1	-2
574.260	1	-7
574.599	1	0
574.939	1	-4
575.279	1	7
575.619	1	-2
575.959	1	-4
576.298	1	-3
576.638	1	10
576.978	1	-7
577.318	1	-5
577.657	1	-14
577.997	1	-10
578.337	1	-9
578.677	1	1
579.016	1	10
579.356	1	-8
579.696	1	3
580.036	1	-4
580.375	1	0
580.715	1	2
581.055	1	-5
581.394	1	-4
581.734	1	3
582.074	1	-1
582.414	1	-1
582.753	1	5
583.093	1	-8
583.433	1	-4
583.772	1	6
584.112	1	-3
584.452	1	4
584.791	1	-7
585.131	1	-10
585.471	1	0
585.811	1	-6
586.150	1	4
586.490	1	-6
586.830	1	-16
587.169	1	8
587.509	1	-6
587.849	1	-3
588.188	1	-5
588.528	1	-1
588.867	1	1
589.207	1	-11
589.547	1	-11
589.886	1	2
590.226	1	-1
590.566	1	2
590.905	1	4
591.245	1	-1
591.585	1	-2
591.924	1	-1
592.264	1	-1
592.603	1	3
592.943	1	6
593.283	1	5
593.622	1	0
593.962	1	4
594.301	1	1
594.641	1	-8
594.981	1	-9
595.320	1	-1
595.660	1	-6
595.999	1	-4
596.339	1	0
596.678	1	1
597.018	1	6
597.358	1	6
597.697	1	-10
598.037	1	4
598.376	1	8
598.716	1	-11
599.055	1	-6
599.395	1	9
599.734	1	0
600.074	1	1
600.413	1	3
600.753	1	5
601.092	1	-10
601.432	1	-4
601.771	1	14
602.111	1	0
602.451	1	-1
602.790	1	-8
603.130	1	0
603.469	1	-12
603.809	1	10
604.148	1	5
604.487	1	5
604.827	1	-19
605.166	1	-5
605.506	1	6
605.845	1	0
606.185	1	-6
606.524	1	-5
606.864	1	-3
607.203	1	4
607.543	1	-3
607.882	1	-1
608.222	1	-2
608.561	1	6
608.901	1	2
609.240	1	4
609.579	1	0
609.919	1	-9
610.258	1	7
610.598	1	-1
610.937	1	2
611.277	1	0
611.616	1	-5
611.955	1	4
612.295	1	1
612.634	1	0
612.974	1	5
613.313	1	-3
613.652	1	-6
613.992	1	8
614.331	1	4
614.671	1	6
615.010	1	-1
615.349	1	-7
615.689	1	6
616.028	1	-1
616.368	1	-7
616.707	1	-4
617.046	1	2
617.386	1	-3
617.725	1	4
618.064	1	5
618.404	1	1
618.743	1	-4
619.082	1	8
619.422	1	-1
619.761	1	4
620.100	1	0
620.440	1	-2
620.779	1	-6
621.118	1	9
621.458	1	2
621.797	1	-5
622.136	1	4
622.476	1	-3
622.815	1	0
623.154	1	2
623.494	1	-4
623.833	1	-3
624.172	1	6
624.511	1	-3
624.851	1	-7
625.190	1	2
625.529	1	1
625.869	1	-5
626.208	1	4
626.547	1	8
626.886	1	4
627.226	1	-8
627.565	1	12
627.904	1	-3
628.243	1	-15
628.583	1	-7
628.922	1	4
629.261	1	1
629.600	1	8
629.940	1	0
630.279	1	-11
630.618	1	-6
630.957	1	-3
631.297	1	-6
631.636	1	5
631.975	1	-1
632.314	1	5
632.653	1	-10
632.993	1	-1
633.332	1	-1
633.671	1	0
634.010	1	-1
634.349	1	6
634.689	1	1
635.028	1	6
635.367	1	-4
635.706	1	-6
636.045	1	1
636.384	1	6
636.724	1	0
637.063	1	3
637.402	1	0
637.741	1	-1
638.080	1	-1
638.419	1	15
638.759	1	5
639.098	1	-1
639.437	1	-12
639.776	1	-4
640.115	1	-7
640.454	1	4
640.793	1	5
641.132	1	5
641.472	1	-4
641.811	1	-4
642.150	1	15
642.489	1	-2
642.828	1	0
643.167	1	5
643.506	1	-3
643.845	1	5
644.184	1	7
644.524	1	-5
644.863	1	-19
645.202	1	0
645.541	1	-5
645.880	1	-1
646.219	1	6
646.558	1	-4
646.897	1	-8
647.236	1	1
647.575	1	2
647.914	1	1
648.253	1	-2
648.592	1	-3
648.931	1	8
649.270	1	0
649.610	1	6
649.949	1	0
650.288	1	-2
650.627	1	-4
650.966	1	-1
651.305	1	-7
651.644	1	-3
651.983	1	-7
652.322	1	13
652.661	1	1
653.000	1	-8
653.339	1	8
653.678	1	1
654.017	1	6
654.356	1	1
654.695	1	0
655.034	1	-10
655.373	1	-6
655.712	1	-8
656.051	1	4
656.390	1	-9
656.729	1	1
657.068	1	-2
657.406	1	0
657.745	1	-3
658.084	1	-2
658.423	1	-6
658.762	1	-9
659.101	1	-9
659.440	1	7
659.779	1	-5
660.118	1	5
660.457	1	-2
660.796	1	-7
661.135	1	0
661.474	1	1
661.813	1	-3
662.152	1	-9
662.491	1	1
662.829	1	-7
663.168	1	-1
663.507	1	0
663.846	1	-4
664.185	1	-9
664.524	1	-13
664.863	1	-3
665.202	1	-7
665.541	1	-7
665.879	1	-4
666.218	1	-10
666.557	1	-3
666.896	1	-2
667.235	1	-6
667.574	1	-2
667.913	1	1
668.251	1	0
668.590	1	-2
668.929	1	4
669.268	1	-3
669.607	1	-11
669.946	1	1
670.285	1	-2
670.623	1	4
670.962	1	-5
671.301	1	-7
671.640	1	-6
671.979	1	12
672.317	1	-2
672.656	1	0
672.995	1	2
673.334	1	9
673.673	1	22
674.011	1	4
674.350	1	-8
674.689	1	-7
675.028	1	0
675.367	1	3
675.705	1	-8
676.044	1	-3
676.383	1	-1
676.722	1	0
677.060	1	-5
677.399	1	-2
677.738	1	-4
678.077	1	8
678.416	1	7
678.754	1	-8
679.093	1	-4
679.432	1	-11
679.771	1	-4
680.109	1	12
680.448	1	-3
680.787	1	5
681.125	1	2
681.464	1	-2
681.803	1	-15
682.142	1	12
682.480	1	-2
682.819	1	4
683.158	1	-2
683.496	1	-7
683.835	1	4
684.174	1	0
684.512	1	5
684.851	1	-5
685.190	1	10
685.529	1	6
685.867	1	-1
686.206	1	0
686.545	1	2
686.883	1	-1
687.222	1	-5
687.561	1	-1
687.899	1	-6
688.238	1	0
688.577	1	0
688.746	1	-3