File: Analysis/GaN_68K_200ms/GaN_sample E_spot4_UVVIS_68 K_200um_200 ms 2x2mm1_195.txt
340.368	1	4
340.710	1	3
341.052	1	0
341.394	1	-1
341.737	1	19
342.079	1	-4
342.421	1	11
342.763	1	1
343.105	1	11
343.447	1	1
343.789	1	-1
344.131	1	6
344.473	1	5
344.815	1	8
345.157	1	1
345.499	1	6
345.841	1	5
346.183	1	3
346.526	1	13
346.868	1	4
347.210	1	-1
347.552	1	7
347.894	1	4
348.236	1	2
348.578	1	3
348.920	1	10
349.262	1	0
349.604	1	13
349.946	1	13
350.288	1	1
350.630	1	-2
350.972	1	-4
351.314	1	3
351.656	1	7
351.998	1	6
352.340	1	3
352.682	1	-5
353.024	1	-1
353.366	1	7
353.708	1	3
354.050	1	10
354.392	1	9
354.734	1	1
355.076	1	4
355.418	1	-6
355.760	1	11
356.102	1	2
356.444	1	9
356.785	1	9
357.127	1	11
357.469	1	3
357.811	1	21
358.153	1	6
358.495	1	13
358.837	1	18
359.179	1	8
359.521	1	1
359.863	1	0
360.205	1	11
360.547	1	15
360.889	1	13
361.231	1	3
361.572	1	3
361.914	1	7
362.256	1	18
362.598	1	9
362.940	1	9
363.282	1	23
363.624	1	17
363.966	1	17
364.308	1	11
364.649	1	20
364.991	1	29
365.333	1	27
365.675	1	15
366.017	1	28
366.359	1	35
366.701	1	18
367.042	1	27
367.384	1	27
367.726	1	38
368.068	1	16
368.410	1	22
368.752	1	17
369.093	1	30
369.435	1	6
369.777	1	21
370.119	1	25
370.461	1	21
370.803	1	19
371.144	1	24
371.486	1	27
371.828	1	20
372.170	1	25
372.512	1	9
372.853	1	19
373.195	1	6
373.537	1	9
373.879	1	20
374.220	1	12
374.562	1	17
374.904	1	16
375.246	1	10
375.588	1	14
375.929	1	8
376.271	1	4
376.613	1	12
376.955	1	3
377.296	1	17
377.638	1	8
377.980	1	15
378.321	1	14
378.663	1	5
379.005	1	18
379.347	1	19
379.688	1	13
380.030	1	-2
380.372	1	17
380.714	1	10
381.055	1	10
381.397	1	10
381.739	1	19
382.080	1	1
382.422	1	16
382.764	1	17
383.105	1	5
383.447	1	27
383.789	1	26
384.130	1	17
384.472	1	11
384.814	1	28
385.156	1	33
385.497	1	34
385.839	1	31
386.180	1	24
386.522	1	33
386.864	1	35
387.205	1	18
387.547	1	25
387.889	1	42
388.230	1	28
388.572	1	28
388.914	1	29
389.255	1	26
389.597	1	16
389.939	1	40
390.280	1	46
390.622	1	16
390.963	1	28
391.305	1	41
391.647	1	24
391.988	1	20
392.330	1	20
392.671	1	29
393.013	1	33
393.355	1	35
393.696	1	31
394.038	1	13
394.379	1	18
394.721	1	19
395.062	1	20
395.404	1	25
395.746	1	23
396.087	1	23
396.429	1	27
396.770	1	30
397.112	1	26
397.453	1	20
397.795	1	26
398.136	1	35
398.478	1	30
398.819	1	31
399.161	1	23
399.503	1	36
399.844	1	20
400.186	1	31
400.527	1	27
400.869	1	30
401.210	1	24
401.552	1	32
401.893	1	29
402.235	1	28
402.576	1	32
402.918	1	11
403.259	1	10
403.601	1	14
403.942	1	15
404.284	1	23
404.625	1	23
404.967	1	22
405.308	1	14
405.649	1	20
405.991	1	26
406.332	1	11
406.674	1	21
407.015	1	15
407.357	1	20
407.698	1	15
408.040	1	11
408.381	1	17
408.722	1	18
409.064	1	16
409.405	1	17
409.747	1	16
410.088	1	19
410.430	1	25
410.771	1	17
411.112	1	24
411.454	1	18
411.795	1	24
412.137	1	23
412.478	1	27
412.819	1	16
413.161	1	19
413.502	1	15
413.844	1	12
414.185	1	16
414.526	1	18
414.868	1	19
415.209	1	9
415.550	1	4
415.892	1	20
416.233	1	10
416.575	1	5
416.916	1	17
417.257	1	18
417.599	1	15
417.940	1	12
418.281	1	8
418.623	1	9
418.964	1	23
419.305	1	7
419.647	1	25
419.988	1	17
420.329	1	18
420.671	1	14
421.012	1	23
421.353	1	22
421.695	1	14
422.036	1	7
422.377	1	19
422.718	1	10
423.060	1	5
423.401	1	8
423.742	1	9
424.084	1	13
424.425	1	7
424.766	1	18
425.107	1	9
425.449	1	7
425.790	1	5
426.131	1	8
426.472	1	8
426.814	1	16
427.155	1	7
427.496	1	17
427.837	1	7
428.179	1	7
428.520	1	5
428.861	1	14
429.202	1	27
429.544	1	13
429.885	1	7
430.226	1	0
430.567	1	19
430.909	1	3
431.250	1	1
431.591	1	10
431.932	1	14
432.273	1	-1
432.615	1	13
432.956	1	3
433.297	1	13
433.638	1	11
433.979	1	15
434.320	1	17
434.662	1	-3
435.003	1	11
435.344	1	19
435.685	1	10
436.026	1	17
436.368	1	3
436.709	1	5
437.050	1	5
437.391	1	12
437.732	1	2
438.073	1	6
438.414	1	15
438.756	1	13
439.097	1	13
439.438	1	14
439.779	1	11
440.120	1	11
440.461	1	1
440.802	1	15
441.143	1	9
441.485	1	2
441.826	1	-7
442.167	1	1
442.508	1	4
442.849	1	11
443.190	1	-2
443.531	1	4
443.872	1	10
444.213	1	-2
444.554	1	2
444.895	1	5
445.237	1	8
445.578	1	21
445.919	1	17
446.260	1	4
446.601	1	10
446.942	1	24
447.283	1	13
447.624	1	5
447.965	1	4
448.306	1	11
448.647	1	22
448.988	1	-2
449.329	1	7
449.670	1	1
450.011	1	7
450.352	1	15
450.693	1	7
451.034	1	4
451.375	1	13
451.716	1	10
452.057	1	16
452.398	1	9
452.739	1	2
453.080	1	14
453.421	1	-2
453.762	1	9
454.103	1	9
454.444	1	15
454.785	1	-3
455.126	1	16
455.467	1	15
455.808	1	10
456.149	1	0
456.490	1	9
456.831	1	17
457.172	1	16
457.513	1	20
457.854	1	-3
458.195	1	-2
458.536	1	15
458.877	1	10
459.218	1	12
459.559	1	6
459.899	1	10
460.240	1	8
460.581	1	9
460.922	1	5
461.263	1	21
461.604	1	9
461.945	1	12
462.286	1	16
462.627	1	5
462.968	1	0
463.309	1	4
463.649	1	2
463.990	1	9
464.331	1	12
464.672	1	4
465.013	1	6
465.354	1	11
465.695	1	10
466.036	1	5
466.376	1	6
466.717	1	-5
467.058	1	13
467.399	1	11
467.740	1	8
468.081	1	4
468.422	1	2
468.762	1	2
469.103	1	-2
469.444	1	-1
469.785	1	6
470.126	1	10
470.467	1	-2
470.807	1	3
471.148	1	-6
471.489	1	-1
471.830	1	12
472.171	1	7
472.511	1	12
472.852	1	2
473.193	1	5
473.534	1	7
473.875	1	15
474.215	1	3
474.556	1	-6
474.897	1	5
475.238	1	-3
475.578	1	3
475.919	1	2
476.260	1	8
476.601	1	2
476.942	1	9
477.282	1	-6
477.623	1	8
477.964	1	9
478.305	1	4
478.645	1	5
478.986	1	-4
479.327	1	-5
479.667	1	5
480.008	1	11
480.349	1	8
480.690	1	4
481.030	1	10
481.371	1	13
481.712	1	7
482.053	1	9
482.393	1	-5
482.734	1	11
483.075	1	12
483.415	1	13
483.756	1	7
484.097	1	-1
484.437	1	-7
484.778	1	7
485.119	1	12
485.459	1	-3
485.800	1	3
486.141	1	-4
486.481	1	3
486.822	1	5
487.163	1	6
487.503	1	-9
487.844	1	15
488.185	1	-2
488.525	1	7
488.866	1	8
489.207	1	17
489.547	1	4
489.888	1	0
490.228	1	1
490.569	1	11
490.910	1	6
491.250	1	2
491.591	1	-5
491.932	1	21
492.272	1	26
492.613	1	5
492.953	1	9
493.294	1	7
493.635	1	5
493.975	1	10
494.316	1	9
494.656	1	14
494.997	1	6
495.337	1	8
495.678	1	17
496.019	1	11
496.359	1	4
496.700	1	6
497.040	1	15
497.381	1	-6
497.721	1	11
498.062	1	9
498.403	1	18
498.743	1	9
499.084	1	3
499.424	1	20
499.765	1	8
500.105	1	4
500.446	1	19
500.786	1	12
501.127	1	14
501.467	1	5
501.808	1	0
502.148	1	15
502.489	1	12
502.829	1	6
503.170	1	8
503.510	1	9
503.851	1	-2
504.191	1	17
504.532	1	8
504.872	1	11
505.213	1	9
505.553	1	14
505.894	1	15
506.234	1	26
506.575	1	10
506.915	1	12
507.256	1	7
507.596	1	18
507.936	1	7
508.277	1	11
508.617	1	24
508.958	1	20
509.298	1	17
509.639	1	22
509.979	1	14
510.319	1	13
510.660	1	19
511.000	1	16
511.341	1	10
511.681	1	14
512.022	1	4
512.362	1	15
512.702	1	5
513.043	1	23
513.383	1	2
513.724	1	16
514.064	1	16
514.404	1	17
514.745	1	9
515.085	1	20
515.425	1	4
515.766	1	10
516.106	1	10
516.447	1	11
516.787	1	4
517.127	1	19
517.468	1	17
517.808	1	6
518.148	1	25
518.489	1	15
518.829	1	16
519.169	1	22
519.510	1	20
519.850	1	17
520.190	1	24
520.531	1	25
520.871	1	13
521.211	1	23
521.552	1	26
521.892	1	13
522.232	1	14
522.573	1	25
522.913	1	21
523.253	1	19
523.593	1	11
523.934	1	25
524.274	1	14
524.614	1	15
524.955	1	9
525.295	1	10
525.635	1	33
525.975	1	18
526.316	1	14
526.656	1	36
526.996	1	24
527.337	1	18
527.677	1	29
528.017	1	7
528.357	1	31
528.698	1	16
529.038	1	23
529.378	1	21
529.718	1	21
530.058	1	20
530.399	1	31
530.739	1	28
531.079	1	23
531.419	1	27
531.760	1	26
532.100	1	22
532.440	1	12
532.780	1	22
533.120	1	18
533.461	1	35
533.801	1	17
534.141	1	36
534.481	1	28
534.821	1	25
535.162	1	22
535.502	1	29
535.842	1	28
536.182	1	26
536.522	1	25
536.862	1	19
537.203	1	21
537.543	1	19
537.883	1	27
538.223	1	20
538.563	1	22
538.903	1	15
539.243	1	21
539.584	1	15
539.924	1	15
540.264	1	13
540.604	1	20
540.944	1	15
541.284	1	19
541.624	1	15
541.964	1	14
542.305	1	10
542.645	1	18
542.985	1	17
543.325	1	17
543.665	1	19
544.005	1	9
544.345	1	9
544.685	1	28
545.025	1	7
545.365	1	24
545.705	1	20
546.045	1	17
546.386	1	15
546.726	1	20
547.066	1	6
547.406	1	31
547.746	1	25
548.086	1	21
548.426	1	17
548.766	1	18
549.106	1	22
549.446	1	15
549.786	1	11
550.126	1	18
550.466	1	0
550.806	1	28
551.146	1	17
551.486	1	20
551.826	1	14
552.166	1	17
552.506	1	9
552.846	1	19
553.186	1	16
553.526	1	11
553.866	1	24
554.206	1	17
554.546	1	7
554.886	1	16
555.226	1	9
555.566	1	19
555.906	1	25
556.246	1	8
556.586	1	24
556.926	1	10
557.266	1	18
557.606	1	-3
557.946	1	22
558.286	1	21
558.626	1	14
558.966	1	13
559.306	1	4
559.646	1	10
559.986	1	1
560.325	1	4
560.665	1	20
561.005	1	18
561.345	1	9
561.685	1	7
562.025	1	8
562.365	1	16
562.705	1	20
563.045	1	17
563.385	1	-2
563.725	1	10
564.064	1	18
564.404	1	15
564.744	1	18
565.084	1	15
565.424	1	4
565.764	1	22
566.104	1	6
566.444	1	14
566.783	1	4
567.123	1	27
567.463	1	6
567.803	1	2
568.143	1	4
568.483	1	3
568.823	1	17
569.162	1	12
569.502	1	19
569.842	1	10
570.182	1	7
570.522	1	10
570.862	1	9
571.201	1	9
571.541	1	2
571.881	1	18
572.221	1	12
572.561	1	3
572.900	1	17
573.240	1	7
573.580	1	11
573.920	1	12
574.260	1	13
574.599	1	11
574.939	1	10
575.279	1	10
575.619	1	16
575.959	1	5
576.298	1	-5
576.638	1	9
576.978	1	10
577.318	1	19
577.657	1	-9
577.997	1	5
578.337	1	1
578.677	1	4
579.016	1	16
579.356	1	6
579.696	1	9
580.036	1	3
580.375	1	9
580.715	1	9
581.055	1	11
581.394	1	5
581.734	1	15
582.074	1	6
582.414	1	6
582.753	1	13
583.093	1	5
583.433	1	5
583.772	1	11
584.112	1	12
584.452	1	2
584.791	1	5
585.131	1	-3
585.471	1	9
585.811	1	11
586.150	1	-3
586.490	1	9
586.830	1	5
587.169	1	19
587.509	1	13
587.849	1	10
588.188	1	9
588.528	1	16
588.867	1	10
589.207	1	-1
589.547	1	-4
589.886	1	-11
590.226	1	13
590.566	1	4
590.905	1	12
591.245	1	3
591.585	1	3
591.924	1	2
592.264	1	3
592.603	1	6
592.943	1	4
593.283	1	11
593.622	1	8
593.962	1	13
594.301	1	19
594.641	1	0
594.981	1	4
595.320	1	6
595.660	1	8
595.999	1	15
596.339	1	8
596.678	1	8
597.018	1	15
597.358	1	2
597.697	1	5
598.037	1	13
598.376	1	10
598.716	1	-1
599.055	1	11
599.395	1	8
599.734	1	3
600.074	1	1
600.413	1	11
600.753	1	6
601.092	1	-7
601.432	1	-1
601.771	1	16
602.111	1	-4
602.451	1	7
602.790	1	3
603.130	1	11
603.469	1	5
603.809	1	0
604.148	1	5
604.487	1	11
604.827	1	1
605.166	1	4
605.506	1	4
605.845	1	2
606.185	1	3
606.524	1	-1
606.864	1	6
607.203	1	13
607.543	1	-4
607.882	1	-4
608.222	1	10
608.561	1	5
608.901	1	21
609.240	1	8
609.579	1	8
609.919	1	0
610.258	1	5
610.598	1	10
610.937	1	2
611.277	1	15
611.616	1	3
611.955	1	12
612.295	1	11
612.634	1	1
612.974	1	8
613.313	1	4
613.652	1	-6
613.992	1	13
614.331	1	5
614.671	1	7
615.010	1	5
615.349	1	9
615.689	1	9
616.028	1	4
616.368	1	-7
616.707	1	1
617.046	1	0
617.386	1	-3
617.725	1	8
618.064	1	0
618.404	1	17
618.743	1	11
619.082	1	6
619.422	1	4
619.761	1	12
620.100	1	4
620.440	1	3
620.779	1	-5
621.118	1	2
621.458	1	11
621.797	1	3
622.136	1	4
622.476	1	12
622.815	1	7
623.154	1	-2
623.494	1	15
623.833	1	-1
624.172	1	7
624.511	1	7
624.851	1	-4
625.190	1	1
625.529	1	10
625.869	1	10
626.208	1	4
626.547	1	6
626.886	1	-3
627.226	1	4
627.565	1	13
627.904	1	2
628.243	1	-4
628.583	1	5
628.922	1	6
629.261	1	9
629.600	1	12
629.940	1	6
630.279	1	1
630.618	1	5
630.957	1	-4
631.297	1	11
631.636	1	-4
631.975	1	7
632.314	1	7
632.653	1	-6
632.993	1	19
633.332	1	9
633.671	1	5
634.010	1	4
634.349	1	10
634.689	1	10
635.028	1	9
635.367	1	-7
635.706	1	-4
636.045	1	9
636.384	1	15
636.724	1	11
637.063	1	2
637.402	1	12
637.741	1	13
638.080	1	9
638.419	1	7
638.759	1	6
639.098	1	2
639.437	1	3
639.776	1	2
640.115	1	-3
640.454	1	17
640.793	1	3
641.132	1	12
641.472	1	-9
641.811	1	5
642.150	1	12
642.489	1	1
642.828	1	3
643.167	1	11
643.506	1	-2
643.845	1	11
644.184	1	9
644.524	1	-1
644.863	1	-6
645.202	1	6
645.541	1	-4
645.880	1	-1
646.219	1	-3
646.558	1	1
646.897	1	4
647.236	1	3
647.575	1	12
647.914	1	-3
648.253	1	-3
648.592	1	11
648.931	1	7
649.270	1	10
649.610	1	9
649.949	1	4
650.288	1	-3
650.627	1	3
650.966	1	5
651.305	1	3
651.644	1	0
651.983	1	1
652.322	1	16
652.661	1	2
653.000	1	-5
653.339	1	2
653.678	1	3
654.017	1	3
654.356	1	10
654.695	1	7
655.034	1	4
655.373	1	2
655.712	1	-2
656.051	1	9
656.390	1	5
656.729	1	13
657.068	1	6
657.406	1	19
657.745	1	4
658.084	1	16
658.423	1	-10
658.762	1	-2
659.101	1	3
659.440	1	15
659.779	1	4
660.118	1	10
660.457	1	1
660.796	1	1
661.135	1	5
661.474	1	2
661.813	1	2
662.152	1	3
662.491	1	5
662.829	1	1
663.168	1	3
663.507	1	-1
663.846	1	9
664.185	1	3
664.524	1	-10
664.863	1	7
665.202	1	-5
665.541	1	-1
665.879	1	5
666.218	1	7
666.557	1	6
666.896	1	-7
667.235	1	4
667.574	1	13
667.913	1	11
668.251	1	-5
668.590	1	-2
668.929	1	-4
669.268	1	2
669.607	1	2
669.946	1	19
670.285	1	7
670.623	1	10
670.962	1	2
671.301	1	1
671.640	1	-3
671.979	1	22
672.317	1	6
672.656	1	7
672.995	1	6
673.334	1	9
673.673	1	10
674.011	1	14
674.350	1	-7
674.689	1	-9
675.028	1	2
675.367	1	8
675.705	1	-5
676.044	1	-5
676.383	1	3
676.722	1	0
677.060	1	8
677.399	1	0
677.738	1	-2
678.077	1	7
678.416	1	3
678.754	1	8
679.093	1	7
679.432	1	1
679.771	1	10
680.109	1	16
680.448	1	9
680.787	1	-1
681.125	1	17
681.464	1	0
681.803	1	-6
682.142	1	10
682.480	1	0
682.819	1	4
683.158	1	7
683.496	1	-2
683.835	1	7
684.174	1	9
684.512	1	-2
684.851	1	0
685.190	1	17
685.529	1	5
685.867	1	5
686.206	1	1
686.545	1	16
686.883	1	-3
687.222	1	1
687.561	1	6
687.899	1	1
688.238	1	6
688.577	1	2
688.746	1	10