File: Analysis/GaN_68K_200ms/GaN_sample E_spot4_UVVIS_68 K_200um_200 ms 2x2mm1_193.txt
340.368	1	2
340.710	1	2
341.052	1	6
341.394	1	-3
341.737	1	18
342.079	1	1
342.421	1	-4
342.763	1	7
343.105	1	5
343.447	1	1
343.789	1	1
344.131	1	0
344.473	1	-6
344.815	1	-1
345.157	1	15
345.499	1	7
345.841	1	12
346.183	1	7
346.526	1	13
346.868	1	7
347.210	1	0
347.552	1	5
347.894	1	2
348.236	1	6
348.578	1	5
348.920	1	6
349.262	1	4
349.604	1	15
349.946	1	13
350.288	1	3
350.630	1	-6
350.972	1	3
351.314	1	1
351.656	1	8
351.998	1	-2
352.340	1	-5
352.682	1	3
353.024	1	-5
353.366	1	5
353.708	1	10
354.050	1	4
354.392	1	3
354.734	1	-6
355.076	1	4
355.418	1	-6
355.760	1	3
356.102	1	3
356.444	1	9
356.785	1	12
357.127	1	7
357.469	1	4
357.811	1	12
358.153	1	5
358.495	1	19
358.837	1	10
359.179	1	10
359.521	1	11
359.863	1	3
360.205	1	9
360.547	1	18
360.889	1	4
361.231	1	12
361.572	1	3
361.914	1	10
362.256	1	14
362.598	1	7
362.940	1	9
363.282	1	14
363.624	1	24
363.966	1	21
364.308	1	11
364.649	1	19
364.991	1	31
365.333	1	27
365.675	1	15
366.017	1	25
366.359	1	32
366.701	1	22
367.042	1	33
367.384	1	27
367.726	1	43
368.068	1	19
368.410	1	20
368.752	1	18
369.093	1	23
369.435	1	23
369.777	1	21
370.119	1	16
370.461	1	24
370.803	1	19
371.144	1	23
371.486	1	22
371.828	1	15
372.170	1	21
372.512	1	9
372.853	1	10
373.195	1	4
373.537	1	18
373.879	1	17
374.220	1	8
374.562	1	6
374.904	1	15
375.246	1	17
375.588	1	5
375.929	1	22
376.271	1	2
376.613	1	10
376.955	1	3
377.296	1	22
377.638	1	2
377.980	1	13
378.321	1	16
378.663	1	10
379.005	1	19
379.347	1	11
379.688	1	13
380.030	1	14
380.372	1	3
380.714	1	19
381.055	1	12
381.397	1	2
381.739	1	15
382.080	1	6
382.422	1	19
382.764	1	10
383.105	1	14
383.447	1	14
383.789	1	19
384.130	1	2
384.472	1	19
384.814	1	16
385.156	1	29
385.497	1	29
385.839	1	31
386.180	1	17
386.522	1	38
386.864	1	30
387.205	1	27
387.547	1	26
387.889	1	37
388.230	1	22
388.572	1	29
388.914	1	35
389.255	1	31
389.597	1	11
389.939	1	30
390.280	1	27
390.622	1	15
390.963	1	26
391.305	1	30
391.647	1	22
391.988	1	19
392.330	1	28
392.671	1	30
393.013	1	24
393.355	1	28
393.696	1	19
394.038	1	19
394.379	1	10
394.721	1	32
395.062	1	17
395.404	1	31
395.746	1	23
396.087	1	19
396.429	1	30
396.770	1	37
397.112	1	27
397.453	1	19
397.795	1	26
398.136	1	33
398.478	1	17
398.819	1	24
399.161	1	31
399.503	1	24
399.844	1	27
400.186	1	23
400.527	1	30
400.869	1	23
401.210	1	20
401.552	1	25
401.893	1	15
402.235	1	26
402.576	1	24
402.918	1	10
403.259	1	13
403.601	1	22
403.942	1	20
404.284	1	20
404.625	1	19
404.967	1	18
405.308	1	16
405.649	1	22
405.991	1	24
406.332	1	16
406.674	1	20
407.015	1	9
407.357	1	14
407.698	1	19
408.040	1	13
408.381	1	15
408.722	1	6
409.064	1	14
409.405	1	19
409.747	1	15
410.088	1	15
410.430	1	21
410.771	1	22
411.112	1	20
411.454	1	27
411.795	1	10
412.137	1	22
412.478	1	16
412.819	1	17
413.161	1	10
413.502	1	9
413.844	1	8
414.185	1	20
414.526	1	8
414.868	1	17
415.209	1	15
415.550	1	5
415.892	1	5
416.233	1	15
416.575	1	12
416.916	1	12
417.257	1	17
417.599	1	18
417.940	1	9
418.281	1	17
418.623	1	15
418.964	1	8
419.305	1	14
419.647	1	9
419.988	1	16
420.329	1	19
420.671	1	8
421.012	1	16
421.353	1	27
421.695	1	13
422.036	1	7
422.377	1	13
422.718	1	5
423.060	1	17
423.401	1	8
423.742	1	8
424.084	1	14
424.425	1	4
424.766	1	14
425.107	1	8
425.449	1	7
425.790	1	6
426.131	1	6
426.472	1	11
426.814	1	19
427.155	1	6
427.496	1	9
427.837	1	7
428.179	1	-3
428.520	1	14
428.861	1	16
429.202	1	14
429.544	1	13
429.885	1	15
430.226	1	4
430.567	1	20
430.909	1	1
431.250	1	-3
431.591	1	4
431.932	1	7
432.273	1	8
432.615	1	12
432.956	1	-2
433.297	1	12
433.638	1	-1
433.979	1	7
434.320	1	1
434.662	1	10
435.003	1	17
435.344	1	12
435.685	1	16
436.026	1	15
436.368	1	11
436.709	1	7
437.050	1	9
437.391	1	14
437.732	1	5
438.073	1	15
438.414	1	18
438.756	1	8
439.097	1	10
439.438	1	9
439.779	1	-5
440.120	1	11
440.461	1	9
440.802	1	6
441.143	1	13
441.485	1	-3
441.826	1	-3
442.167	1	10
442.508	1	5
442.849	1	17
443.190	1	-5
443.531	1	10
443.872	1	8
444.213	1	0
444.554	1	8
444.895	1	-3
445.237	1	1
445.578	1	12
445.919	1	11
446.260	1	1
446.601	1	3
446.942	1	5
447.283	1	5
447.624	1	8
447.965	1	-1
448.306	1	4
448.647	1	13
448.988	1	-4
449.329	1	8
449.670	1	4
450.011	1	7
450.352	1	15
450.693	1	8
451.034	1	8
451.375	1	15
451.716	1	11
452.057	1	17
452.398	1	9
452.739	1	3
453.080	1	7
453.421	1	8
453.762	1	10
454.103	1	8
454.444	1	20
454.785	1	-4
455.126	1	7
455.467	1	14
455.808	1	8
456.149	1	7
456.490	1	4
456.831	1	20
457.172	1	6
457.513	1	9
457.854	1	8
458.195	1	5
458.536	1	9
458.877	1	0
459.218	1	10
459.559	1	7
459.899	1	16
460.240	1	10
460.581	1	13
460.922	1	14
461.263	1	16
461.604	1	3
461.945	1	7
462.286	1	8
462.627	1	-3
462.968	1	-2
463.309	1	3
463.649	1	6
463.990	1	6
464.331	1	5
464.672	1	7
465.013	1	3
465.354	1	5
465.695	1	16
466.036	1	17
466.376	1	4
466.717	1	0
467.058	1	12
467.399	1	4
467.740	1	4
468.081	1	4
468.422	1	17
468.762	1	-4
469.103	1	0
469.444	1	2
469.785	1	14
470.126	1	0
470.467	1	-9
470.807	1	10
471.148	1	0
471.489	1	1
471.830	1	14
472.171	1	9
472.511	1	9
472.852	1	2
473.193	1	-5
473.534	1	0
473.875	1	10
474.215	1	3
474.556	1	-3
474.897	1	2
475.238	1	2
475.578	1	5
475.919	1	2
476.260	1	-3
476.601	1	5
476.942	1	0
477.282	1	-3
477.623	1	8
477.964	1	10
478.305	1	5
478.645	1	3
478.986	1	7
479.327	1	-1
479.667	1	2
480.008	1	5
480.349	1	-2
480.690	1	0
481.030	1	1
481.371	1	8
481.712	1	13
482.053	1	5
482.393	1	0
482.734	1	7
483.075	1	7
483.415	1	13
483.756	1	12
484.097	1	4
484.437	1	-13
484.778	1	3
485.119	1	11
485.459	1	6
485.800	1	7
486.141	1	-9
486.481	1	14
486.822	1	4
487.163	1	-6
487.503	1	-10
487.844	1	8
488.185	1	-5
488.525	1	7
488.866	1	18
489.207	1	17
489.547	1	-1
489.888	1	8
490.228	1	4
490.569	1	11
490.910	1	4
491.250	1	5
491.591	1	-3
491.932	1	15
492.272	1	8
492.613	1	1
492.953	1	10
493.294	1	16
493.635	1	0
493.975	1	4
494.316	1	10
494.656	1	3
494.997	1	9
495.337	1	8
495.678	1	15
496.019	1	10
496.359	1	10
496.700	1	5
497.040	1	9
497.381	1	-7
497.721	1	7
498.062	1	0
498.403	1	7
498.743	1	2
499.084	1	3
499.424	1	19
499.765	1	9
500.105	1	15
500.446	1	9
500.786	1	17
501.127	1	22
501.467	1	16
501.808	1	4
502.148	1	7
502.489	1	19
502.829	1	12
503.170	1	9
503.510	1	18
503.851	1	-9
504.191	1	19
504.532	1	0
504.872	1	-3
505.213	1	12
505.553	1	15
505.894	1	19
506.234	1	24
506.575	1	7
506.915	1	12
507.256	1	5
507.596	1	20
507.936	1	8
508.277	1	7
508.617	1	25
508.958	1	19
509.298	1	23
509.639	1	21
509.979	1	13
510.319	1	5
510.660	1	21
511.000	1	28
511.341	1	17
511.681	1	17
512.022	1	11
512.362	1	9
512.702	1	10
513.043	1	15
513.383	1	7
513.724	1	27
514.064	1	21
514.404	1	15
514.745	1	15
515.085	1	14
515.425	1	4
515.766	1	12
516.106	1	19
516.447	1	21
516.787	1	14
517.127	1	18
517.468	1	15
517.808	1	15
518.148	1	21
518.489	1	13
518.829	1	13
519.169	1	24
519.510	1	16
519.850	1	15
520.190	1	21
520.531	1	14
520.871	1	17
521.211	1	9
521.552	1	21
521.892	1	13
522.232	1	2
522.573	1	16
522.913	1	25
523.253	1	23
523.593	1	2
523.934	1	16
524.274	1	7
524.614	1	26
524.955	1	11
525.295	1	11
525.635	1	30
525.975	1	4
526.316	1	22
526.656	1	27
526.996	1	21
527.337	1	19
527.677	1	31
528.017	1	4
528.357	1	35
528.698	1	7
529.038	1	24
529.378	1	21
529.718	1	25
530.058	1	15
530.399	1	25
530.739	1	13
531.079	1	22
531.419	1	28
531.760	1	14
532.100	1	18
532.440	1	12
532.780	1	21
533.120	1	20
533.461	1	33
533.801	1	16
534.141	1	23
534.481	1	11
534.821	1	21
535.162	1	24
535.502	1	29
535.842	1	17
536.182	1	15
536.522	1	28
536.862	1	30
537.203	1	25
537.543	1	37
537.883	1	34
538.223	1	24
538.563	1	24
538.903	1	13
539.243	1	18
539.584	1	20
539.924	1	15
540.264	1	21
540.604	1	30
540.944	1	10
541.284	1	16
541.624	1	16
541.964	1	10
542.305	1	13
542.645	1	14
542.985	1	17
543.325	1	13
543.665	1	29
544.005	1	10
544.345	1	8
544.685	1	12
545.025	1	5
545.365	1	21
545.705	1	28
546.045	1	19
546.386	1	14
546.726	1	7
547.066	1	9
547.406	1	21
547.746	1	21
548.086	1	12
548.426	1	11
548.766	1	28
549.106	1	21
549.446	1	15
549.786	1	23
550.126	1	16
550.466	1	20
550.806	1	18
551.146	1	15
551.486	1	16
551.826	1	24
552.166	1	12
552.506	1	14
552.846	1	9
553.186	1	10
553.526	1	15
553.866	1	19
554.206	1	20
554.546	1	-3
554.886	1	17
555.226	1	-1
555.566	1	10
555.906	1	18
556.246	1	17
556.586	1	17
556.926	1	22
557.266	1	13
557.606	1	3
557.946	1	14
558.286	1	17
558.626	1	21
558.966	1	14
559.306	1	5
559.646	1	9
559.986	1	5
560.325	1	4
560.665	1	17
561.005	1	9
561.345	1	13
561.685	1	11
562.025	1	13
562.365	1	20
562.705	1	16
563.045	1	20
563.385	1	5
563.725	1	14
564.064	1	16
564.404	1	8
564.744	1	16
565.084	1	4
565.424	1	14
565.764	1	24
566.104	1	14
566.444	1	17
566.783	1	12
567.123	1	26
567.463	1	9
567.803	1	6
568.143	1	9
568.483	1	2
568.823	1	16
569.162	1	10
569.502	1	15
569.842	1	8
570.182	1	4
570.522	1	19
570.862	1	8
571.201	1	9
571.541	1	6
571.881	1	14
572.221	1	11
572.561	1	8
572.900	1	14
573.240	1	14
573.580	1	17
573.920	1	11
574.260	1	11
574.599	1	7
574.939	1	5
575.279	1	10
575.619	1	17
575.959	1	-1
576.298	1	4
576.638	1	10
576.978	1	7
577.318	1	9
577.657	1	-6
577.997	1	-5
578.337	1	4
578.677	1	5
579.016	1	24
579.356	1	5
579.696	1	6
580.036	1	10
580.375	1	6
580.715	1	10
581.055	1	12
581.394	1	6
581.734	1	12
582.074	1	7
582.414	1	8
582.753	1	6
583.093	1	4
583.433	1	0
583.772	1	4
584.112	1	7
584.452	1	4
584.791	1	5
585.131	1	0
585.471	1	0
585.811	1	-1
586.150	1	12
586.490	1	6
586.830	1	-3
587.169	1	4
587.509	1	9
587.849	1	7
588.188	1	3
588.528	1	13
588.867	1	15
589.207	1	-5
589.547	1	5
589.886	1	0
590.226	1	7
590.566	1	1
590.905	1	10
591.245	1	6
591.585	1	9
591.924	1	8
592.264	1	-1
592.603	1	0
592.943	1	1
593.283	1	14
593.622	1	7
593.962	1	9
594.301	1	12
594.641	1	4
594.981	1	-3
595.320	1	10
595.660	1	8
595.999	1	1
596.339	1	8
596.678	1	10
597.018	1	7
597.358	1	14
597.697	1	-2
598.037	1	9
598.376	1	17
598.716	1	-1
599.055	1	0
599.395	1	15
599.734	1	10
600.074	1	1
600.413	1	4
600.753	1	15
601.092	1	-5
601.432	1	2
601.771	1	19
602.111	1	-12
602.451	1	5
602.790	1	9
603.130	1	8
603.469	1	8
603.809	1	7
604.148	1	9
604.487	1	8
604.827	1	-8
605.166	1	9
605.506	1	8
605.845	1	12
606.185	1	4
606.524	1	5
606.864	1	4
607.203	1	16
607.543	1	-7
607.882	1	4
608.222	1	11
608.561	1	7
608.901	1	9
609.240	1	8
609.579	1	7
609.919	1	-4
610.258	1	5
610.598	1	6
610.937	1	4
611.277	1	8
611.616	1	-7
611.955	1	3
612.295	1	12
612.634	1	-2
612.974	1	4
613.313	1	8
613.652	1	-1
613.992	1	8
614.331	1	6
614.671	1	6
615.010	1	9
615.349	1	4
615.689	1	-3
616.028	1	-3
616.368	1	2
616.707	1	0
617.046	1	3
617.386	1	5
617.725	1	14
618.064	1	9
618.404	1	15
618.743	1	5
619.082	1	7
619.422	1	-3
619.761	1	5
620.100	1	10
620.440	1	7
620.779	1	1
621.118	1	-5
621.458	1	3
621.797	1	2
622.136	1	7
622.476	1	13
622.815	1	2
623.154	1	7
623.494	1	11
623.833	1	10
624.172	1	12
624.511	1	9
624.851	1	1
625.190	1	6
625.529	1	12
625.869	1	13
626.208	1	-7
626.547	1	14
626.886	1	-1
627.226	1	6
627.565	1	8
627.904	1	10
628.243	1	0
628.583	1	3
628.922	1	1
629.261	1	12
629.600	1	5
629.940	1	3
630.279	1	-9
630.618	1	1
630.957	1	0
631.297	1	5
631.636	1	1
631.975	1	2
632.314	1	16
632.653	1	-8
632.993	1	10
633.332	1	13
633.671	1	5
634.010	1	3
634.349	1	13
634.689	1	13
635.028	1	5
635.367	1	3
635.706	1	-3
636.045	1	0
636.384	1	13
636.724	1	2
637.063	1	3
637.402	1	4
637.741	1	4
638.080	1	12
638.419	1	16
638.759	1	8
639.098	1	0
639.437	1	-4
639.776	1	6
640.115	1	-4
640.454	1	14
640.793	1	12
641.132	1	5
641.472	1	0
641.811	1	-5
642.150	1	7
642.489	1	3
642.828	1	6
643.167	1	15
643.506	1	-5
643.845	1	8
644.184	1	7
644.524	1	-4
644.863	1	-2
645.202	1	8
645.541	1	-6
645.880	1	2
646.219	1	3
646.558	1	9
646.897	1	-2
647.236	1	-4
647.575	1	3
647.914	1	-4
648.253	1	1
648.592	1	1
648.931	1	14
649.270	1	11
649.610	1	16
649.949	1	9
650.288	1	11
650.627	1	5
650.966	1	-9
651.305	1	0
651.644	1	1
651.983	1	5
652.322	1	15
652.661	1	7
653.000	1	11
653.339	1	12
653.678	1	3
654.017	1	7
654.356	1	10
654.695	1	6
655.034	1	2
655.373	1	1
655.712	1	2
656.051	1	14
656.390	1	-6
656.729	1	4
657.068	1	0
657.406	1	7
657.745	1	5
658.084	1	5
658.423	1	-5
658.762	1	1
659.101	1	-2
659.440	1	14
659.779	1	-17
660.118	1	4
660.457	1	-2
660.796	1	6
661.135	1	3
661.474	1	1
661.813	1	7
662.152	1	6
662.491	1	6
662.829	1	8
663.168	1	5
663.507	1	8
663.846	1	19
664.185	1	-5
664.524	1	-8
664.863	1	6
665.202	1	0
665.541	1	3
665.879	1	6
666.218	1	-3
666.557	1	5
666.896	1	3
667.235	1	1
667.574	1	17
667.913	1	4
668.251	1	0
668.590	1	3
668.929	1	10
669.268	1	4
669.607	1	-1
669.946	1	13
670.285	1	4
670.623	1	5
670.962	1	4
671.301	1	5
671.640	1	-7
671.979	1	17
672.317	1	1
672.656	1	7
672.995	1	1
673.334	1	10
673.673	1	17
674.011	1	1
674.350	1	2
674.689	1	6
675.028	1	12
675.367	1	3
675.705	1	-3
676.044	1	-14
676.383	1	2
676.722	1	0
677.060	1	11
677.399	1	1
677.738	1	7
678.077	1	1
678.416	1	7
678.754	1	2
679.093	1	-1
679.432	1	-5
679.771	1	-1
680.109	1	9
680.448	1	6
680.787	1	-3
681.125	1	2
681.464	1	7
681.803	1	-6
682.142	1	22
682.480	1	3
682.819	1	5
683.158	1	-1
683.496	1	0
683.835	1	4
684.174	1	4
684.512	1	4
684.851	1	-3
685.190	1	10
685.529	1	-1
685.867	1	8
686.206	1	8
686.545	1	2
686.883	1	-2
687.222	1	6
687.561	1	2
687.899	1	-2
688.238	1	5
688.577	1	-6
688.746	1	7