File: Analysis/GaN_68K_200ms/GaN_sample E_spot4_UVVIS_68 K_200um_200 ms 2x2mm1_234.txt
340.368	1	1
340.710	1	-8
341.052	1	0
341.394	1	-4
341.737	1	10
342.079	1	-7
342.421	1	-2
342.763	1	3
343.105	1	14
343.447	1	8
343.789	1	1
344.131	1	-4
344.473	1	10
344.815	1	10
345.157	1	7
345.499	1	4
345.841	1	5
346.183	1	-7
346.526	1	11
346.868	1	4
347.210	1	4
347.552	1	1
347.894	1	1
348.236	1	10
348.578	1	4
348.920	1	5
349.262	1	1
349.604	1	9
349.946	1	12
350.288	1	7
350.630	1	-13
350.972	1	-5
351.314	1	4
351.656	1	3
351.998	1	-4
352.340	1	-4
352.682	1	-5
353.024	1	-1
353.366	1	4
353.708	1	10
354.050	1	9
354.392	1	8
354.734	1	4
355.076	1	1
355.418	1	13
355.760	1	5
356.102	1	2
356.444	1	7
356.785	1	5
357.127	1	8
357.469	1	7
357.811	1	21
358.153	1	5
358.495	1	15
358.837	1	9
359.179	1	0
359.521	1	6
359.863	1	-1
360.205	1	-4
360.547	1	8
360.889	1	13
361.231	1	8
361.572	1	6
361.914	1	6
362.256	1	13
362.598	1	14
362.940	1	3
363.282	1	10
363.624	1	13
363.966	1	7
364.308	1	6
364.649	1	14
364.991	1	10
365.333	1	12
365.675	1	5
366.017	1	16
366.359	1	16
366.701	1	11
367.042	1	19
367.384	1	14
367.726	1	21
368.068	1	13
368.410	1	6
368.752	1	5
369.093	1	12
369.435	1	6
369.777	1	11
370.119	1	10
370.461	1	14
370.803	1	11
371.144	1	14
371.486	1	18
371.828	1	13
372.170	1	28
372.512	1	-1
372.853	1	13
373.195	1	-2
373.537	1	10
373.879	1	12
374.220	1	9
374.562	1	4
374.904	1	13
375.246	1	15
375.588	1	13
375.929	1	14
376.271	1	2
376.613	1	11
376.955	1	9
377.296	1	11
377.638	1	10
377.980	1	9
378.321	1	13
378.663	1	5
379.005	1	6
379.347	1	3
379.688	1	14
380.030	1	1
380.372	1	8
380.714	1	15
381.055	1	5
381.397	1	7
381.739	1	10
382.080	1	3
382.422	1	12
382.764	1	3
383.105	1	1
383.447	1	13
383.789	1	16
384.130	1	4
384.472	1	9
384.814	1	20
385.156	1	19
385.497	1	22
385.839	1	19
386.180	1	22
386.522	1	20
386.864	1	20
387.205	1	17
387.547	1	17
387.889	1	18
388.230	1	18
388.572	1	20
388.914	1	28
389.255	1	18
389.597	1	11
389.939	1	17
390.280	1	22
390.622	1	8
390.963	1	20
391.305	1	20
391.647	1	16
391.988	1	8
392.330	1	18
392.671	1	13
393.013	1	26
393.355	1	30
393.696	1	22
394.038	1	11
394.379	1	11
394.721	1	9
395.062	1	9
395.404	1	17
395.746	1	6
396.087	1	15
396.429	1	22
396.770	1	20
397.112	1	13
397.453	1	5
397.795	1	14
398.136	1	19
398.478	1	5
398.819	1	25
399.161	1	15
399.503	1	16
399.844	1	14
400.186	1	18
400.527	1	22
400.869	1	22
401.210	1	25
401.552	1	21
401.893	1	15
402.235	1	19
402.576	1	26
402.918	1	2
403.259	1	5
403.601	1	10
403.942	1	18
404.284	1	15
404.625	1	15
404.967	1	13
405.308	1	11
405.649	1	7
405.991	1	11
406.332	1	3
406.674	1	13
407.015	1	5
407.357	1	2
407.698	1	0
408.040	1	-3
408.381	1	8
408.722	1	4
409.064	1	5
409.405	1	16
409.747	1	9
410.088	1	9
410.430	1	14
410.771	1	15
411.112	1	8
411.454	1	14
411.795	1	16
412.137	1	16
412.478	1	21
412.819	1	-8
413.161	1	-1
413.502	1	6
413.844	1	15
414.185	1	8
414.526	1	10
414.868	1	17
415.209	1	3
415.550	1	3
415.892	1	7
416.233	1	5
416.575	1	-1
416.916	1	2
417.257	1	14
417.599	1	13
417.940	1	5
418.281	1	15
418.623	1	16
418.964	1	12
419.305	1	12
419.647	1	12
419.988	1	8
420.329	1	11
420.671	1	9
421.012	1	21
421.353	1	19
421.695	1	18
422.036	1	8
422.377	1	11
422.718	1	-2
423.060	1	4
423.401	1	10
423.742	1	10
424.084	1	15
424.425	1	6
424.766	1	6
425.107	1	9
425.449	1	2
425.790	1	10
426.131	1	11
426.472	1	3
426.814	1	19
427.155	1	13
427.496	1	11
427.837	1	7
428.179	1	-16
428.520	1	-1
428.861	1	6
429.202	1	16
429.544	1	12
429.885	1	5
430.226	1	2
430.567	1	14
430.909	1	-5
431.250	1	-1
431.591	1	8
431.932	1	13
432.273	1	8
432.615	1	9
432.956	1	10
433.297	1	13
433.638	1	11
433.979	1	9
434.320	1	4
434.662	1	6
435.003	1	11
435.344	1	10
435.685	1	15
436.026	1	1
436.368	1	11
436.709	1	-2
437.050	1	17
437.391	1	14
437.732	1	11
438.073	1	15
438.414	1	5
438.756	1	10
439.097	1	18
439.438	1	10
439.779	1	0
440.120	1	4
440.461	1	8
440.802	1	13
441.143	1	10
441.485	1	4
441.826	1	-4
442.167	1	3
442.508	1	3
442.849	1	14
443.190	1	-3
443.531	1	9
443.872	1	4
444.213	1	3
444.554	1	1
444.895	1	1
445.237	1	5
445.578	1	10
445.919	1	4
446.260	1	7
446.601	1	6
446.942	1	11
447.283	1	11
447.624	1	3
447.965	1	4
448.306	1	7
448.647	1	8
448.988	1	-3
449.329	1	14
449.670	1	13
450.011	1	3
450.352	1	10
450.693	1	2
451.034	1	1
451.375	1	11
451.716	1	9
452.057	1	12
452.398	1	2
452.739	1	5
453.080	1	14
453.421	1	2
453.762	1	6
454.103	1	-2
454.444	1	22
454.785	1	1
455.126	1	3
455.467	1	13
455.808	1	10
456.149	1	3
456.490	1	11
456.831	1	19
457.172	1	-1
457.513	1	14
457.854	1	4
458.195	1	-1
458.536	1	11
458.877	1	-5
459.218	1	2
459.559	1	0
459.899	1	19
460.240	1	14
460.581	1	14
460.922	1	6
461.263	1	8
461.604	1	-8
461.945	1	2
462.286	1	14
462.627	1	10
462.968	1	1
463.309	1	7
463.649	1	6
463.990	1	6
464.331	1	16
464.672	1	10
465.013	1	-2
465.354	1	10
465.695	1	7
466.036	1	-1
466.376	1	2
466.717	1	2
467.058	1	11
467.399	1	0
467.740	1	3
468.081	1	11
468.422	1	3
468.762	1	-6
469.103	1	3
469.444	1	2
469.785	1	16
470.126	1	2
470.467	1	-5
470.807	1	-2
471.148	1	-1
471.489	1	-3
471.830	1	11
472.171	1	12
472.511	1	18
472.852	1	2
473.193	1	-2
473.534	1	3
473.875	1	5
474.215	1	-1
474.556	1	1
474.897	1	1
475.238	1	11
475.578	1	6
475.919	1	11
476.260	1	7
476.601	1	1
476.942	1	5
477.282	1	-6
477.623	1	11
477.964	1	11
478.305	1	10
478.645	1	-7
478.986	1	3
479.327	1	-3
479.667	1	0
480.008	1	11
480.349	1	1
480.690	1	7
481.030	1	2
481.371	1	5
481.712	1	1
482.053	1	15
482.393	1	1
482.734	1	-1
483.075	1	8
483.415	1	7
483.756	1	10
484.097	1	-7
484.437	1	-3
484.778	1	-4
485.119	1	9
485.459	1	17
485.800	1	3
486.141	1	0
486.481	1	15
486.822	1	12
487.163	1	-1
487.503	1	0
487.844	1	14
488.185	1	-11
488.525	1	7
488.866	1	15
489.207	1	16
489.547	1	4
489.888	1	0
490.228	1	-10
490.569	1	0
490.910	1	2
491.250	1	1
491.591	1	4
491.932	1	7
492.272	1	4
492.613	1	10
492.953	1	13
493.294	1	9
493.635	1	4
493.975	1	4
494.316	1	15
494.656	1	1
494.997	1	9
495.337	1	17
495.678	1	9
496.019	1	6
496.359	1	4
496.700	1	3
497.040	1	6
497.381	1	-14
497.721	1	9
498.062	1	13
498.403	1	4
498.743	1	-2
499.084	1	-3
499.424	1	17
499.765	1	3
500.105	1	15
500.446	1	6
500.786	1	14
501.127	1	15
501.467	1	3
501.808	1	-4
502.148	1	5
502.489	1	12
502.829	1	10
503.170	1	4
503.510	1	-1
503.851	1	-12
504.191	1	13
504.532	1	1
504.872	1	2
505.213	1	2
505.553	1	10
505.894	1	11
506.234	1	20
506.575	1	9
506.915	1	0
507.256	1	5
507.596	1	12
507.936	1	4
508.277	1	-3
508.617	1	14
508.958	1	11
509.298	1	14
509.639	1	15
509.979	1	8
510.319	1	6
510.660	1	8
511.000	1	12
511.341	1	5
511.681	1	7
512.022	1	2
512.362	1	7
512.702	1	2
513.043	1	9
513.383	1	2
513.724	1	25
514.064	1	11
514.404	1	3
514.745	1	-1
515.085	1	14
515.425	1	-2
515.766	1	3
516.106	1	9
516.447	1	0
516.787	1	6
517.127	1	7
517.468	1	0
517.808	1	17
518.148	1	9
518.489	1	2
518.829	1	-3
519.169	1	16
519.510	1	10
519.850	1	7
520.190	1	8
520.531	1	22
520.871	1	7
521.211	1	11
521.552	1	8
521.892	1	-4
522.232	1	7
522.573	1	12
522.913	1	12
523.253	1	9
523.593	1	4
523.934	1	15
524.274	1	3
524.614	1	10
524.955	1	6
525.295	1	-3
525.635	1	21
525.975	1	5
526.316	1	10
526.656	1	23
526.996	1	17
527.337	1	8
527.677	1	25
528.017	1	5
528.357	1	21
528.698	1	4
529.038	1	17
529.378	1	9
529.718	1	16
530.058	1	9
530.399	1	27
530.739	1	8
531.079	1	4
531.419	1	18
531.760	1	18
532.100	1	11
532.440	1	13
532.780	1	10
533.120	1	8
533.461	1	20
533.801	1	10
534.141	1	17
534.481	1	11
534.821	1	21
535.162	1	18
535.502	1	10
535.842	1	2
536.182	1	15
536.522	1	16
536.862	1	16
537.203	1	17
537.543	1	17
537.883	1	10
538.223	1	14
538.563	1	16
538.903	1	6
539.243	1	14
539.584	1	9
539.924	1	14
540.264	1	10
540.604	1	20
540.944	1	7
541.284	1	5
541.624	1	12
541.964	1	13
542.305	1	14
542.645	1	10
542.985	1	5
543.325	1	5
543.665	1	19
544.005	1	9
544.345	1	-6
544.685	1	21
545.025	1	3
545.365	1	15
545.705	1	14
546.045	1	18
546.386	1	12
546.726	1	11
547.066	1	4
547.406	1	15
547.746	1	19
548.086	1	19
548.426	1	9
548.766	1	17
549.106	1	7
549.446	1	6
549.786	1	11
550.126	1	10
550.466	1	7
550.806	1	9
551.146	1	3
551.486	1	12
551.826	1	14
552.166	1	11
552.506	1	0
552.846	1	23
553.186	1	10
553.526	1	10
553.866	1	13
554.206	1	6
554.546	1	2
554.886	1	17
555.226	1	-8
555.566	1	14
555.906	1	6
556.246	1	10
556.586	1	13
556.926	1	14
557.266	1	12
557.606	1	-5
557.946	1	14
558.286	1	18
558.626	1	16
558.966	1	2
559.306	1	3
559.646	1	10
559.986	1	0
560.325	1	3
560.665	1	13
561.005	1	8
561.345	1	12
561.685	1	7
562.025	1	3
562.365	1	12
562.705	1	18
563.045	1	8
563.385	1	6
563.725	1	0
564.064	1	14
564.404	1	10
564.744	1	9
565.084	1	-1
565.424	1	11
565.764	1	18
566.104	1	-4
566.444	1	13
566.783	1	2
567.123	1	17
567.463	1	0
567.803	1	3
568.143	1	2
568.483	1	-4
568.823	1	14
569.162	1	11
569.502	1	2
569.842	1	-2
570.182	1	7
570.522	1	5
570.862	1	10
571.201	1	12
571.541	1	-5
571.881	1	13
572.221	1	-1
572.561	1	2
572.900	1	23
573.240	1	-3
573.580	1	12
573.920	1	-2
574.260	1	7
574.599	1	3
574.939	1	9
575.279	1	7
575.619	1	8
575.959	1	-1
576.298	1	4
576.638	1	9
576.978	1	14
577.318	1	10
577.657	1	-12
577.997	1	0
578.337	1	1
578.677	1	0
579.016	1	13
579.356	1	-10
579.696	1	6
580.036	1	16
580.375	1	7
580.715	1	17
581.055	1	2
581.394	1	-2
581.734	1	2
582.074	1	3
582.414	1	10
582.753	1	9
583.093	1	2
583.433	1	-2
583.772	1	11
584.112	1	13
584.452	1	-1
584.791	1	2
585.131	1	-2
585.471	1	-2
585.811	1	-2
586.150	1	10
586.490	1	3
586.830	1	0
587.169	1	12
587.509	1	8
587.849	1	13
588.188	1	-5
588.528	1	10
588.867	1	11
589.207	1	6
589.547	1	7
589.886	1	-5
590.226	1	0
590.566	1	5
590.905	1	8
591.245	1	11
591.585	1	7
591.924	1	4
592.264	1	4
592.603	1	3
592.943	1	0
593.283	1	17
593.622	1	8
593.962	1	13
594.301	1	10
594.641	1	-3
594.981	1	0
595.320	1	10
595.660	1	1
595.999	1	15
596.339	1	7
596.678	1	3
597.018	1	5
597.358	1	11
597.697	1	-6
598.037	1	10
598.376	1	8
598.716	1	6
599.055	1	10
599.395	1	10
599.734	1	7
600.074	1	7
600.413	1	1
600.753	1	11
601.092	1	-3
601.432	1	3
601.771	1	9
602.111	1	-1
602.451	1	4
602.790	1	10
603.130	1	11
603.469	1	4
603.809	1	11
604.148	1	-2
604.487	1	11
604.827	1	-7
605.166	1	-2
605.506	1	6
605.845	1	-2
606.185	1	0
606.524	1	2
606.864	1	6
607.203	1	9
607.543	1	2
607.882	1	3
608.222	1	5
608.561	1	4
608.901	1	8
609.240	1	5
609.579	1	6
609.919	1	0
610.258	1	16
610.598	1	10
610.937	1	2
611.277	1	10
611.616	1	-11
611.955	1	13
612.295	1	13
612.634	1	1
612.974	1	13
613.313	1	15
613.652	1	-1
613.992	1	1
614.331	1	9
614.671	1	8
615.010	1	2
615.349	1	9
615.689	1	12
616.028	1	2
616.368	1	6
616.707	1	10
617.046	1	6
617.386	1	0
617.725	1	8
618.064	1	7
618.404	1	17
618.743	1	5
619.082	1	9
619.422	1	1
619.761	1	-2
620.100	1	-3
620.440	1	6
620.779	1	-3
621.118	1	5
621.458	1	10
621.797	1	3
622.136	1	4
622.476	1	4
622.815	1	2
623.154	1	5
623.494	1	9
623.833	1	7
624.172	1	21
624.511	1	-1
624.851	1	1
625.190	1	8
625.529	1	10
625.869	1	11
626.208	1	2
626.547	1	3
626.886	1	2
627.226	1	7
627.565	1	14
627.904	1	9
628.243	1	4
628.583	1	4
628.922	1	2
629.261	1	8
629.600	1	8
629.940	1	5
630.279	1	10
630.618	1	-4
630.957	1	-1
631.297	1	-7
631.636	1	7
631.975	1	13
632.314	1	11
632.653	1	-6
632.993	1	9
633.332	1	12
633.671	1	2
634.010	1	-4
634.349	1	16
634.689	1	8
635.028	1	11
635.367	1	0
635.706	1	1
636.045	1	7
636.384	1	8
636.724	1	2
637.063	1	13
637.402	1	7
637.741	1	15
638.080	1	8
638.419	1	15
638.759	1	0
639.098	1	3
639.437	1	-5
639.776	1	2
640.115	1	1
640.454	1	20
640.793	1	6
641.132	1	10
641.472	1	-1
641.811	1	-2
642.150	1	4
642.489	1	4
642.828	1	7
643.167	1	9
643.506	1	-2
643.845	1	-1
644.184	1	1
644.524	1	0
644.863	1	2
645.202	1	-4
645.541	1	-13
645.880	1	13
646.219	1	3
646.558	1	4
646.897	1	8
647.236	1	9
647.575	1	13
647.914	1	1
648.253	1	4
648.592	1	6
648.931	1	11
649.270	1	11
649.610	1	18
649.949	1	5
650.288	1	4
650.627	1	2
650.966	1	-3
651.305	1	7
651.644	1	0
651.983	1	5
652.322	1	8
652.661	1	2
653.000	1	6
653.339	1	4
653.678	1	2
654.017	1	1
654.356	1	11
654.695	1	8
655.034	1	-1
655.373	1	0
655.712	1	-3
656.051	1	9
656.390	1	3
656.729	1	6
657.068	1	1
657.406	1	9
657.745	1	6
658.084	1	5
658.423	1	-1
658.762	1	8
659.101	1	-3
659.440	1	11
659.779	1	5
660.118	1	8
660.457	1	-2
660.796	1	-12
661.135	1	-2
661.474	1	-10
661.813	1	0
662.152	1	8
662.491	1	4
662.829	1	4
663.168	1	-8
663.507	1	-2
663.846	1	5
664.185	1	7
664.524	1	-11
664.863	1	7
665.202	1	-13
665.541	1	-10
665.879	1	5
666.218	1	-13
666.557	1	4
666.896	1	-3
667.235	1	2
667.574	1	6
667.913	1	9
668.251	1	3
668.590	1	-4
668.929	1	0
669.268	1	-3
669.607	1	-1
669.946	1	8
670.285	1	3
670.623	1	9
670.962	1	-2
671.301	1	2
671.640	1	-21
671.979	1	11
672.317	1	-1
672.656	1	5
672.995	1	1
673.334	1	15
673.673	1	20
674.011	1	4
674.350	1	-1
674.689	1	0
675.028	1	13
675.367	1	4
675.705	1	-1
676.044	1	-4
676.383	1	5
676.722	1	7
677.060	1	2
677.399	1	7
677.738	1	-4
678.077	1	6
678.416	1	3
678.754	1	1
679.093	1	13
679.432	1	-3
679.771	1	-4
680.109	1	6
680.448	1	3
680.787	1	-4
681.125	1	14
681.464	1	0
681.803	1	-7
682.142	1	8
682.480	1	-4
682.819	1	5
683.158	1	13
683.496	1	-1
683.835	1	12
684.174	1	5
684.512	1	-6
684.851	1	-5
685.190	1	15
685.529	1	2
685.867	1	0
686.206	1	6
686.545	1	9
686.883	1	-7
687.222	1	-3
687.561	1	3
687.899	1	1
688.238	1	2
688.577	1	-1
688.746	1	3