File: Analysis/GaN_68K_200ms/GaN_sample E_spot4_UVVIS_68 K_200um_200 ms 2x2mm1_759.txt
340.368	1	9
340.710	1	2
341.052	1	-1
341.394	1	-7
341.737	1	2
342.079	1	-13
342.421	1	-1
342.763	1	-2
343.105	1	5
343.447	1	4
343.789	1	-3
344.131	1	-3
344.473	1	-2
344.815	1	5
345.157	1	3
345.499	1	6
345.841	1	8
346.183	1	1
346.526	1	1
346.868	1	-2
347.210	1	-6
347.552	1	-8
347.894	1	-1
348.236	1	-1
348.578	1	-1
348.920	1	8
349.262	1	1
349.604	1	8
349.946	1	9
350.288	1	-5
350.630	1	-10
350.972	1	3
351.314	1	-4
351.656	1	1
351.998	1	3
352.340	1	-1
352.682	1	-4
353.024	1	-5
353.366	1	6
353.708	1	3
354.050	1	-1
354.392	1	3
354.734	1	-2
355.076	1	-4
355.418	1	2
355.760	1	-1
356.102	1	-8
356.444	1	-4
356.785	1	10
357.127	1	12
357.469	1	-6
357.811	1	9
358.153	1	3
358.495	1	-1
358.837	1	7
359.179	1	13
359.521	1	-7
359.863	1	-12
360.205	1	-3
360.547	1	2
360.889	1	5
361.231	1	0
361.572	1	-9
361.914	1	2
362.256	1	3
362.598	1	1
362.940	1	-8
363.282	1	2
363.624	1	3
363.966	1	-2
364.308	1	-10
364.649	1	-7
364.991	1	13
365.333	1	5
365.675	1	-4
366.017	1	9
366.359	1	9
366.701	1	-7
367.042	1	0
367.384	1	5
367.726	1	3
368.068	1	-9
368.410	1	-4
368.752	1	-5
369.093	1	2
369.435	1	-2
369.777	1	-2
370.119	1	9
370.461	1	2
370.803	1	-2
371.144	1	4
371.486	1	5
371.828	1	2
372.170	1	9
372.512	1	-5
372.853	1	2
373.195	1	-6
373.537	1	-2
373.879	1	16
374.220	1	2
374.562	1	1
374.904	1	-3
375.246	1	-6
375.588	1	-1
375.929	1	1
376.271	1	-6
376.613	1	-6
376.955	1	-4
377.296	1	0
377.638	1	-5
377.980	1	6
378.321	1	-2
378.663	1	-10
379.005	1	12
379.347	1	6
379.688	1	-6
380.030	1	-6
380.372	1	-1
380.714	1	1
381.055	1	0
381.397	1	-6
381.739	1	6
382.080	1	-4
382.422	1	10
382.764	1	6
383.105	1	-3
383.447	1	7
383.789	1	9
384.130	1	-11
384.472	1	-7
384.814	1	1
385.156	1	16
385.497	1	6
385.839	1	4
386.180	1	0
386.522	1	1
386.864	1	8
387.205	1	-1
387.547	1	-8
387.889	1	5
388.230	1	6
388.572	1	7
388.914	1	10
389.255	1	1
389.597	1	-3
389.939	1	4
390.280	1	6
390.622	1	-3
390.963	1	9
391.305	1	7
391.647	1	-1
391.988	1	-11
392.330	1	6
392.671	1	6
393.013	1	-1
393.355	1	7
393.696	1	-7
394.038	1	-6
394.379	1	-2
394.721	1	5
395.062	1	-15
395.404	1	8
395.746	1	-10
396.087	1	4
396.429	1	2
396.770	1	5
397.112	1	2
397.453	1	-7
397.795	1	8
398.136	1	-4
398.478	1	-6
398.819	1	15
399.161	1	0
399.503	1	5
399.844	1	-1
400.186	1	13
400.527	1	0
400.869	1	4
401.210	1	-7
401.552	1	4
401.893	1	-4
402.235	1	12
402.576	1	5
402.918	1	3
403.259	1	-17
403.601	1	-5
403.942	1	1
404.284	1	-3
404.625	1	1
404.967	1	2
405.308	1	2
405.649	1	-2
405.991	1	8
406.332	1	1
406.674	1	11
407.015	1	-2
407.357	1	-1
407.698	1	-14
408.040	1	-5
408.381	1	10
408.722	1	1
409.064	1	3
409.405	1	0
409.747	1	-5
410.088	1	2
410.430	1	2
410.771	1	5
411.112	1	4
411.454	1	4
411.795	1	1
412.137	1	8
412.478	1	0
412.819	1	-6
413.161	1	-7
413.502	1	0
413.844	1	-8
414.185	1	1
414.526	1	12
414.868	1	13
415.209	1	2
415.550	1	2
415.892	1	0
416.233	1	-3
416.575	1	-11
416.916	1	8
417.257	1	2
417.599	1	11
417.940	1	-6
418.281	1	0
418.623	1	2
418.964	1	-2
419.305	1	2
419.647	1	8
419.988	1	0
420.329	1	0
420.671	1	1
421.012	1	12
421.353	1	1
421.695	1	1
422.036	1	2
422.377	1	2
422.718	1	-9
423.060	1	3
423.401	1	0
423.742	1	4
424.084	1	1
424.425	1	-7
424.766	1	10
425.107	1	-7
425.449	1	3
425.790	1	-4
426.131	1	3
426.472	1	-2
426.814	1	5
427.155	1	7
427.496	1	9
427.837	1	2
428.179	1	-5
428.520	1	-4
428.861	1	2
429.202	1	14
429.544	1	3
429.885	1	-6
430.226	1	-8
430.567	1	0
430.909	1	0
431.250	1	-13
431.591	1	6
431.932	1	4
432.273	1	-7
432.615	1	11
432.956	1	1
433.297	1	3
433.638	1	8
433.979	1	-4
434.320	1	3
434.662	1	-3
435.003	1	-2
435.344	1	5
435.685	1	10
436.026	1	9
436.368	1	-4
436.709	1	-7
437.050	1	5
437.391	1	-2
437.732	1	1
438.073	1	0
438.414	1	-4
438.756	1	-1
439.097	1	8
439.438	1	9
439.779	1	-5
440.120	1	7
440.461	1	-4
440.802	1	0
441.143	1	0
441.485	1	-6
441.826	1	-8
442.167	1	7
442.508	1	-2
442.849	1	10
443.190	1	-5
443.531	1	-2
443.872	1	1
444.213	1	-6
444.554	1	-5
444.895	1	3
445.237	1	-8
445.578	1	7
445.919	1	-7
446.260	1	6
446.601	1	3
446.942	1	4
447.283	1	-4
447.624	1	8
447.965	1	-10
448.306	1	3
448.647	1	5
448.988	1	-10
449.329	1	4
449.670	1	13
450.011	1	1
450.352	1	6
450.693	1	12
451.034	1	0
451.375	1	7
451.716	1	2
452.057	1	10
452.398	1	5
452.739	1	-3
453.080	1	11
453.421	1	-1
453.762	1	6
454.103	1	1
454.444	1	10
454.785	1	-1
455.126	1	2
455.467	1	-4
455.808	1	-2
456.149	1	-1
456.490	1	2
456.831	1	12
457.172	1	-3
457.513	1	-2
457.854	1	0
458.195	1	-6
458.536	1	-3
458.877	1	-5
459.218	1	5
459.559	1	-2
459.899	1	10
460.240	1	-6
460.581	1	7
460.922	1	-2
461.263	1	0
461.604	1	1
461.945	1	10
462.286	1	10
462.627	1	4
462.968	1	-5
463.309	1	-5
463.649	1	3
463.990	1	1
464.331	1	-1
464.672	1	0
465.013	1	-5
465.354	1	1
465.695	1	4
466.036	1	3
466.376	1	-2
466.717	1	-18
467.058	1	15
467.399	1	0
467.740	1	-8
468.081	1	1
468.422	1	5
468.762	1	-15
469.103	1	-15
469.444	1	-9
469.785	1	9
470.126	1	5
470.467	1	-4
470.807	1	-7
471.148	1	-9
471.489	1	-6
471.830	1	12
472.171	1	-9
472.511	1	12
472.852	1	-3
473.193	1	-7
473.534	1	-7
473.875	1	5
474.215	1	1
474.556	1	-3
474.897	1	1
475.238	1	1
475.578	1	5
475.919	1	0
476.260	1	-1
476.601	1	1
476.942	1	-5
477.282	1	-7
477.623	1	-2
477.964	1	6
478.305	1	3
478.645	1	-4
478.986	1	2
479.327	1	-7
479.667	1	2
480.008	1	1
480.349	1	-1
480.690	1	-1
481.030	1	-1
481.371	1	-2
481.712	1	1
482.053	1	6
482.393	1	-7
482.734	1	-4
483.075	1	9
483.415	1	3
483.756	1	-2
484.097	1	-1
484.437	1	-9
484.778	1	-1
485.119	1	6
485.459	1	0
485.800	1	-5
486.141	1	-1
486.481	1	-7
486.822	1	0
487.163	1	-7
487.503	1	-7
487.844	1	-6
488.185	1	-7
488.525	1	-7
488.866	1	12
489.207	1	4
489.547	1	-1
489.888	1	-8
490.228	1	-1
490.569	1	5
490.910	1	-5
491.250	1	3
491.591	1	0
491.932	1	8
492.272	1	9
492.613	1	0
492.953	1	-3
493.294	1	11
493.635	1	-3
493.975	1	-5
494.316	1	1
494.656	1	-2
494.997	1	-3
495.337	1	10
495.678	1	-2
496.019	1	-6
496.359	1	5
496.700	1	1
497.040	1	-3
497.381	1	-15
497.721	1	-4
498.062	1	-1
498.403	1	7
498.743	1	6
499.084	1	-12
499.424	1	10
499.765	1	-2
500.105	1	9
500.446	1	11
500.786	1	4
501.127	1	11
501.467	1	6
501.808	1	-11
502.148	1	-3
502.489	1	3
502.829	1	-2
503.170	1	3
503.510	1	2
503.851	1	-15
504.191	1	2
504.532	1	-14
504.872	1	-2
505.213	1	-4
505.553	1	0
505.894	1	4
506.234	1	9
506.575	1	-12
506.915	1	-3
507.256	1	-3
507.596	1	1
507.936	1	5
508.277	1	3
508.617	1	4
508.958	1	7
509.298	1	12
509.639	1	7
509.979	1	-3
510.319	1	-4
510.660	1	6
511.000	1	6
511.341	1	-16
511.681	1	-2
512.022	1	-4
512.362	1	3
512.702	1	-11
513.043	1	6
513.383	1	-9
513.724	1	14
514.064	1	-4
514.404	1	0
514.745	1	-2
515.085	1	-3
515.425	1	-4
515.766	1	2
516.106	1	3
516.447	1	5
516.787	1	-1
517.127	1	-3
517.468	1	1
517.808	1	-3
518.148	1	-3
518.489	1	2
518.829	1	-7
519.169	1	8
519.510	1	-10
519.850	1	-11
520.190	1	5
520.531	1	7
520.871	1	-4
521.211	1	1
521.552	1	2
521.892	1	-22
522.232	1	-6
522.573	1	0
522.913	1	3
523.253	1	9
523.593	1	-9
523.934	1	2
524.274	1	1
524.614	1	2
524.955	1	1
525.295	1	-11
525.635	1	10
525.975	1	-11
526.316	1	-11
526.656	1	11
526.996	1	10
527.337	1	-3
527.677	1	11
528.017	1	0
528.357	1	5
528.698	1	-11
529.038	1	7
529.378	1	3
529.718	1	1
530.058	1	0
530.399	1	10
530.739	1	-11
531.079	1	11
531.419	1	-2
531.760	1	6
532.100	1	9
532.440	1	-2
532.780	1	-5
533.120	1	-8
533.461	1	11
533.801	1	-1
534.141	1	9
534.481	1	-1
534.821	1	-4
535.162	1	2
535.502	1	7
535.842	1	-4
536.182	1	7
536.522	1	1
536.862	1	-5
537.203	1	4
537.543	1	2
537.883	1	10
538.223	1	6
538.563	1	9
538.903	1	2
539.243	1	-5
539.584	1	3
539.924	1	6
540.264	1	-7
540.604	1	11
540.944	1	-2
541.284	1	-7
541.624	1	2
541.964	1	5
542.305	1	-9
542.645	1	0
542.985	1	-5
543.325	1	-9
543.665	1	15
544.005	1	-14
544.345	1	-4
544.685	1	4
545.025	1	-15
545.365	1	0
545.705	1	1
546.045	1	9
546.386	1	8
546.726	1	-6
547.066	1	-4
547.406	1	9
547.746	1	5
548.086	1	-2
548.426	1	5
548.766	1	1
549.106	1	10
549.446	1	5
549.786	1	-1
550.126	1	-2
550.466	1	-5
550.806	1	10
551.146	1	-3
551.486	1	-1
551.826	1	4
552.166	1	-4
552.506	1	-5
552.846	1	1
553.186	1	-4
553.526	1	-3
553.866	1	3
554.206	1	-7
554.546	1	-7
554.886	1	3
555.226	1	-10
555.566	1	4
555.906	1	0
556.246	1	1
556.586	1	10
556.926	1	-4
557.266	1	13
557.606	1	-12
557.946	1	10
558.286	1	11
558.626	1	4
558.966	1	-3
559.306	1	-3
559.646	1	-2
559.986	1	-8
560.325	1	-11
560.665	1	3
561.005	1	3
561.345	1	-6
561.685	1	-6
562.025	1	-8
562.365	1	5
562.705	1	4
563.045	1	9
563.385	1	-3
563.725	1	-6
564.064	1	-3
564.404	1	5
564.744	1	7
565.084	1	-10
565.424	1	1
565.764	1	12
566.104	1	3
566.444	1	7
566.783	1	-2
567.123	1	16
567.463	1	-7
567.803	1	-6
568.143	1	-9
568.483	1	-4
568.823	1	-1
569.162	1	5
569.502	1	0
569.842	1	-6
570.182	1	-1
570.522	1	8
570.862	1	5
571.201	1	4
571.541	1	-1
571.881	1	11
572.221	1	5
572.561	1	-2
572.900	1	11
573.240	1	-12
573.580	1	3
573.920	1	-2
574.260	1	-7
574.599	1	1
574.939	1	4
575.279	1	9
575.619	1	1
575.959	1	-7
576.298	1	-6
576.638	1	6
576.978	1	3
577.318	1	4
577.657	1	-15
577.997	1	-7
578.337	1	-4
578.677	1	0
579.016	1	8
579.356	1	-5
579.696	1	11
580.036	1	0
580.375	1	0
580.715	1	7
581.055	1	3
581.394	1	1
581.734	1	3
582.074	1	-3
582.414	1	9
582.753	1	0
583.093	1	-5
583.433	1	-4
583.772	1	0
584.112	1	3
584.452	1	0
584.791	1	-1
585.131	1	4
585.471	1	0
585.811	1	-5
586.150	1	-1
586.490	1	-11
586.830	1	-4
587.169	1	1
587.509	1	1
587.849	1	7
588.188	1	4
588.528	1	2
588.867	1	7
589.207	1	-9
589.547	1	5
589.886	1	-5
590.226	1	-1
590.566	1	-3
590.905	1	7
591.245	1	-4
591.585	1	1
591.924	1	0
592.264	1	1
592.603	1	-5
592.943	1	-2
593.283	1	7
593.622	1	-7
593.962	1	6
594.301	1	3
594.641	1	-17
594.981	1	0
595.320	1	6
595.660	1	0
595.999	1	9
596.339	1	-3
596.678	1	-9
597.018	1	3
597.358	1	6
597.697	1	-2
598.037	1	-2
598.376	1	5
598.716	1	-9
599.055	1	-4
599.395	1	3
599.734	1	-5
600.074	1	-14
600.413	1	0
600.753	1	5
601.092	1	-19
601.432	1	-3
601.771	1	3
602.111	1	2
602.451	1	6
602.790	1	6
603.130	1	-1
603.469	1	0
603.809	1	6
604.148	1	-6
604.487	1	4
604.827	1	-17
605.166	1	-6
605.506	1	8
605.845	1	-3
606.185	1	1
606.524	1	-6
606.864	1	-8
607.203	1	6
607.543	1	-7
607.882	1	-10
608.222	1	6
608.561	1	3
608.901	1	3
609.240	1	12
609.579	1	11
609.919	1	-4
610.258	1	5
610.598	1	0
610.937	1	-1
611.277	1	4
611.616	1	-12
611.955	1	5
612.295	1	1
612.634	1	0
612.974	1	10
613.313	1	1
613.652	1	-11
613.992	1	4
614.331	1	5
614.671	1	2
615.010	1	4
615.349	1	-2
615.689	1	1
616.028	1	-5
616.368	1	1
616.707	1	-5
617.046	1	-1
617.386	1	0
617.725	1	4
618.064	1	4
618.404	1	12
618.743	1	0
619.082	1	2
619.422	1	5
619.761	1	-5
620.100	1	-3
620.440	1	-1
620.779	1	-3
621.118	1	-2
621.458	1	12
621.797	1	-6
622.136	1	-5
622.476	1	3
622.815	1	-1
623.154	1	2
623.494	1	1
623.833	1	-4
624.172	1	15
624.511	1	-7
624.851	1	-4
625.190	1	-5
625.529	1	11
625.869	1	-4
626.208	1	1
626.547	1	-2
626.886	1	-10
627.226	1	-1
627.565	1	8
627.904	1	5
628.243	1	-4
628.583	1	-3
628.922	1	-1
629.261	1	1
629.600	1	7
629.940	1	7
630.279	1	-11
630.618	1	-1
630.957	1	0
631.297	1	-8
631.636	1	0
631.975	1	-1
632.314	1	8
632.653	1	-6
632.993	1	13
633.332	1	12
633.671	1	5
634.010	1	-1
634.349	1	-8
634.689	1	12
635.028	1	1
635.367	1	-5
635.706	1	-4
636.045	1	3
636.384	1	6
636.724	1	-1
637.063	1	4
637.402	1	5
637.741	1	5
638.080	1	-8
638.419	1	8
638.759	1	2
639.098	1	11
639.437	1	-11
639.776	1	-7
640.115	1	1
640.454	1	15
640.793	1	4
641.132	1	-3
641.472	1	-4
641.811	1	-2
642.150	1	-2
642.489	1	-3
642.828	1	-3
643.167	1	11
643.506	1	-4
643.845	1	-3
644.184	1	5
644.524	1	-6
644.863	1	-4
645.202	1	0
645.541	1	-5
645.880	1	-2
646.219	1	9
646.558	1	1
646.897	1	4
647.236	1	-5
647.575	1	-2
647.914	1	0
648.253	1	-1
648.592	1	-5
648.931	1	9
649.270	1	5
649.610	1	2
649.949	1	3
650.288	1	-3
650.627	1	4
650.966	1	-6
651.305	1	-9
651.644	1	-6
651.983	1	-7
652.322	1	7
652.661	1	-2
653.000	1	4
653.339	1	7
653.678	1	-2
654.017	1	-3
654.356	1	4
654.695	1	5
655.034	1	2
655.373	1	3
655.712	1	-7
656.051	1	6
656.390	1	1
656.729	1	7
657.068	1	-6
657.406	1	-7
657.745	1	-6
658.084	1	14
658.423	1	-9
658.762	1	-4
659.101	1	-8
659.440	1	8
659.779	1	4
660.118	1	4
660.457	1	-5
660.796	1	-6
661.135	1	2
661.474	1	-3
661.813	1	5
662.152	1	-1
662.491	1	4
662.829	1	-4
663.168	1	-7
663.507	1	0
663.846	1	8
664.185	1	-4
664.524	1	-3
664.863	1	6
665.202	1	-10
665.541	1	-11
665.879	1	2
666.218	1	-9
666.557	1	-2
666.896	1	1
667.235	1	0
667.574	1	3
667.913	1	4
668.251	1	2
668.590	1	-2
668.929	1	-2
669.268	1	7
669.607	1	-9
669.946	1	12
670.285	1	2
670.623	1	1
670.962	1	-1
671.301	1	-2
671.640	1	-13
671.979	1	12
672.317	1	-9
672.656	1	-3
672.995	1	-11
673.334	1	8
673.673	1	12
674.011	1	-5
674.350	1	-5
674.689	1	-7
675.028	1	4
675.367	1	0
675.705	1	-4
676.044	1	-3
676.383	1	-8
676.722	1	-1
677.060	1	8
677.399	1	-9
677.738	1	-3
678.077	1	-6
678.416	1	-7
678.754	1	-8
679.093	1	3
679.432	1	-1
679.771	1	0
680.109	1	4
680.448	1	2
680.787	1	-2
681.125	1	5
681.464	1	-3
681.803	1	-10
682.142	1	4
682.480	1	0
682.819	1	4
683.158	1	1
683.496	1	-4
683.835	1	11
684.174	1	4
684.512	1	-2
684.851	1	-3
685.190	1	-1
685.529	1	3
685.867	1	10
686.206	1	1
686.545	1	5
686.883	1	-7
687.222	1	-11
687.561	1	7
687.899	1	0
688.238	1	-1
688.577	1	-6
688.746	1	-3