File: Analysis/GaN_68K_200ms/GaN_sample E_spot4_UVVIS_68 K_200um_200 ms 2x2mm1_217.txt
340.368	1	-1
340.710	1	-13
341.052	1	2
341.394	1	11
341.737	1	10
342.079	1	2
342.421	1	2
342.763	1	6
343.105	1	11
343.447	1	7
343.789	1	7
344.131	1	1
344.473	1	-1
344.815	1	12
345.157	1	11
345.499	1	1
345.841	1	6
346.183	1	-4
346.526	1	9
346.868	1	5
347.210	1	10
347.552	1	1
347.894	1	4
348.236	1	10
348.578	1	10
348.920	1	20
349.262	1	4
349.604	1	24
349.946	1	8
350.288	1	-2
350.630	1	-1
350.972	1	0
351.314	1	6
351.656	1	7
351.998	1	3
352.340	1	4
352.682	1	2
353.024	1	5
353.366	1	12
353.708	1	12
354.050	1	9
354.392	1	10
354.734	1	-4
355.076	1	0
355.418	1	9
355.760	1	19
356.102	1	8
356.444	1	2
356.785	1	19
357.127	1	1
357.469	1	21
357.811	1	21
358.153	1	11
358.495	1	17
358.837	1	10
359.179	1	6
359.521	1	3
359.863	1	6
360.205	1	4
360.547	1	-5
360.889	1	10
361.231	1	10
361.572	1	5
361.914	1	2
362.256	1	11
362.598	1	8
362.940	1	7
363.282	1	16
363.624	1	11
363.966	1	3
364.308	1	13
364.649	1	20
364.991	1	17
365.333	1	18
365.675	1	6
366.017	1	16
366.359	1	12
366.701	1	11
367.042	1	9
367.384	1	14
367.726	1	14
368.068	1	9
368.410	1	11
368.752	1	6
369.093	1	16
369.435	1	4
369.777	1	8
370.119	1	15
370.461	1	8
370.803	1	2
371.144	1	16
371.486	1	16
371.828	1	11
372.170	1	16
372.512	1	4
372.853	1	12
373.195	1	-5
373.537	1	13
373.879	1	13
374.220	1	5
374.562	1	13
374.904	1	8
375.246	1	1
375.588	1	11
375.929	1	11
376.271	1	8
376.613	1	10
376.955	1	8
377.296	1	18
377.638	1	10
377.980	1	8
378.321	1	6
378.663	1	-5
379.005	1	8
379.347	1	10
379.688	1	1
380.030	1	-5
380.372	1	0
380.714	1	10
381.055	1	-1
381.397	1	3
381.739	1	17
382.080	1	0
382.422	1	15
382.764	1	12
383.105	1	8
383.447	1	12
383.789	1	12
384.130	1	3
384.472	1	4
384.814	1	19
385.156	1	28
385.497	1	30
385.839	1	23
386.180	1	22
386.522	1	22
386.864	1	15
387.205	1	16
387.547	1	12
387.889	1	28
388.230	1	16
388.572	1	17
388.914	1	23
389.255	1	19
389.597	1	2
389.939	1	22
390.280	1	14
390.622	1	13
390.963	1	23
391.305	1	15
391.647	1	17
391.988	1	12
392.330	1	17
392.671	1	20
393.013	1	33
393.355	1	30
393.696	1	17
394.038	1	14
394.379	1	2
394.721	1	18
395.062	1	5
395.404	1	21
395.746	1	12
396.087	1	8
396.429	1	10
396.770	1	30
397.112	1	18
397.453	1	8
397.795	1	18
398.136	1	20
398.478	1	7
398.819	1	29
399.161	1	19
399.503	1	5
399.844	1	9
400.186	1	22
400.527	1	22
400.869	1	20
401.210	1	5
401.552	1	28
401.893	1	23
402.235	1	16
402.576	1	25
402.918	1	3
403.259	1	3
403.601	1	9
403.942	1	19
404.284	1	6
404.625	1	17
404.967	1	14
405.308	1	5
405.649	1	9
405.991	1	14
406.332	1	7
406.674	1	15
407.015	1	1
407.357	1	8
407.698	1	11
408.040	1	5
408.381	1	12
408.722	1	8
409.064	1	12
409.405	1	21
409.747	1	7
410.088	1	14
410.430	1	13
410.771	1	13
411.112	1	7
411.454	1	16
411.795	1	13
412.137	1	25
412.478	1	18
412.819	1	4
413.161	1	5
413.502	1	12
413.844	1	15
414.185	1	8
414.526	1	2
414.868	1	14
415.209	1	2
415.550	1	-1
415.892	1	11
416.233	1	6
416.575	1	13
416.916	1	4
417.257	1	16
417.599	1	16
417.940	1	11
418.281	1	13
418.623	1	3
418.964	1	12
419.305	1	16
419.647	1	21
419.988	1	1
420.329	1	17
420.671	1	7
421.012	1	23
421.353	1	20
421.695	1	8
422.036	1	7
422.377	1	8
422.718	1	3
423.060	1	0
423.401	1	3
423.742	1	13
424.084	1	7
424.425	1	1
424.766	1	15
425.107	1	0
425.449	1	4
425.790	1	6
426.131	1	16
426.472	1	11
426.814	1	16
427.155	1	7
427.496	1	11
427.837	1	0
428.179	1	1
428.520	1	-7
428.861	1	3
429.202	1	17
429.544	1	6
429.885	1	7
430.226	1	2
430.567	1	12
430.909	1	9
431.250	1	2
431.591	1	12
431.932	1	9
432.273	1	11
432.615	1	11
432.956	1	4
433.297	1	12
433.638	1	1
433.979	1	3
434.320	1	5
434.662	1	6
435.003	1	6
435.344	1	1
435.685	1	18
436.026	1	2
436.368	1	4
436.709	1	0
437.050	1	13
437.391	1	6
437.732	1	11
438.073	1	11
438.414	1	13
438.756	1	17
439.097	1	13
439.438	1	14
439.779	1	11
440.120	1	15
440.461	1	6
440.802	1	10
441.143	1	12
441.485	1	-2
441.826	1	1
442.167	1	1
442.508	1	3
442.849	1	13
443.190	1	-8
443.531	1	7
443.872	1	-3
444.213	1	6
444.554	1	4
444.895	1	6
445.237	1	4
445.578	1	8
445.919	1	2
446.260	1	8
446.601	1	-1
446.942	1	14
447.283	1	6
447.624	1	13
447.965	1	0
448.306	1	6
448.647	1	22
448.988	1	-6
449.329	1	-3
449.670	1	6
450.011	1	6
450.352	1	12
450.693	1	0
451.034	1	6
451.375	1	13
451.716	1	7
452.057	1	8
452.398	1	4
452.739	1	10
453.080	1	13
453.421	1	5
453.762	1	5
454.103	1	10
454.444	1	13
454.785	1	-2
455.126	1	10
455.467	1	5
455.808	1	2
456.149	1	6
456.490	1	5
456.831	1	19
457.172	1	0
457.513	1	7
457.854	1	8
458.195	1	-2
458.536	1	5
458.877	1	-1
459.218	1	3
459.559	1	8
459.899	1	17
460.240	1	6
460.581	1	20
460.922	1	1
461.263	1	23
461.604	1	8
461.945	1	16
462.286	1	8
462.627	1	5
462.968	1	0
463.309	1	-2
463.649	1	8
463.990	1	11
464.331	1	8
464.672	1	16
465.013	1	-1
465.354	1	2
465.695	1	11
466.036	1	8
466.376	1	0
466.717	1	-1
467.058	1	12
467.399	1	8
467.740	1	5
468.081	1	0
468.422	1	9
468.762	1	-9
469.103	1	-2
469.444	1	2
469.785	1	13
470.126	1	4
470.467	1	3
470.807	1	8
471.148	1	-11
471.489	1	14
471.830	1	18
472.171	1	5
472.511	1	14
472.852	1	-5
473.193	1	1
473.534	1	5
473.875	1	12
474.215	1	4
474.556	1	1
474.897	1	12
475.238	1	5
475.578	1	7
475.919	1	16
476.260	1	3
476.601	1	4
476.942	1	7
477.282	1	-13
477.623	1	4
477.964	1	13
478.305	1	-1
478.645	1	-5
478.986	1	1
479.327	1	0
479.667	1	3
480.008	1	4
480.349	1	13
480.690	1	3
481.030	1	5
481.371	1	10
481.712	1	12
482.053	1	13
482.393	1	-11
482.734	1	9
483.075	1	21
483.415	1	13
483.756	1	18
484.097	1	1
484.437	1	-4
484.778	1	5
485.119	1	6
485.459	1	8
485.800	1	0
486.141	1	-5
486.481	1	17
486.822	1	10
487.163	1	-8
487.503	1	-8
487.844	1	8
488.185	1	6
488.525	1	7
488.866	1	15
489.207	1	13
489.547	1	-2
489.888	1	4
490.228	1	-2
490.569	1	6
490.910	1	1
491.250	1	8
491.591	1	-9
491.932	1	5
492.272	1	18
492.613	1	1
492.953	1	12
493.294	1	6
493.635	1	7
493.975	1	4
494.316	1	14
494.656	1	5
494.997	1	2
495.337	1	13
495.678	1	9
496.019	1	0
496.359	1	-3
496.700	1	14
497.040	1	13
497.381	1	-13
497.721	1	3
498.062	1	6
498.403	1	12
498.743	1	7
499.084	1	-9
499.424	1	20
499.765	1	3
500.105	1	8
500.446	1	1
500.786	1	7
501.127	1	16
501.467	1	17
501.808	1	-5
502.148	1	2
502.489	1	19
502.829	1	7
503.170	1	15
503.510	1	14
503.851	1	-9
504.191	1	5
504.532	1	-2
504.872	1	-1
505.213	1	8
505.553	1	28
505.894	1	5
506.234	1	18
506.575	1	8
506.915	1	10
507.256	1	8
507.596	1	12
507.936	1	15
508.277	1	8
508.617	1	13
508.958	1	20
509.298	1	18
509.639	1	16
509.979	1	4
510.319	1	9
510.660	1	12
511.000	1	18
511.341	1	8
511.681	1	9
512.022	1	2
512.362	1	6
512.702	1	2
513.043	1	7
513.383	1	2
513.724	1	17
514.064	1	11
514.404	1	0
514.745	1	7
515.085	1	18
515.425	1	13
515.766	1	4
516.106	1	6
516.447	1	8
516.787	1	5
517.127	1	6
517.468	1	8
517.808	1	14
518.148	1	8
518.489	1	9
518.829	1	-2
519.169	1	20
519.510	1	19
519.850	1	9
520.190	1	5
520.531	1	10
520.871	1	-2
521.211	1	10
521.552	1	15
521.892	1	2
522.232	1	6
522.573	1	16
522.913	1	14
523.253	1	13
523.593	1	3
523.934	1	14
524.274	1	0
524.614	1	11
524.955	1	14
525.295	1	8
525.635	1	26
525.975	1	9
526.316	1	5
526.656	1	32
526.996	1	19
527.337	1	16
527.677	1	21
528.017	1	3
528.357	1	17
528.698	1	4
529.038	1	19
529.378	1	10
529.718	1	22
530.058	1	14
530.399	1	19
530.739	1	-3
531.079	1	12
531.419	1	20
531.760	1	20
532.100	1	19
532.440	1	0
532.780	1	8
533.120	1	12
533.461	1	25
533.801	1	19
534.141	1	27
534.481	1	13
534.821	1	22
535.162	1	20
535.502	1	4
535.842	1	13
536.182	1	17
536.522	1	11
536.862	1	24
537.203	1	18
537.543	1	13
537.883	1	9
538.223	1	16
538.563	1	12
538.903	1	12
539.243	1	5
539.584	1	16
539.924	1	14
540.264	1	13
540.604	1	15
540.944	1	4
541.284	1	3
541.624	1	4
541.964	1	23
542.305	1	3
542.645	1	3
542.985	1	10
543.325	1	7
543.665	1	14
544.005	1	13
544.345	1	1
544.685	1	15
545.025	1	4
545.365	1	9
545.705	1	3
546.045	1	21
546.386	1	20
546.726	1	11
547.066	1	-7
547.406	1	10
547.746	1	13
548.086	1	14
548.426	1	8
548.766	1	17
549.106	1	8
549.446	1	6
549.786	1	21
550.126	1	6
550.466	1	10
550.806	1	9
551.146	1	8
551.486	1	16
551.826	1	17
552.166	1	13
552.506	1	7
552.846	1	10
553.186	1	7
553.526	1	7
553.866	1	11
554.206	1	12
554.546	1	-2
554.886	1	17
555.226	1	2
555.566	1	15
555.906	1	14
556.246	1	12
556.586	1	17
556.926	1	13
557.266	1	14
557.606	1	1
557.946	1	19
558.286	1	15
558.626	1	12
558.966	1	20
559.306	1	6
559.646	1	4
559.986	1	1
560.325	1	3
560.665	1	17
561.005	1	11
561.345	1	9
561.685	1	-5
562.025	1	9
562.365	1	11
562.705	1	11
563.045	1	19
563.385	1	5
563.725	1	8
564.064	1	18
564.404	1	6
564.744	1	8
565.084	1	10
565.424	1	16
565.764	1	24
566.104	1	3
566.444	1	16
566.783	1	11
567.123	1	24
567.463	1	-1
567.803	1	9
568.143	1	9
568.483	1	-1
568.823	1	11
569.162	1	9
569.502	1	7
569.842	1	7
570.182	1	6
570.522	1	10
570.862	1	14
571.201	1	12
571.541	1	-6
571.881	1	11
572.221	1	3
572.561	1	1
572.900	1	18
573.240	1	3
573.580	1	11
573.920	1	7
574.260	1	5
574.599	1	1
574.939	1	4
575.279	1	11
575.619	1	3
575.959	1	-4
576.298	1	3
576.638	1	7
576.978	1	12
577.318	1	9
577.657	1	-3
577.997	1	-7
578.337	1	3
578.677	1	-3
579.016	1	14
579.356	1	6
579.696	1	8
580.036	1	-3
580.375	1	2
580.715	1	12
581.055	1	10
581.394	1	-4
581.734	1	18
582.074	1	6
582.414	1	8
582.753	1	13
583.093	1	0
583.433	1	-4
583.772	1	4
584.112	1	8
584.452	1	7
584.791	1	10
585.131	1	7
585.471	1	-4
585.811	1	-4
586.150	1	5
586.490	1	-3
586.830	1	-6
587.169	1	8
587.509	1	9
587.849	1	7
588.188	1	-1
588.528	1	3
588.867	1	11
589.207	1	-5
589.547	1	3
589.886	1	-2
590.226	1	5
590.566	1	11
590.905	1	14
591.245	1	0
591.585	1	0
591.924	1	-1
592.264	1	9
592.603	1	-3
592.943	1	6
593.283	1	8
593.622	1	4
593.962	1	10
594.301	1	8
594.641	1	-3
594.981	1	9
595.320	1	12
595.660	1	1
595.999	1	5
596.339	1	3
596.678	1	4
597.018	1	10
597.358	1	14
597.697	1	7
598.037	1	10
598.376	1	11
598.716	1	0
599.055	1	11
599.395	1	12
599.734	1	1
600.074	1	6
600.413	1	6
600.753	1	5
601.092	1	-8
601.432	1	2
601.771	1	11
602.111	1	-1
602.451	1	1
602.790	1	6
603.130	1	7
603.469	1	3
603.809	1	9
604.148	1	5
604.487	1	11
604.827	1	-5
605.166	1	0
605.506	1	5
605.845	1	8
606.185	1	7
606.524	1	-4
606.864	1	2
607.203	1	18
607.543	1	-8
607.882	1	4
608.222	1	6
608.561	1	5
608.901	1	9
609.240	1	3
609.579	1	3
609.919	1	1
610.258	1	8
610.598	1	1
610.937	1	11
611.277	1	13
611.616	1	0
611.955	1	15
612.295	1	7
612.634	1	3
612.974	1	5
613.313	1	11
613.652	1	-1
613.992	1	5
614.331	1	-6
614.671	1	12
615.010	1	10
615.349	1	0
615.689	1	3
616.028	1	-4
616.368	1	1
616.707	1	9
617.046	1	9
617.386	1	0
617.725	1	9
618.064	1	3
618.404	1	10
618.743	1	3
619.082	1	4
619.422	1	4
619.761	1	6
620.100	1	3
620.440	1	7
620.779	1	-6
621.118	1	11
621.458	1	7
621.797	1	11
622.136	1	6
622.476	1	12
622.815	1	3
623.154	1	10
623.494	1	12
623.833	1	3
624.172	1	8
624.511	1	7
624.851	1	-4
625.190	1	1
625.529	1	12
625.869	1	8
626.208	1	4
626.547	1	-4
626.886	1	0
627.226	1	3
627.565	1	16
627.904	1	9
628.243	1	5
628.583	1	2
628.922	1	5
629.261	1	10
629.600	1	4
629.940	1	8
630.279	1	4
630.618	1	2
630.957	1	7
631.297	1	-5
631.636	1	0
631.975	1	11
632.314	1	19
632.653	1	-7
632.993	1	10
633.332	1	6
633.671	1	5
634.010	1	4
634.349	1	8
634.689	1	1
635.028	1	7
635.367	1	4
635.706	1	-1
636.045	1	11
636.384	1	3
636.724	1	10
637.063	1	0
637.402	1	15
637.741	1	7
638.080	1	7
638.419	1	14
638.759	1	6
639.098	1	2
639.437	1	1
639.776	1	3
640.115	1	-3
640.454	1	14
640.793	1	7
641.132	1	16
641.472	1	-9
641.811	1	-1
642.150	1	9
642.489	1	4
642.828	1	7
643.167	1	10
643.506	1	-4
643.845	1	11
644.184	1	6
644.524	1	2
644.863	1	-9
645.202	1	6
645.541	1	2
645.880	1	7
646.219	1	1
646.558	1	4
646.897	1	1
647.236	1	7
647.575	1	10
647.914	1	0
648.253	1	4
648.592	1	0
648.931	1	6
649.270	1	10
649.610	1	9
649.949	1	6
650.288	1	4
650.627	1	6
650.966	1	5
651.305	1	4
651.644	1	0
651.983	1	-1
652.322	1	10
652.661	1	5
653.000	1	-1
653.339	1	12
653.678	1	7
654.017	1	5
654.356	1	5
654.695	1	12
655.034	1	4
655.373	1	13
655.712	1	2
656.051	1	9
656.390	1	-2
656.729	1	3
657.068	1	-2
657.406	1	7
657.745	1	4
658.084	1	13
658.423	1	-9
658.762	1	0
659.101	1	3
659.440	1	7
659.779	1	-3
660.118	1	8
660.457	1	-9
660.796	1	-7
661.135	1	5
661.474	1	3
661.813	1	4
662.152	1	2
662.491	1	5
662.829	1	-3
663.168	1	2
663.507	1	3
663.846	1	14
664.185	1	4
664.524	1	-11
664.863	1	2
665.202	1	0
665.541	1	-5
665.879	1	0
666.218	1	-6
666.557	1	5
666.896	1	6
667.235	1	2
667.574	1	13
667.913	1	4
668.251	1	4
668.590	1	0
668.929	1	0
669.268	1	7
669.607	1	-8
669.946	1	12
670.285	1	6
670.623	1	2
670.962	1	-4
671.301	1	-10
671.640	1	-12
671.979	1	18
672.317	1	3
672.656	1	5
672.995	1	4
673.334	1	1
673.673	1	12
674.011	1	5
674.350	1	3
674.689	1	-2
675.028	1	8
675.367	1	9
675.705	1	-8
676.044	1	-8
676.383	1	-3
676.722	1	3
677.060	1	5
677.399	1	4
677.738	1	8
678.077	1	4
678.416	1	4
678.754	1	6
679.093	1	5
679.432	1	1
679.771	1	-3
680.109	1	20
680.448	1	14
680.787	1	7
681.125	1	14
681.464	1	4
681.803	1	-9
682.142	1	10
682.480	1	6
682.819	1	1
683.158	1	5
683.496	1	4
683.835	1	6
684.174	1	8
684.512	1	3
684.851	1	1
685.190	1	10
685.529	1	8
685.867	1	11
686.206	1	6
686.545	1	9
686.883	1	-1
687.222	1	4
687.561	1	4
687.899	1	8
688.238	1	2
688.577	1	2
688.746	1	5