File: Analysis/GaN_68K_200ms/GaN_sample E_spot4_UVVIS_68 K_200um_200 ms 2x2mm1_324.txt
340.368	1	3
340.710	1	-1
341.052	1	9
341.394	1	5
341.737	1	11
342.079	1	-1
342.421	1	-4
342.763	1	2
343.105	1	7
343.447	1	7
343.789	1	-3
344.131	1	-5
344.473	1	-1
344.815	1	11
345.157	1	8
345.499	1	11
345.841	1	-4
346.183	1	7
346.526	1	9
346.868	1	7
347.210	1	8
347.552	1	-3
347.894	1	1
348.236	1	2
348.578	1	8
348.920	1	14
349.262	1	4
349.604	1	11
349.946	1	19
350.288	1	6
350.630	1	-1
350.972	1	4
351.314	1	2
351.656	1	4
351.998	1	5
352.340	1	5
352.682	1	-1
353.024	1	0
353.366	1	6
353.708	1	5
354.050	1	9
354.392	1	5
354.734	1	0
355.076	1	9
355.418	1	1
355.760	1	10
356.102	1	-5
356.444	1	8
356.785	1	17
357.127	1	8
357.469	1	-2
357.811	1	5
358.153	1	5
358.495	1	1
358.837	1	5
359.179	1	0
359.521	1	9
359.863	1	-1
360.205	1	-3
360.547	1	-4
360.889	1	6
361.231	1	4
361.572	1	-2
361.914	1	-1
362.256	1	13
362.598	1	8
362.940	1	-1
363.282	1	8
363.624	1	3
363.966	1	2
364.308	1	9
364.649	1	15
364.991	1	10
365.333	1	5
365.675	1	-7
366.017	1	3
366.359	1	13
366.701	1	3
367.042	1	7
367.384	1	9
367.726	1	15
368.068	1	12
368.410	1	1
368.752	1	-5
369.093	1	2
369.435	1	4
369.777	1	1
370.119	1	12
370.461	1	11
370.803	1	1
371.144	1	16
371.486	1	11
371.828	1	18
372.170	1	12
372.512	1	7
372.853	1	5
373.195	1	-1
373.537	1	1
373.879	1	14
374.220	1	-3
374.562	1	2
374.904	1	7
375.246	1	-3
375.588	1	7
375.929	1	17
376.271	1	-3
376.613	1	9
376.955	1	1
377.296	1	11
377.638	1	7
377.980	1	13
378.321	1	5
378.663	1	-4
379.005	1	7
379.347	1	6
379.688	1	-6
380.030	1	1
380.372	1	-1
380.714	1	9
381.055	1	-2
381.397	1	2
381.739	1	10
382.080	1	-14
382.422	1	13
382.764	1	3
383.105	1	9
383.447	1	17
383.789	1	6
384.130	1	4
384.472	1	-2
384.814	1	12
385.156	1	10
385.497	1	16
385.839	1	1
386.180	1	7
386.522	1	16
386.864	1	8
387.205	1	6
387.547	1	2
387.889	1	19
388.230	1	9
388.572	1	10
388.914	1	11
389.255	1	17
389.597	1	4
389.939	1	5
390.280	1	13
390.622	1	1
390.963	1	10
391.305	1	24
391.647	1	2
391.988	1	10
392.330	1	3
392.671	1	16
393.013	1	9
393.355	1	17
393.696	1	3
394.038	1	1
394.379	1	9
394.721	1	15
395.062	1	3
395.404	1	5
395.746	1	3
396.087	1	3
396.429	1	9
396.770	1	19
397.112	1	4
397.453	1	12
397.795	1	13
398.136	1	16
398.478	1	-1
398.819	1	20
399.161	1	12
399.503	1	10
399.844	1	13
400.186	1	23
400.527	1	13
400.869	1	18
401.210	1	2
401.552	1	20
401.893	1	12
402.235	1	22
402.576	1	16
402.918	1	-1
403.259	1	0
403.601	1	4
403.942	1	9
404.284	1	4
404.625	1	9
404.967	1	12
405.308	1	10
405.649	1	7
405.991	1	21
406.332	1	-2
406.674	1	15
407.015	1	-1
407.357	1	6
407.698	1	5
408.040	1	-6
408.381	1	3
408.722	1	10
409.064	1	6
409.405	1	14
409.747	1	9
410.088	1	15
410.430	1	16
410.771	1	3
411.112	1	7
411.454	1	9
411.795	1	8
412.137	1	-1
412.478	1	11
412.819	1	7
413.161	1	4
413.502	1	0
413.844	1	10
414.185	1	7
414.526	1	14
414.868	1	12
415.209	1	3
415.550	1	-13
415.892	1	3
416.233	1	12
416.575	1	8
416.916	1	14
417.257	1	13
417.599	1	13
417.940	1	0
418.281	1	2
418.623	1	-1
418.964	1	12
419.305	1	0
419.647	1	13
419.988	1	-7
420.329	1	12
420.671	1	-2
421.012	1	15
421.353	1	4
421.695	1	3
422.036	1	-2
422.377	1	2
422.718	1	0
423.060	1	9
423.401	1	2
423.742	1	3
424.084	1	4
424.425	1	7
424.766	1	10
425.107	1	3
425.449	1	9
425.790	1	-2
426.131	1	6
426.472	1	-11
426.814	1	17
427.155	1	8
427.496	1	9
427.837	1	1
428.179	1	-10
428.520	1	5
428.861	1	4
429.202	1	9
429.544	1	0
429.885	1	-4
430.226	1	11
430.567	1	14
430.909	1	-1
431.250	1	-8
431.591	1	-2
431.932	1	6
432.273	1	7
432.615	1	10
432.956	1	3
433.297	1	16
433.638	1	6
433.979	1	2
434.320	1	2
434.662	1	-3
435.003	1	7
435.344	1	0
435.685	1	8
436.026	1	6
436.368	1	0
436.709	1	-5
437.050	1	4
437.391	1	14
437.732	1	5
438.073	1	14
438.414	1	6
438.756	1	5
439.097	1	12
439.438	1	6
439.779	1	1
440.120	1	2
440.461	1	-7
440.802	1	7
441.143	1	10
441.485	1	10
441.826	1	-10
442.167	1	0
442.508	1	0
442.849	1	15
443.190	1	-4
443.531	1	3
443.872	1	2
444.213	1	6
444.554	1	-10
444.895	1	-2
445.237	1	0
445.578	1	7
445.919	1	1
446.260	1	0
446.601	1	2
446.942	1	5
447.283	1	11
447.624	1	5
447.965	1	-5
448.306	1	5
448.647	1	16
448.988	1	-3
449.329	1	3
449.670	1	3
450.011	1	8
450.352	1	0
450.693	1	9
451.034	1	0
451.375	1	14
451.716	1	6
452.057	1	17
452.398	1	11
452.739	1	9
453.080	1	12
453.421	1	0
453.762	1	8
454.103	1	0
454.444	1	5
454.785	1	8
455.126	1	3
455.467	1	4
455.808	1	9
456.149	1	1
456.490	1	-3
456.831	1	13
457.172	1	1
457.513	1	7
457.854	1	-3
458.195	1	-7
458.536	1	0
458.877	1	5
459.218	1	7
459.559	1	-1
459.899	1	9
460.240	1	-3
460.581	1	12
460.922	1	-1
461.263	1	9
461.604	1	0
461.945	1	4
462.286	1	11
462.627	1	9
462.968	1	-2
463.309	1	-5
463.649	1	-3
463.990	1	8
464.331	1	8
464.672	1	2
465.013	1	-8
465.354	1	-1
465.695	1	12
466.036	1	4
466.376	1	-6
466.717	1	-12
467.058	1	17
467.399	1	-2
467.740	1	8
468.081	1	0
468.422	1	-4
468.762	1	-9
469.103	1	-10
469.444	1	-1
469.785	1	14
470.126	1	5
470.467	1	-7
470.807	1	6
471.148	1	0
471.489	1	1
471.830	1	14
472.171	1	5
472.511	1	12
472.852	1	-1
473.193	1	-8
473.534	1	-2
473.875	1	4
474.215	1	-2
474.556	1	-4
474.897	1	-4
475.238	1	5
475.578	1	4
475.919	1	-2
476.260	1	8
476.601	1	1
476.942	1	12
477.282	1	-14
477.623	1	5
477.964	1	7
478.305	1	6
478.645	1	-6
478.986	1	-3
479.327	1	-5
479.667	1	9
480.008	1	9
480.349	1	0
480.690	1	-8
481.030	1	4
481.371	1	2
481.712	1	7
482.053	1	17
482.393	1	-2
482.734	1	1
483.075	1	4
483.415	1	5
483.756	1	8
484.097	1	-8
484.437	1	-13
484.778	1	-2
485.119	1	8
485.459	1	7
485.800	1	-9
486.141	1	-2
486.481	1	0
486.822	1	6
487.163	1	8
487.503	1	-6
487.844	1	8
488.185	1	-9
488.525	1	8
488.866	1	6
489.207	1	6
489.547	1	-1
489.888	1	5
490.228	1	1
490.569	1	10
490.910	1	3
491.250	1	16
491.591	1	-1
491.932	1	0
492.272	1	10
492.613	1	12
492.953	1	6
493.294	1	7
493.635	1	-1
493.975	1	0
494.316	1	7
494.656	1	5
494.997	1	-1
495.337	1	-1
495.678	1	10
496.019	1	2
496.359	1	3
496.700	1	6
497.040	1	2
497.381	1	-18
497.721	1	4
498.062	1	3
498.403	1	6
498.743	1	9
499.084	1	-7
499.424	1	13
499.765	1	-1
500.105	1	11
500.446	1	11
500.786	1	8
501.127	1	7
501.467	1	8
501.808	1	-7
502.148	1	15
502.489	1	15
502.829	1	2
503.170	1	10
503.510	1	3
503.851	1	-8
504.191	1	5
504.532	1	3
504.872	1	-7
505.213	1	6
505.553	1	1
505.894	1	5
506.234	1	7
506.575	1	-5
506.915	1	3
507.256	1	5
507.596	1	19
507.936	1	10
508.277	1	2
508.617	1	15
508.958	1	12
509.298	1	16
509.639	1	9
509.979	1	5
510.319	1	-1
510.660	1	6
511.000	1	15
511.341	1	5
511.681	1	3
512.022	1	-1
512.362	1	3
512.702	1	0
513.043	1	3
513.383	1	1
513.724	1	13
514.064	1	10
514.404	1	9
514.745	1	3
515.085	1	5
515.425	1	-1
515.766	1	7
516.106	1	1
516.447	1	7
516.787	1	-1
517.127	1	11
517.468	1	4
517.808	1	6
518.148	1	3
518.489	1	8
518.829	1	-1
519.169	1	12
519.510	1	17
519.850	1	3
520.190	1	-5
520.531	1	7
520.871	1	2
521.211	1	15
521.552	1	9
521.892	1	3
522.232	1	3
522.573	1	11
522.913	1	9
523.253	1	3
523.593	1	-4
523.934	1	10
524.274	1	1
524.614	1	1
524.955	1	3
525.295	1	-2
525.635	1	8
525.975	1	-6
526.316	1	-3
526.656	1	16
526.996	1	15
527.337	1	4
527.677	1	18
528.017	1	6
528.357	1	8
528.698	1	1
529.038	1	10
529.378	1	11
529.718	1	13
530.058	1	5
530.399	1	9
530.739	1	9
531.079	1	18
531.419	1	20
531.760	1	6
532.100	1	12
532.440	1	1
532.780	1	-1
533.120	1	-3
533.461	1	18
533.801	1	5
534.141	1	11
534.481	1	-1
534.821	1	9
535.162	1	13
535.502	1	25
535.842	1	9
536.182	1	8
536.522	1	13
536.862	1	21
537.203	1	15
537.543	1	12
537.883	1	4
538.223	1	9
538.563	1	6
538.903	1	-1
539.243	1	2
539.584	1	12
539.924	1	8
540.264	1	4
540.604	1	10
540.944	1	3
541.284	1	0
541.624	1	7
541.964	1	5
542.305	1	4
542.645	1	1
542.985	1	1
543.325	1	4
543.665	1	15
544.005	1	-1
544.345	1	-2
544.685	1	6
545.025	1	-5
545.365	1	6
545.705	1	9
546.045	1	7
546.386	1	11
546.726	1	2
547.066	1	-4
547.406	1	21
547.746	1	10
548.086	1	4
548.426	1	2
548.766	1	15
549.106	1	10
549.446	1	7
549.786	1	5
550.126	1	-1
550.466	1	-3
550.806	1	16
551.146	1	2
551.486	1	-3
551.826	1	12
552.166	1	5
552.506	1	-2
552.846	1	5
553.186	1	7
553.526	1	-5
553.866	1	-2
554.206	1	2
554.546	1	-5
554.886	1	4
555.226	1	-4
555.566	1	5
555.906	1	4
556.246	1	7
556.586	1	9
556.926	1	13
557.266	1	11
557.606	1	-4
557.946	1	2
558.286	1	8
558.626	1	13
558.966	1	-3
559.306	1	-3
559.646	1	-2
559.986	1	-4
560.325	1	-17
560.665	1	2
561.005	1	5
561.345	1	2
561.685	1	-4
562.025	1	0
562.365	1	1
562.705	1	9
563.045	1	9
563.385	1	-3
563.725	1	7
564.064	1	12
564.404	1	6
564.744	1	7
565.084	1	-10
565.424	1	2
565.764	1	16
566.104	1	1
566.444	1	2
566.783	1	-3
567.123	1	12
567.463	1	8
567.803	1	-2
568.143	1	-4
568.483	1	-8
568.823	1	15
569.162	1	14
569.502	1	4
569.842	1	-1
570.182	1	-3
570.522	1	6
570.862	1	4
571.201	1	8
571.541	1	-10
571.881	1	2
572.221	1	6
572.561	1	4
572.900	1	15
573.240	1	-5
573.580	1	8
573.920	1	9
574.260	1	1
574.599	1	4
574.939	1	-3
575.279	1	10
575.619	1	2
575.959	1	-1
576.298	1	-7
576.638	1	3
576.978	1	8
577.318	1	10
577.657	1	-8
577.997	1	-6
578.337	1	-1
578.677	1	-2
579.016	1	12
579.356	1	-2
579.696	1	-1
580.036	1	2
580.375	1	6
580.715	1	9
581.055	1	6
581.394	1	-1
581.734	1	3
582.074	1	-1
582.414	1	0
582.753	1	-4
583.093	1	-3
583.433	1	2
583.772	1	7
584.112	1	5
584.452	1	3
584.791	1	5
585.131	1	-4
585.471	1	-2
585.811	1	-1
586.150	1	5
586.490	1	1
586.830	1	-3
587.169	1	8
587.509	1	2
587.849	1	10
588.188	1	-2
588.528	1	8
588.867	1	10
589.207	1	-10
589.547	1	-4
589.886	1	-1
590.226	1	9
590.566	1	4
590.905	1	7
591.245	1	2
591.585	1	1
591.924	1	0
592.264	1	-2
592.603	1	-4
592.943	1	12
593.283	1	9
593.622	1	-7
593.962	1	-5
594.301	1	5
594.641	1	-4
594.981	1	-9
595.320	1	10
595.660	1	-3
595.999	1	1
596.339	1	10
596.678	1	-4
597.018	1	7
597.358	1	5
597.697	1	-8
598.037	1	-4
598.376	1	9
598.716	1	-4
599.055	1	10
599.395	1	13
599.734	1	-1
600.074	1	3
600.413	1	-2
600.753	1	11
601.092	1	3
601.432	1	3
601.771	1	1
602.111	1	-9
602.451	1	1
602.790	1	4
603.130	1	7
603.469	1	-2
603.809	1	5
604.148	1	8
604.487	1	0
604.827	1	-11
605.166	1	0
605.506	1	-2
605.845	1	5
606.185	1	1
606.524	1	1
606.864	1	-1
607.203	1	4
607.543	1	-6
607.882	1	1
608.222	1	6
608.561	1	11
608.901	1	6
609.240	1	10
609.579	1	2
609.919	1	-6
610.258	1	16
610.598	1	2
610.937	1	-4
611.277	1	6
611.616	1	-17
611.955	1	15
612.295	1	9
612.634	1	1
612.974	1	8
613.313	1	6
613.652	1	-2
613.992	1	-1
614.331	1	5
614.671	1	0
615.010	1	4
615.349	1	8
615.689	1	4
616.028	1	0
616.368	1	-8
616.707	1	-4
617.046	1	2
617.386	1	10
617.725	1	9
618.064	1	4
618.404	1	6
618.743	1	6
619.082	1	6
619.422	1	5
619.761	1	0
620.100	1	2
620.440	1	1
620.779	1	0
621.118	1	7
621.458	1	9
621.797	1	-2
622.136	1	11
622.476	1	9
622.815	1	-2
623.154	1	8
623.494	1	-1
623.833	1	3
624.172	1	12
624.511	1	0
624.851	1	-8
625.190	1	3
625.529	1	10
625.869	1	-2
626.208	1	-6
626.547	1	7
626.886	1	-4
627.226	1	12
627.565	1	16
627.904	1	3
628.243	1	2
628.583	1	0
628.922	1	3
629.261	1	16
629.600	1	2
629.940	1	2
630.279	1	3
630.618	1	-4
630.957	1	-2
631.297	1	-1
631.636	1	1
631.975	1	7
632.314	1	17
632.653	1	-18
632.993	1	7
633.332	1	12
633.671	1	1
634.010	1	-4
634.349	1	-5
634.689	1	12
635.028	1	-1
635.367	1	-1
635.706	1	1
636.045	1	1
636.384	1	8
636.724	1	1
637.063	1	-4
637.402	1	9
637.741	1	3
638.080	1	3
638.419	1	2
638.759	1	5
639.098	1	-4
639.437	1	1
639.776	1	4
640.115	1	-4
640.454	1	20
640.793	1	1
641.132	1	9
641.472	1	-6
641.811	1	0
642.150	1	-3
642.489	1	-4
642.828	1	-1
643.167	1	13
643.506	1	-3
643.845	1	-2
644.184	1	12
644.524	1	-8
644.863	1	-1
645.202	1	4
645.541	1	-12
645.880	1	-3
646.219	1	-7
646.558	1	5
646.897	1	-1
647.236	1	5
647.575	1	5
647.914	1	3
648.253	1	-1
648.592	1	-1
648.931	1	2
649.270	1	13
649.610	1	11
649.949	1	-12
650.288	1	-5
650.627	1	-1
650.966	1	-4
651.305	1	5
651.644	1	-4
651.983	1	4
652.322	1	4
652.661	1	6
653.000	1	2
653.339	1	8
653.678	1	-8
654.017	1	-4
654.356	1	5
654.695	1	5
655.034	1	6
655.373	1	1
655.712	1	-6
656.051	1	8
656.390	1	3
656.729	1	3
657.068	1	-2
657.406	1	4
657.745	1	-3
658.084	1	11
658.423	1	-7
658.762	1	-5
659.101	1	-2
659.440	1	14
659.779	1	-1
660.118	1	18
660.457	1	-6
660.796	1	-6
661.135	1	9
661.474	1	-1
661.813	1	3
662.152	1	-2
662.491	1	11
662.829	1	1
663.168	1	5
663.507	1	-1
663.846	1	6
664.185	1	0
664.524	1	-6
664.863	1	5
665.202	1	-8
665.541	1	3
665.879	1	2
666.218	1	1
666.557	1	0
666.896	1	-1
667.235	1	-5
667.574	1	5
667.913	1	6
668.251	1	13
668.590	1	-3
668.929	1	7
669.268	1	3
669.607	1	-14
669.946	1	8
670.285	1	9
670.623	1	6
670.962	1	2
671.301	1	-5
671.640	1	-17
671.979	1	23
672.317	1	-1
672.656	1	11
672.995	1	-1
673.334	1	19
673.673	1	15
674.011	1	8
674.350	1	-1
674.689	1	-10
675.028	1	7
675.367	1	7
675.705	1	-6
676.044	1	-4
676.383	1	5
676.722	1	-5
677.060	1	5
677.399	1	-2
677.738	1	-6
678.077	1	8
678.416	1	2
678.754	1	-6
679.093	1	14
679.432	1	-6
679.771	1	3
680.109	1	16
680.448	1	9
680.787	1	-1
681.125	1	8
681.464	1	0
681.803	1	-11
682.142	1	7
682.480	1	3
682.819	1	-1
683.158	1	2
683.496	1	-3
683.835	1	-2
684.174	1	3
684.512	1	3
684.851	1	-6
685.190	1	2
685.529	1	0
685.867	1	5
686.206	1	11
686.545	1	3
686.883	1	-5
687.222	1	-6
687.561	1	-2
687.899	1	0
688.238	1	0
688.577	1	2
688.746	1	-2