File: Analysis/GaN_68K_200ms/GaN_sample E_spot4_UVVIS_68 K_200um_200 ms 2x2mm1_465.txt
340.368	1	-2
340.710	1	-4
341.052	1	-1
341.394	1	1
341.737	1	11
342.079	1	-1
342.421	1	-3
342.763	1	0
343.105	1	10
343.447	1	5
343.789	1	3
344.131	1	5
344.473	1	1
344.815	1	-1
345.157	1	8
345.499	1	3
345.841	1	3
346.183	1	3
346.526	1	6
346.868	1	3
347.210	1	-1
347.552	1	3
347.894	1	8
348.236	1	4
348.578	1	9
348.920	1	3
349.262	1	-3
349.604	1	14
349.946	1	5
350.288	1	9
350.630	1	3
350.972	1	-4
351.314	1	1
351.656	1	7
351.998	1	-6
352.340	1	-2
352.682	1	-5
353.024	1	-6
353.366	1	3
353.708	1	2
354.050	1	5
354.392	1	7
354.734	1	-2
355.076	1	3
355.418	1	-1
355.760	1	3
356.102	1	-10
356.444	1	1
356.785	1	20
357.127	1	-9
357.469	1	1
357.811	1	14
358.153	1	-1
358.495	1	0
358.837	1	1
359.179	1	6
359.521	1	2
359.863	1	-6
360.205	1	-7
360.547	1	-5
360.889	1	8
361.231	1	1
361.572	1	-5
361.914	1	4
362.256	1	9
362.598	1	0
362.940	1	0
363.282	1	10
363.624	1	3
363.966	1	7
364.308	1	5
364.649	1	-1
364.991	1	12
365.333	1	8
365.675	1	3
366.017	1	2
366.359	1	-4
366.701	1	1
367.042	1	4
367.384	1	5
367.726	1	12
368.068	1	1
368.410	1	5
368.752	1	4
369.093	1	-4
369.435	1	4
369.777	1	-12
370.119	1	-4
370.461	1	-2
370.803	1	3
371.144	1	13
371.486	1	14
371.828	1	0
372.170	1	10
372.512	1	0
372.853	1	3
373.195	1	1
373.537	1	1
373.879	1	9
374.220	1	-7
374.562	1	-5
374.904	1	4
375.246	1	2
375.588	1	7
375.929	1	4
376.271	1	-8
376.613	1	7
376.955	1	-12
377.296	1	10
377.638	1	-1
377.980	1	11
378.321	1	6
378.663	1	1
379.005	1	3
379.347	1	8
379.688	1	2
380.030	1	0
380.372	1	2
380.714	1	5
381.055	1	2
381.397	1	2
381.739	1	9
382.080	1	-6
382.422	1	14
382.764	1	2
383.105	1	0
383.447	1	7
383.789	1	1
384.130	1	-6
384.472	1	-3
384.814	1	6
385.156	1	14
385.497	1	12
385.839	1	3
386.180	1	12
386.522	1	9
386.864	1	-5
387.205	1	-6
387.547	1	-6
387.889	1	10
388.230	1	1
388.572	1	9
388.914	1	5
389.255	1	11
389.597	1	3
389.939	1	16
390.280	1	6
390.622	1	-2
390.963	1	9
391.305	1	4
391.647	1	9
391.988	1	-1
392.330	1	18
392.671	1	8
393.013	1	10
393.355	1	19
393.696	1	1
394.038	1	3
394.379	1	-4
394.721	1	14
395.062	1	-8
395.404	1	12
395.746	1	4
396.087	1	1
396.429	1	8
396.770	1	0
397.112	1	2
397.453	1	-4
397.795	1	7
398.136	1	6
398.478	1	2
398.819	1	11
399.161	1	6
399.503	1	10
399.844	1	1
400.186	1	9
400.527	1	7
400.869	1	9
401.210	1	6
401.552	1	21
401.893	1	4
402.235	1	16
402.576	1	13
402.918	1	-1
403.259	1	-3
403.601	1	5
403.942	1	6
404.284	1	3
404.625	1	5
404.967	1	6
405.308	1	8
405.649	1	3
405.991	1	9
406.332	1	0
406.674	1	4
407.015	1	-5
407.357	1	1
407.698	1	-1
408.040	1	-6
408.381	1	2
408.722	1	7
409.064	1	2
409.405	1	-1
409.747	1	-3
410.088	1	7
410.430	1	7
410.771	1	3
411.112	1	10
411.454	1	5
411.795	1	9
412.137	1	11
412.478	1	3
412.819	1	-6
413.161	1	5
413.502	1	3
413.844	1	-4
414.185	1	-4
414.526	1	3
414.868	1	14
415.209	1	-5
415.550	1	0
415.892	1	-2
416.233	1	-1
416.575	1	7
416.916	1	1
417.257	1	5
417.599	1	3
417.940	1	-3
418.281	1	5
418.623	1	8
418.964	1	-1
419.305	1	-4
419.647	1	2
419.988	1	2
420.329	1	10
420.671	1	5
421.012	1	-1
421.353	1	7
421.695	1	-1
422.036	1	-1
422.377	1	9
422.718	1	4
423.060	1	12
423.401	1	5
423.742	1	-7
424.084	1	1
424.425	1	0
424.766	1	3
425.107	1	3
425.449	1	3
425.790	1	0
426.131	1	0
426.472	1	-5
426.814	1	18
427.155	1	1
427.496	1	7
427.837	1	-2
428.179	1	-1
428.520	1	-9
428.861	1	5
429.202	1	9
429.544	1	0
429.885	1	-1
430.226	1	4
430.567	1	12
430.909	1	-12
431.250	1	-15
431.591	1	4
431.932	1	9
432.273	1	0
432.615	1	0
432.956	1	-11
433.297	1	8
433.638	1	1
433.979	1	-1
434.320	1	5
434.662	1	-1
435.003	1	3
435.344	1	1
435.685	1	7
436.026	1	4
436.368	1	-4
436.709	1	-12
437.050	1	6
437.391	1	-2
437.732	1	-4
438.073	1	7
438.414	1	0
438.756	1	2
439.097	1	3
439.438	1	13
439.779	1	-3
440.120	1	4
440.461	1	-10
440.802	1	4
441.143	1	10
441.485	1	-4
441.826	1	-8
442.167	1	-4
442.508	1	6
442.849	1	4
443.190	1	-8
443.531	1	0
443.872	1	-1
444.213	1	-1
444.554	1	1
444.895	1	0
445.237	1	-12
445.578	1	1
445.919	1	3
446.260	1	7
446.601	1	-6
446.942	1	6
447.283	1	-5
447.624	1	8
447.965	1	-13
448.306	1	4
448.647	1	11
448.988	1	-8
449.329	1	-3
449.670	1	3
450.011	1	-3
450.352	1	9
450.693	1	4
451.034	1	9
451.375	1	14
451.716	1	-2
452.057	1	3
452.398	1	8
452.739	1	5
453.080	1	6
453.421	1	3
453.762	1	11
454.103	1	2
454.444	1	11
454.785	1	-6
455.126	1	2
455.467	1	2
455.808	1	-2
456.149	1	2
456.490	1	3
456.831	1	12
457.172	1	5
457.513	1	9
457.854	1	-2
458.195	1	-1
458.536	1	-1
458.877	1	-9
459.218	1	5
459.559	1	3
459.899	1	5
460.240	1	-2
460.581	1	12
460.922	1	-2
461.263	1	3
461.604	1	-2
461.945	1	5
462.286	1	10
462.627	1	6
462.968	1	-8
463.309	1	-6
463.649	1	-1
463.990	1	10
464.331	1	2
464.672	1	4
465.013	1	-1
465.354	1	4
465.695	1	15
466.036	1	16
466.376	1	-6
466.717	1	0
467.058	1	6
467.399	1	4
467.740	1	-1
468.081	1	2
468.422	1	2
468.762	1	-1
469.103	1	-6
469.444	1	-6
469.785	1	6
470.126	1	5
470.467	1	4
470.807	1	-2
471.148	1	6
471.489	1	2
471.830	1	10
472.171	1	6
472.511	1	10
472.852	1	-5
473.193	1	-2
473.534	1	-8
473.875	1	2
474.215	1	-2
474.556	1	-7
474.897	1	-1
475.238	1	0
475.578	1	-1
475.919	1	2
476.260	1	1
476.601	1	-1
476.942	1	2
477.282	1	-10
477.623	1	0
477.964	1	2
478.305	1	1
478.645	1	-3
478.986	1	7
479.327	1	-8
479.667	1	-3
480.008	1	1
480.349	1	-8
480.690	1	6
481.030	1	3
481.371	1	-4
481.712	1	4
482.053	1	4
482.393	1	-4
482.734	1	2
483.075	1	-1
483.415	1	-1
483.756	1	2
484.097	1	-1
484.437	1	-22
484.778	1	-2
485.119	1	12
485.459	1	0
485.800	1	-3
486.141	1	-9
486.481	1	2
486.822	1	1
487.163	1	-1
487.503	1	-10
487.844	1	1
488.185	1	-7
488.525	1	5
488.866	1	4
489.207	1	9
489.547	1	-4
489.888	1	-5
490.228	1	-14
490.569	1	10
490.910	1	-5
491.250	1	1
491.591	1	-10
491.932	1	3
492.272	1	9
492.613	1	10
492.953	1	-1
493.294	1	9
493.635	1	-2
493.975	1	-6
494.316	1	4
494.656	1	0
494.997	1	-9
495.337	1	13
495.678	1	0
496.019	1	-4
496.359	1	1
496.700	1	1
497.040	1	3
497.381	1	-18
497.721	1	-4
498.062	1	-3
498.403	1	7
498.743	1	7
499.084	1	-3
499.424	1	9
499.765	1	1
500.105	1	10
500.446	1	17
500.786	1	4
501.127	1	13
501.467	1	3
501.808	1	-18
502.148	1	3
502.489	1	5
502.829	1	4
503.170	1	-1
503.510	1	2
503.851	1	-10
504.191	1	8
504.532	1	-8
504.872	1	-6
505.213	1	1
505.553	1	14
505.894	1	10
506.234	1	4
506.575	1	-2
506.915	1	3
507.256	1	-1
507.596	1	11
507.936	1	8
508.277	1	8
508.617	1	10
508.958	1	0
509.298	1	16
509.639	1	15
509.979	1	0
510.319	1	-1
510.660	1	8
511.000	1	4
511.341	1	4
511.681	1	6
512.022	1	2
512.362	1	-2
512.702	1	-2
513.043	1	4
513.383	1	6
513.724	1	9
514.064	1	1
514.404	1	3
514.745	1	-5
515.085	1	10
515.425	1	-6
515.766	1	4
516.106	1	-1
516.447	1	3
516.787	1	-8
517.127	1	-2
517.468	1	3
517.808	1	6
518.148	1	2
518.489	1	12
518.829	1	3
519.169	1	2
519.510	1	7
519.850	1	-6
520.190	1	-2
520.531	1	6
520.871	1	-6
521.211	1	-2
521.552	1	0
521.892	1	-14
522.232	1	-7
522.573	1	11
522.913	1	10
523.253	1	-1
523.593	1	-5
523.934	1	4
524.274	1	-7
524.614	1	2
524.955	1	1
525.295	1	-10
525.635	1	11
525.975	1	5
526.316	1	-3
526.656	1	17
526.996	1	11
527.337	1	-6
527.677	1	16
528.017	1	1
528.357	1	12
528.698	1	8
529.038	1	11
529.378	1	3
529.718	1	1
530.058	1	0
530.399	1	14
530.739	1	7
531.079	1	14
531.419	1	11
531.760	1	2
532.100	1	2
532.440	1	2
532.780	1	0
533.120	1	-3
533.461	1	19
533.801	1	1
534.141	1	15
534.481	1	4
534.821	1	6
535.162	1	9
535.502	1	12
535.842	1	9
536.182	1	8
536.522	1	15
536.862	1	5
537.203	1	14
537.543	1	8
537.883	1	6
538.223	1	14
538.563	1	-6
538.903	1	4
539.243	1	3
539.584	1	4
539.924	1	-1
540.264	1	5
540.604	1	16
540.944	1	-5
541.284	1	-4
541.624	1	6
541.964	1	2
542.305	1	-6
542.645	1	4
542.985	1	-9
543.325	1	-6
543.665	1	9
544.005	1	-4
544.345	1	-9
544.685	1	15
545.025	1	-4
545.365	1	8
545.705	1	4
546.045	1	8
546.386	1	-7
546.726	1	4
547.066	1	-8
547.406	1	15
547.746	1	16
548.086	1	13
548.426	1	-5
548.766	1	4
549.106	1	8
549.446	1	3
549.786	1	-2
550.126	1	-2
550.466	1	-1
550.806	1	11
551.146	1	-4
551.486	1	2
551.826	1	10
552.166	1	1
552.506	1	-2
552.846	1	4
553.186	1	6
553.526	1	-1
553.866	1	7
554.206	1	2
554.546	1	-11
554.886	1	5
555.226	1	-11
555.566	1	-3
555.906	1	1
556.246	1	4
556.586	1	9
556.926	1	15
557.266	1	7
557.606	1	-9
557.946	1	11
558.286	1	4
558.626	1	11
558.966	1	5
559.306	1	-3
559.646	1	-4
559.986	1	-6
560.325	1	1
560.665	1	9
561.005	1	5
561.345	1	-3
561.685	1	-3
562.025	1	-3
562.365	1	1
562.705	1	5
563.045	1	5
563.385	1	-7
563.725	1	1
564.064	1	12
564.404	1	4
564.744	1	0
565.084	1	0
565.424	1	1
565.764	1	9
566.104	1	-4
566.444	1	6
566.783	1	-5
567.123	1	15
567.463	1	9
567.803	1	6
568.143	1	-9
568.483	1	-7
568.823	1	7
569.162	1	22
569.502	1	1
569.842	1	2
570.182	1	-10
570.522	1	8
570.862	1	-4
571.201	1	25
571.541	1	1
571.881	1	4
572.221	1	2
572.561	1	-8
572.900	1	18
573.240	1	-2
573.580	1	4
573.920	1	-1
574.260	1	1
574.599	1	-1
574.939	1	-2
575.279	1	2
575.619	1	3
575.959	1	0
576.298	1	-2
576.638	1	-1
576.978	1	10
577.318	1	7
577.657	1	-13
577.997	1	-8
578.337	1	5
578.677	1	2
579.016	1	8
579.356	1	-7
579.696	1	5
580.036	1	6
580.375	1	4
580.715	1	12
581.055	1	-1
581.394	1	-13
581.734	1	14
582.074	1	6
582.414	1	-1
582.753	1	-4
583.093	1	-3
583.433	1	-2
583.772	1	3
584.112	1	3
584.452	1	-10
584.791	1	2
585.131	1	-1
585.471	1	1
585.811	1	3
586.150	1	-4
586.490	1	-11
586.830	1	-13
587.169	1	1
587.509	1	10
587.849	1	10
588.188	1	0
588.528	1	6
588.867	1	7
589.207	1	-7
589.547	1	-5
589.886	1	-7
590.226	1	5
590.566	1	2
590.905	1	15
591.245	1	1
591.585	1	-1
591.924	1	-2
592.264	1	-10
592.603	1	-3
592.943	1	-1
593.283	1	-4
593.622	1	-4
593.962	1	9
594.301	1	11
594.641	1	-7
594.981	1	-6
595.320	1	8
595.660	1	-9
595.999	1	7
596.339	1	7
596.678	1	4
597.018	1	1
597.358	1	0
597.697	1	-13
598.037	1	8
598.376	1	5
598.716	1	-7
599.055	1	5
599.395	1	4
599.734	1	4
600.074	1	5
600.413	1	2
600.753	1	-5
601.092	1	-7
601.432	1	0
601.771	1	10
602.111	1	-5
602.451	1	4
602.790	1	-5
603.130	1	1
603.469	1	-2
603.809	1	7
604.148	1	1
604.487	1	6
604.827	1	-5
605.166	1	0
605.506	1	10
605.845	1	2
606.185	1	-2
606.524	1	-1
606.864	1	-2
607.203	1	11
607.543	1	0
607.882	1	-8
608.222	1	0
608.561	1	12
608.901	1	2
609.240	1	4
609.579	1	2
609.919	1	-3
610.258	1	10
610.598	1	4
610.937	1	-5
611.277	1	-3
611.616	1	-3
611.955	1	6
612.295	1	7
612.634	1	2
612.974	1	5
613.313	1	0
613.652	1	0
613.992	1	4
614.331	1	8
614.671	1	4
615.010	1	4
615.349	1	1
615.689	1	9
616.028	1	0
616.368	1	-8
616.707	1	4
617.046	1	3
617.386	1	-3
617.725	1	15
618.064	1	3
618.404	1	0
618.743	1	4
619.082	1	8
619.422	1	-8
619.761	1	0
620.100	1	2
620.440	1	12
620.779	1	-8
621.118	1	-5
621.458	1	9
621.797	1	9
622.136	1	9
622.476	1	-1
622.815	1	6
623.154	1	-3
623.494	1	3
623.833	1	6
624.172	1	3
624.511	1	10
624.851	1	-7
625.190	1	11
625.529	1	8
625.869	1	13
626.208	1	-6
626.547	1	1
626.886	1	-6
627.226	1	2
627.565	1	7
627.904	1	2
628.243	1	-5
628.583	1	0
628.922	1	-3
629.261	1	1
629.600	1	8
629.940	1	-3
630.279	1	1
630.618	1	-6
630.957	1	-4
631.297	1	-1
631.636	1	0
631.975	1	4
632.314	1	11
632.653	1	-3
632.993	1	10
633.332	1	4
633.671	1	-4
634.010	1	-4
634.349	1	7
634.689	1	5
635.028	1	-1
635.367	1	-1
635.706	1	-3
636.045	1	-6
636.384	1	8
636.724	1	1
637.063	1	11
637.402	1	-2
637.741	1	11
638.080	1	-1
638.419	1	14
638.759	1	1
639.098	1	1
639.437	1	-2
639.776	1	-1
640.115	1	1
640.454	1	13
640.793	1	4
641.132	1	10
641.472	1	2
641.811	1	2
642.150	1	-1
642.489	1	-8
642.828	1	4
643.167	1	12
643.506	1	-7
643.845	1	1
644.184	1	8
644.524	1	-2
644.863	1	-3
645.202	1	0
645.541	1	-6
645.880	1	4
646.219	1	8
646.558	1	8
646.897	1	5
647.236	1	5
647.575	1	14
647.914	1	4
648.253	1	4
648.592	1	5
648.931	1	1
649.270	1	14
649.610	1	14
649.949	1	-9
650.288	1	-1
650.627	1	-6
650.966	1	-4
651.305	1	6
651.644	1	-6
651.983	1	9
652.322	1	8
652.661	1	7
653.000	1	2
653.339	1	11
653.678	1	0
654.017	1	-2
654.356	1	4
654.695	1	7
655.034	1	10
655.373	1	7
655.712	1	-2
656.051	1	17
656.390	1	3
656.729	1	9
657.068	1	3
657.406	1	3
657.745	1	-11
658.084	1	12
658.423	1	0
658.762	1	-12
659.101	1	3
659.440	1	10
659.779	1	0
660.118	1	5
660.457	1	0
660.796	1	-7
661.135	1	0
661.474	1	4
661.813	1	-1
662.152	1	3
662.491	1	-3
662.829	1	1
663.168	1	-4
663.507	1	2
663.846	1	7
664.185	1	3
664.524	1	0
664.863	1	-5
665.202	1	-9
665.541	1	-7
665.879	1	0
666.218	1	-5
666.557	1	14
666.896	1	1
667.235	1	0
667.574	1	2
667.913	1	1
668.251	1	-3
668.590	1	3
668.929	1	3
669.268	1	-1
669.607	1	-7
669.946	1	5
670.285	1	10
670.623	1	6
670.962	1	0
671.301	1	-5
671.640	1	-12
671.979	1	13
672.317	1	-3
672.656	1	2
672.995	1	9
673.334	1	3
673.673	1	7
674.011	1	7
674.350	1	-1
674.689	1	-2
675.028	1	4
675.367	1	8
675.705	1	-10
676.044	1	-8
676.383	1	-3
676.722	1	-5
677.060	1	-1
677.399	1	8
677.738	1	-7
678.077	1	2
678.416	1	5
678.754	1	-6
679.093	1	6
679.432	1	1
679.771	1	-7
680.109	1	13
680.448	1	10
680.787	1	3
681.125	1	0
681.464	1	-1
681.803	1	-10
682.142	1	18
682.480	1	-4
682.819	1	6
683.158	1	8
683.496	1	-14
683.835	1	15
684.174	1	1
684.512	1	0
684.851	1	-3
685.190	1	12
685.529	1	6
685.867	1	-4
686.206	1	0
686.545	1	-1
686.883	1	-7
687.222	1	-2
687.561	1	7
687.899	1	1
688.238	1	-8
688.577	1	-8
688.746	1	8