File: Analysis/GaN_68K_200ms/GaN_sample E_spot4_UVVIS_68 K_200um_200 ms 2x2mm1_265.txt
340.368	1	9
340.710	1	-9
341.052	1	6
341.394	1	1
341.737	1	7
342.079	1	-4
342.421	1	1
342.763	1	-1
343.105	1	6
343.447	1	1
343.789	1	12
344.131	1	4
344.473	1	4
344.815	1	5
345.157	1	-1
345.499	1	4
345.841	1	3
346.183	1	0
346.526	1	6
346.868	1	6
347.210	1	8
347.552	1	5
347.894	1	-4
348.236	1	9
348.578	1	13
348.920	1	9
349.262	1	6
349.604	1	14
349.946	1	9
350.288	1	7
350.630	1	-7
350.972	1	-2
351.314	1	-5
351.656	1	12
351.998	1	-4
352.340	1	1
352.682	1	-1
353.024	1	-4
353.366	1	8
353.708	1	6
354.050	1	10
354.392	1	9
354.734	1	5
355.076	1	4
355.418	1	-2
355.760	1	4
356.102	1	-7
356.444	1	11
356.785	1	17
357.127	1	14
357.469	1	4
357.811	1	16
358.153	1	6
358.495	1	15
358.837	1	2
359.179	1	7
359.521	1	-8
359.863	1	-13
360.205	1	-1
360.547	1	2
360.889	1	7
361.231	1	7
361.572	1	3
361.914	1	10
362.256	1	12
362.598	1	6
362.940	1	12
363.282	1	5
363.624	1	6
363.966	1	13
364.308	1	3
364.649	1	8
364.991	1	7
365.333	1	16
365.675	1	-1
366.017	1	14
366.359	1	5
366.701	1	3
367.042	1	19
367.384	1	14
367.726	1	13
368.068	1	7
368.410	1	9
368.752	1	7
369.093	1	8
369.435	1	0
369.777	1	4
370.119	1	9
370.461	1	8
370.803	1	-1
371.144	1	11
371.486	1	14
371.828	1	11
372.170	1	8
372.512	1	0
372.853	1	7
373.195	1	-3
373.537	1	3
373.879	1	13
374.220	1	12
374.562	1	2
374.904	1	12
375.246	1	-1
375.588	1	6
375.929	1	5
376.271	1	2
376.613	1	10
376.955	1	-4
377.296	1	9
377.638	1	7
377.980	1	5
378.321	1	9
378.663	1	2
379.005	1	19
379.347	1	0
379.688	1	1
380.030	1	2
380.372	1	7
380.714	1	14
381.055	1	8
381.397	1	9
381.739	1	15
382.080	1	-6
382.422	1	15
382.764	1	7
383.105	1	8
383.447	1	19
383.789	1	7
384.130	1	1
384.472	1	0
384.814	1	6
385.156	1	18
385.497	1	14
385.839	1	12
386.180	1	3
386.522	1	12
386.864	1	13
387.205	1	12
387.547	1	9
387.889	1	26
388.230	1	9
388.572	1	17
388.914	1	16
389.255	1	15
389.597	1	0
389.939	1	13
390.280	1	19
390.622	1	10
390.963	1	17
391.305	1	14
391.647	1	19
391.988	1	0
392.330	1	14
392.671	1	10
393.013	1	11
393.355	1	18
393.696	1	11
394.038	1	3
394.379	1	-4
394.721	1	14
395.062	1	4
395.404	1	14
395.746	1	7
396.087	1	3
396.429	1	11
396.770	1	11
397.112	1	5
397.453	1	-1
397.795	1	8
398.136	1	12
398.478	1	2
398.819	1	13
399.161	1	14
399.503	1	16
399.844	1	7
400.186	1	19
400.527	1	13
400.869	1	11
401.210	1	6
401.552	1	15
401.893	1	11
402.235	1	21
402.576	1	14
402.918	1	-1
403.259	1	1
403.601	1	4
403.942	1	17
404.284	1	6
404.625	1	13
404.967	1	7
405.308	1	0
405.649	1	5
405.991	1	20
406.332	1	0
406.674	1	6
407.015	1	2
407.357	1	12
407.698	1	-3
408.040	1	2
408.381	1	8
408.722	1	5
409.064	1	-1
409.405	1	3
409.747	1	4
410.088	1	6
410.430	1	9
410.771	1	7
411.112	1	3
411.454	1	19
411.795	1	14
412.137	1	6
412.478	1	14
412.819	1	2
413.161	1	3
413.502	1	-10
413.844	1	0
414.185	1	13
414.526	1	8
414.868	1	3
415.209	1	7
415.550	1	6
415.892	1	-1
416.233	1	7
416.575	1	11
416.916	1	6
417.257	1	11
417.599	1	14
417.940	1	7
418.281	1	16
418.623	1	9
418.964	1	2
419.305	1	2
419.647	1	12
419.988	1	4
420.329	1	10
420.671	1	14
421.012	1	16
421.353	1	16
421.695	1	8
422.036	1	7
422.377	1	5
422.718	1	-3
423.060	1	10
423.401	1	1
423.742	1	7
424.084	1	10
424.425	1	0
424.766	1	5
425.107	1	10
425.449	1	0
425.790	1	-2
426.131	1	8
426.472	1	8
426.814	1	16
427.155	1	9
427.496	1	14
427.837	1	-1
428.179	1	0
428.520	1	3
428.861	1	-2
429.202	1	12
429.544	1	7
429.885	1	3
430.226	1	5
430.567	1	14
430.909	1	5
431.250	1	-4
431.591	1	6
431.932	1	10
432.273	1	0
432.615	1	8
432.956	1	1
433.297	1	11
433.638	1	9
433.979	1	5
434.320	1	11
434.662	1	-2
435.003	1	14
435.344	1	12
435.685	1	11
436.026	1	0
436.368	1	2
436.709	1	-9
437.050	1	15
437.391	1	1
437.732	1	8
438.073	1	8
438.414	1	16
438.756	1	12
439.097	1	9
439.438	1	8
439.779	1	2
440.120	1	4
440.461	1	-3
440.802	1	7
441.143	1	9
441.485	1	0
441.826	1	1
442.167	1	-2
442.508	1	1
442.849	1	6
443.190	1	-5
443.531	1	1
443.872	1	2
444.213	1	2
444.554	1	2
444.895	1	-2
445.237	1	2
445.578	1	19
445.919	1	2
446.260	1	11
446.601	1	0
446.942	1	5
447.283	1	-1
447.624	1	7
447.965	1	-4
448.306	1	6
448.647	1	7
448.988	1	-3
449.329	1	1
449.670	1	7
450.011	1	2
450.352	1	15
450.693	1	6
451.034	1	3
451.375	1	14
451.716	1	5
452.057	1	9
452.398	1	3
452.739	1	2
453.080	1	18
453.421	1	7
453.762	1	9
454.103	1	7
454.444	1	6
454.785	1	-1
455.126	1	-2
455.467	1	3
455.808	1	3
456.149	1	7
456.490	1	6
456.831	1	10
457.172	1	3
457.513	1	5
457.854	1	13
458.195	1	1
458.536	1	10
458.877	1	9
459.218	1	8
459.559	1	9
459.899	1	7
460.240	1	4
460.581	1	7
460.922	1	8
461.263	1	3
461.604	1	2
461.945	1	5
462.286	1	12
462.627	1	5
462.968	1	-1
463.309	1	-4
463.649	1	4
463.990	1	6
464.331	1	9
464.672	1	5
465.013	1	-11
465.354	1	11
465.695	1	21
466.036	1	12
466.376	1	7
466.717	1	-2
467.058	1	15
467.399	1	13
467.740	1	4
468.081	1	8
468.422	1	-1
468.762	1	-1
469.103	1	-1
469.444	1	3
469.785	1	14
470.126	1	0
470.467	1	3
470.807	1	11
471.148	1	4
471.489	1	1
471.830	1	6
472.171	1	-1
472.511	1	9
472.852	1	-1
473.193	1	-1
473.534	1	5
473.875	1	3
474.215	1	2
474.556	1	-2
474.897	1	9
475.238	1	-7
475.578	1	1
475.919	1	1
476.260	1	-1
476.601	1	-1
476.942	1	2
477.282	1	2
477.623	1	7
477.964	1	-3
478.305	1	11
478.645	1	-2
478.986	1	10
479.327	1	-8
479.667	1	2
480.008	1	6
480.349	1	6
480.690	1	0
481.030	1	9
481.371	1	5
481.712	1	3
482.053	1	11
482.393	1	-6
482.734	1	7
483.075	1	3
483.415	1	7
483.756	1	13
484.097	1	-1
484.437	1	3
484.778	1	7
485.119	1	9
485.459	1	2
485.800	1	-3
486.141	1	-5
486.481	1	9
486.822	1	10
487.163	1	-11
487.503	1	-5
487.844	1	2
488.185	1	-8
488.525	1	5
488.866	1	8
489.207	1	3
489.547	1	17
489.888	1	5
490.228	1	-6
490.569	1	5
490.910	1	-7
491.250	1	3
491.591	1	-12
491.932	1	10
492.272	1	14
492.613	1	4
492.953	1	9
493.294	1	8
493.635	1	5
493.975	1	8
494.316	1	13
494.656	1	9
494.997	1	4
495.337	1	4
495.678	1	17
496.019	1	0
496.359	1	3
496.700	1	3
497.040	1	-2
497.381	1	-10
497.721	1	5
498.062	1	-1
498.403	1	6
498.743	1	-1
499.084	1	-11
499.424	1	13
499.765	1	4
500.105	1	5
500.446	1	13
500.786	1	8
501.127	1	16
501.467	1	2
501.808	1	-7
502.148	1	7
502.489	1	0
502.829	1	2
503.170	1	4
503.510	1	-7
503.851	1	-13
504.191	1	8
504.532	1	0
504.872	1	13
505.213	1	4
505.553	1	8
505.894	1	13
506.234	1	12
506.575	1	6
506.915	1	5
507.256	1	-6
507.596	1	12
507.936	1	4
508.277	1	0
508.617	1	12
508.958	1	15
509.298	1	21
509.639	1	19
509.979	1	3
510.319	1	4
510.660	1	3
511.000	1	9
511.341	1	3
511.681	1	4
512.022	1	7
512.362	1	7
512.702	1	-4
513.043	1	7
513.383	1	2
513.724	1	10
514.064	1	7
514.404	1	3
514.745	1	-1
515.085	1	2
515.425	1	4
515.766	1	5
516.106	1	7
516.447	1	13
516.787	1	0
517.127	1	10
517.468	1	5
517.808	1	-2
518.148	1	9
518.489	1	16
518.829	1	0
519.169	1	10
519.510	1	1
519.850	1	0
520.190	1	8
520.531	1	11
520.871	1	2
521.211	1	8
521.552	1	5
521.892	1	0
522.232	1	-1
522.573	1	8
522.913	1	10
523.253	1	7
523.593	1	0
523.934	1	7
524.274	1	-2
524.614	1	1
524.955	1	-1
525.295	1	1
525.635	1	17
525.975	1	-5
526.316	1	3
526.656	1	12
526.996	1	17
527.337	1	14
527.677	1	24
528.017	1	2
528.357	1	5
528.698	1	1
529.038	1	18
529.378	1	9
529.718	1	11
530.058	1	10
530.399	1	11
530.739	1	8
531.079	1	12
531.419	1	16
531.760	1	12
532.100	1	9
532.440	1	4
532.780	1	10
533.120	1	1
533.461	1	19
533.801	1	3
534.141	1	9
534.481	1	12
534.821	1	11
535.162	1	11
535.502	1	10
535.842	1	9
536.182	1	8
536.522	1	19
536.862	1	6
537.203	1	9
537.543	1	7
537.883	1	5
538.223	1	13
538.563	1	3
538.903	1	3
539.243	1	4
539.584	1	11
539.924	1	6
540.264	1	6
540.604	1	20
540.944	1	3
541.284	1	8
541.624	1	2
541.964	1	6
542.305	1	-9
542.645	1	9
542.985	1	-2
543.325	1	2
543.665	1	8
544.005	1	7
544.345	1	5
544.685	1	9
545.025	1	4
545.365	1	9
545.705	1	9
546.045	1	16
546.386	1	7
546.726	1	9
547.066	1	2
547.406	1	13
547.746	1	7
548.086	1	7
548.426	1	6
548.766	1	7
549.106	1	18
549.446	1	9
549.786	1	5
550.126	1	-4
550.466	1	4
550.806	1	7
551.146	1	-3
551.486	1	6
551.826	1	12
552.166	1	4
552.506	1	-2
552.846	1	12
553.186	1	4
553.526	1	4
553.866	1	10
554.206	1	2
554.546	1	4
554.886	1	9
555.226	1	5
555.566	1	1
555.906	1	16
556.246	1	7
556.586	1	14
556.926	1	2
557.266	1	14
557.606	1	2
557.946	1	16
558.286	1	10
558.626	1	12
558.966	1	5
559.306	1	-10
559.646	1	-2
559.986	1	7
560.325	1	3
560.665	1	7
561.005	1	3
561.345	1	16
561.685	1	-2
562.025	1	-4
562.365	1	8
562.705	1	3
563.045	1	9
563.385	1	3
563.725	1	4
564.064	1	9
564.404	1	-5
564.744	1	6
565.084	1	2
565.424	1	3
565.764	1	21
566.104	1	1
566.444	1	14
566.783	1	10
567.123	1	20
567.463	1	7
567.803	1	5
568.143	1	-2
568.483	1	-5
568.823	1	12
569.162	1	7
569.502	1	0
569.842	1	11
570.182	1	-4
570.522	1	9
570.862	1	3
571.201	1	12
571.541	1	-12
571.881	1	9
572.221	1	10
572.561	1	-2
572.900	1	8
573.240	1	-5
573.580	1	7
573.920	1	2
574.260	1	8
574.599	1	2
574.939	1	-1
575.279	1	16
575.619	1	11
575.959	1	-2
576.298	1	-4
576.638	1	15
576.978	1	-4
577.318	1	15
577.657	1	-14
577.997	1	0
578.337	1	-1
578.677	1	6
579.016	1	14
579.356	1	3
579.696	1	7
580.036	1	3
580.375	1	5
580.715	1	10
581.055	1	8
581.394	1	0
581.734	1	8
582.074	1	7
582.414	1	4
582.753	1	15
583.093	1	-1
583.433	1	-3
583.772	1	-1
584.112	1	12
584.452	1	4
584.791	1	11
585.131	1	-1
585.471	1	3
585.811	1	2
586.150	1	4
586.490	1	-4
586.830	1	-7
587.169	1	7
587.509	1	4
587.849	1	10
588.188	1	-1
588.528	1	8
588.867	1	8
589.207	1	-5
589.547	1	0
589.886	1	-1
590.226	1	5
590.566	1	-5
590.905	1	9
591.245	1	2
591.585	1	-13
591.924	1	-4
592.264	1	-3
592.603	1	0
592.943	1	-3
593.283	1	16
593.622	1	-3
593.962	1	6
594.301	1	12
594.641	1	2
594.981	1	3
595.320	1	5
595.660	1	2
595.999	1	7
596.339	1	8
596.678	1	-2
597.018	1	7
597.358	1	3
597.697	1	0
598.037	1	2
598.376	1	10
598.716	1	-1
599.055	1	3
599.395	1	5
599.734	1	0
600.074	1	4
600.413	1	10
600.753	1	3
601.092	1	-7
601.432	1	-2
601.771	1	8
602.111	1	-2
602.451	1	2
602.790	1	3
603.130	1	0
603.469	1	1
603.809	1	10
604.148	1	6
604.487	1	5
604.827	1	-12
605.166	1	0
605.506	1	3
605.845	1	3
606.185	1	1
606.524	1	2
606.864	1	-4
607.203	1	16
607.543	1	-4
607.882	1	-9
608.222	1	3
608.561	1	11
608.901	1	7
609.240	1	1
609.579	1	7
609.919	1	-2
610.258	1	16
610.598	1	4
610.937	1	-4
611.277	1	5
611.616	1	-6
611.955	1	10
612.295	1	3
612.634	1	-6
612.974	1	15
613.313	1	1
613.652	1	-2
613.992	1	13
614.331	1	4
614.671	1	-1
615.010	1	11
615.349	1	3
615.689	1	2
616.028	1	-2
616.368	1	1
616.707	1	-7
617.046	1	7
617.386	1	2
617.725	1	6
618.064	1	2
618.404	1	18
618.743	1	10
619.082	1	3
619.422	1	0
619.761	1	4
620.100	1	6
620.440	1	4
620.779	1	4
621.118	1	-5
621.458	1	8
621.797	1	8
622.136	1	5
622.476	1	-1
622.815	1	-1
623.154	1	7
623.494	1	2
623.833	1	-3
624.172	1	16
624.511	1	-11
624.851	1	-9
625.190	1	10
625.529	1	8
625.869	1	4
626.208	1	4
626.547	1	1
626.886	1	-4
627.226	1	0
627.565	1	8
627.904	1	9
628.243	1	-3
628.583	1	6
628.922	1	-2
629.261	1	9
629.600	1	10
629.940	1	2
630.279	1	3
630.618	1	-3
630.957	1	-4
631.297	1	-1
631.636	1	4
631.975	1	4
632.314	1	16
632.653	1	-1
632.993	1	6
633.332	1	14
633.671	1	8
634.010	1	8
634.349	1	4
634.689	1	13
635.028	1	7
635.367	1	-3
635.706	1	-5
636.045	1	4
636.384	1	6
636.724	1	10
637.063	1	9
637.402	1	10
637.741	1	10
638.080	1	1
638.419	1	9
638.759	1	1
639.098	1	1
639.437	1	-5
639.776	1	-9
640.115	1	-3
640.454	1	8
640.793	1	9
641.132	1	7
641.472	1	-7
641.811	1	8
642.150	1	4
642.489	1	4
642.828	1	5
643.167	1	11
643.506	1	0
643.845	1	9
644.184	1	10
644.524	1	1
644.863	1	2
645.202	1	0
645.541	1	-5
645.880	1	4
646.219	1	6
646.558	1	9
646.897	1	6
647.236	1	0
647.575	1	1
647.914	1	-3
648.253	1	13
648.592	1	7
648.931	1	12
649.270	1	18
649.610	1	10
649.949	1	4
650.288	1	-2
650.627	1	0
650.966	1	-2
651.305	1	0
651.644	1	0
651.983	1	-2
652.322	1	13
652.661	1	9
653.000	1	3
653.339	1	12
653.678	1	7
654.017	1	8
654.356	1	15
654.695	1	2
655.034	1	-1
655.373	1	0
655.712	1	-1
656.051	1	19
656.390	1	4
656.729	1	7
657.068	1	-1
657.406	1	9
657.745	1	-5
658.084	1	4
658.423	1	-5
658.762	1	-2
659.101	1	-7
659.440	1	12
659.779	1	-3
660.118	1	13
660.457	1	-7
660.796	1	-4
661.135	1	3
661.474	1	11
661.813	1	5
662.152	1	-7
662.491	1	3
662.829	1	-4
663.168	1	0
663.507	1	2
663.846	1	3
664.185	1	-3
664.524	1	-2
664.863	1	6
665.202	1	6
665.541	1	2
665.879	1	6
666.218	1	-5
666.557	1	-2
666.896	1	4
667.235	1	3
667.574	1	6
667.913	1	2
668.251	1	9
668.590	1	2
668.929	1	10
669.268	1	0
669.607	1	0
669.946	1	12
670.285	1	10
670.623	1	8
670.962	1	7
671.301	1	0
671.640	1	-12
671.979	1	18
672.317	1	11
672.656	1	9
672.995	1	6
673.334	1	8
673.673	1	16
674.011	1	11
674.350	1	3
674.689	1	-2
675.028	1	6
675.367	1	2
675.705	1	-3
676.044	1	5
676.383	1	5
676.722	1	6
677.060	1	12
677.399	1	4
677.738	1	2
678.077	1	14
678.416	1	-2
678.754	1	2
679.093	1	0
679.432	1	-2
679.771	1	11
680.109	1	1
680.448	1	1
680.787	1	10
681.125	1	17
681.464	1	-2
681.803	1	-9
682.142	1	8
682.480	1	-3
682.819	1	1
683.158	1	4
683.496	1	-3
683.835	1	6
684.174	1	4
684.512	1	10
684.851	1	-1
685.190	1	7
685.529	1	2
685.867	1	-1
686.206	1	14
686.545	1	4
686.883	1	-2
687.222	1	1
687.561	1	9
687.899	1	-1
688.238	1	3
688.577	1	-7
688.746	1	4