File: Analysis/GaN_68K_200ms/GaN_sample E_spot4_UVVIS_68 K_200um_200 ms 2x2mm1_431.txt
340.368	1	-1
340.710	1	-6
341.052	1	0
341.394	1	1
341.737	1	11
342.079	1	-1
342.421	1	-12
342.763	1	7
343.105	1	5
343.447	1	10
343.789	1	-3
344.131	1	-2
344.473	1	-2
344.815	1	8
345.157	1	6
345.499	1	8
345.841	1	4
346.183	1	-3
346.526	1	7
346.868	1	-8
347.210	1	4
347.552	1	4
347.894	1	7
348.236	1	7
348.578	1	-5
348.920	1	11
349.262	1	-5
349.604	1	11
349.946	1	14
350.288	1	1
350.630	1	-4
350.972	1	9
351.314	1	0
351.656	1	1
351.998	1	-4
352.340	1	0
352.682	1	0
353.024	1	-6
353.366	1	10
353.708	1	6
354.050	1	-1
354.392	1	13
354.734	1	-2
355.076	1	3
355.418	1	-5
355.760	1	2
356.102	1	-6
356.444	1	2
356.785	1	13
357.127	1	3
357.469	1	-5
357.811	1	14
358.153	1	10
358.495	1	13
358.837	1	7
359.179	1	4
359.521	1	-4
359.863	1	-8
360.205	1	-2
360.547	1	5
360.889	1	1
361.231	1	1
361.572	1	-7
361.914	1	3
362.256	1	13
362.598	1	-3
362.940	1	14
363.282	1	6
363.624	1	6
363.966	1	-1
364.308	1	0
364.649	1	0
364.991	1	3
365.333	1	6
365.675	1	0
366.017	1	8
366.359	1	0
366.701	1	-2
367.042	1	6
367.384	1	9
367.726	1	9
368.068	1	-9
368.410	1	-1
368.752	1	-4
369.093	1	9
369.435	1	3
369.777	1	0
370.119	1	9
370.461	1	3
370.803	1	-1
371.144	1	8
371.486	1	14
371.828	1	-5
372.170	1	7
372.512	1	-5
372.853	1	2
373.195	1	-5
373.537	1	-10
373.879	1	12
374.220	1	2
374.562	1	-2
374.904	1	2
375.246	1	0
375.588	1	3
375.929	1	4
376.271	1	-9
376.613	1	-4
376.955	1	-7
377.296	1	1
377.638	1	5
377.980	1	6
378.321	1	6
378.663	1	-2
379.005	1	18
379.347	1	5
379.688	1	-3
380.030	1	-1
380.372	1	3
380.714	1	7
381.055	1	2
381.397	1	3
381.739	1	11
382.080	1	-3
382.422	1	14
382.764	1	-3
383.105	1	11
383.447	1	12
383.789	1	12
384.130	1	-11
384.472	1	-8
384.814	1	5
385.156	1	9
385.497	1	9
385.839	1	9
386.180	1	-5
386.522	1	16
386.864	1	-9
387.205	1	-4
387.547	1	4
387.889	1	18
388.230	1	4
388.572	1	2
388.914	1	12
389.255	1	9
389.597	1	0
389.939	1	11
390.280	1	16
390.622	1	-3
390.963	1	6
391.305	1	7
391.647	1	12
391.988	1	-1
392.330	1	12
392.671	1	8
393.013	1	9
393.355	1	18
393.696	1	-4
394.038	1	-4
394.379	1	-4
394.721	1	5
395.062	1	-6
395.404	1	5
395.746	1	-9
396.087	1	1
396.429	1	18
396.770	1	4
397.112	1	4
397.453	1	-7
397.795	1	12
398.136	1	13
398.478	1	-5
398.819	1	6
399.161	1	9
399.503	1	10
399.844	1	4
400.186	1	9
400.527	1	4
400.869	1	6
401.210	1	7
401.552	1	7
401.893	1	4
402.235	1	15
402.576	1	11
402.918	1	-6
403.259	1	-4
403.601	1	-3
403.942	1	5
404.284	1	0
404.625	1	7
404.967	1	5
405.308	1	8
405.649	1	1
405.991	1	6
406.332	1	-4
406.674	1	12
407.015	1	-8
407.357	1	6
407.698	1	1
408.040	1	-2
408.381	1	2
408.722	1	2
409.064	1	1
409.405	1	5
409.747	1	-3
410.088	1	7
410.430	1	15
410.771	1	6
411.112	1	9
411.454	1	7
411.795	1	10
412.137	1	6
412.478	1	0
412.819	1	-6
413.161	1	2
413.502	1	6
413.844	1	5
414.185	1	5
414.526	1	7
414.868	1	8
415.209	1	-3
415.550	1	-5
415.892	1	-1
416.233	1	-3
416.575	1	-8
416.916	1	-1
417.257	1	11
417.599	1	1
417.940	1	0
418.281	1	1
418.623	1	1
418.964	1	7
419.305	1	1
419.647	1	17
419.988	1	-8
420.329	1	11
420.671	1	6
421.012	1	13
421.353	1	14
421.695	1	3
422.036	1	-1
422.377	1	4
422.718	1	1
423.060	1	2
423.401	1	6
423.742	1	1
424.084	1	8
424.425	1	4
424.766	1	6
425.107	1	3
425.449	1	6
425.790	1	-1
426.131	1	3
426.472	1	-7
426.814	1	6
427.155	1	-6
427.496	1	4
427.837	1	0
428.179	1	-7
428.520	1	-3
428.861	1	3
429.202	1	-1
429.544	1	5
429.885	1	1
430.226	1	-2
430.567	1	7
430.909	1	-16
431.250	1	-4
431.591	1	-2
431.932	1	6
432.273	1	9
432.615	1	9
432.956	1	6
433.297	1	12
433.638	1	-3
433.979	1	1
434.320	1	7
434.662	1	3
435.003	1	4
435.344	1	3
435.685	1	10
436.026	1	-3
436.368	1	-1
436.709	1	-5
437.050	1	1
437.391	1	-6
437.732	1	3
438.073	1	6
438.414	1	-6
438.756	1	3
439.097	1	15
439.438	1	3
439.779	1	-1
440.120	1	-5
440.461	1	-5
440.802	1	9
441.143	1	12
441.485	1	2
441.826	1	-10
442.167	1	-6
442.508	1	3
442.849	1	14
443.190	1	-4
443.531	1	-1
443.872	1	2
444.213	1	-7
444.554	1	-2
444.895	1	-5
445.237	1	-10
445.578	1	14
445.919	1	0
446.260	1	-3
446.601	1	-7
446.942	1	11
447.283	1	-2
447.624	1	15
447.965	1	-8
448.306	1	2
448.647	1	8
448.988	1	-11
449.329	1	11
449.670	1	9
450.011	1	2
450.352	1	-6
450.693	1	6
451.034	1	1
451.375	1	10
451.716	1	8
452.057	1	8
452.398	1	4
452.739	1	9
453.080	1	5
453.421	1	2
453.762	1	11
454.103	1	1
454.444	1	8
454.785	1	-4
455.126	1	-6
455.467	1	5
455.808	1	2
456.149	1	0
456.490	1	8
456.831	1	4
457.172	1	0
457.513	1	7
457.854	1	3
458.195	1	1
458.536	1	-6
458.877	1	-4
459.218	1	4
459.559	1	8
459.899	1	10
460.240	1	7
460.581	1	2
460.922	1	-4
461.263	1	6
461.604	1	-3
461.945	1	12
462.286	1	16
462.627	1	-7
462.968	1	-7
463.309	1	-7
463.649	1	4
463.990	1	0
464.331	1	3
464.672	1	3
465.013	1	-8
465.354	1	10
465.695	1	14
466.036	1	2
466.376	1	3
466.717	1	-4
467.058	1	19
467.399	1	-2
467.740	1	-4
468.081	1	-6
468.422	1	9
468.762	1	2
469.103	1	-2
469.444	1	-2
469.785	1	5
470.126	1	3
470.467	1	3
470.807	1	7
471.148	1	-7
471.489	1	11
471.830	1	15
472.171	1	6
472.511	1	7
472.852	1	-6
473.193	1	-4
473.534	1	6
473.875	1	6
474.215	1	-5
474.556	1	-7
474.897	1	5
475.238	1	1
475.578	1	-1
475.919	1	-1
476.260	1	4
476.601	1	-2
476.942	1	-5
477.282	1	-8
477.623	1	-2
477.964	1	-10
478.305	1	7
478.645	1	-4
478.986	1	3
479.327	1	-2
479.667	1	-3
480.008	1	9
480.349	1	-3
480.690	1	3
481.030	1	-3
481.371	1	9
481.712	1	7
482.053	1	12
482.393	1	-12
482.734	1	1
483.075	1	6
483.415	1	4
483.756	1	9
484.097	1	-10
484.437	1	-9
484.778	1	-1
485.119	1	5
485.459	1	17
485.800	1	-4
486.141	1	-6
486.481	1	5
486.822	1	8
487.163	1	-10
487.503	1	-11
487.844	1	-4
488.185	1	-17
488.525	1	0
488.866	1	7
489.207	1	5
489.547	1	-3
489.888	1	5
490.228	1	-11
490.569	1	14
490.910	1	-6
491.250	1	-7
491.591	1	1
491.932	1	7
492.272	1	5
492.613	1	8
492.953	1	14
493.294	1	8
493.635	1	-6
493.975	1	4
494.316	1	8
494.656	1	-1
494.997	1	-6
495.337	1	11
495.678	1	10
496.019	1	3
496.359	1	1
496.700	1	0
497.040	1	0
497.381	1	-14
497.721	1	-1
498.062	1	-8
498.403	1	1
498.743	1	4
499.084	1	-3
499.424	1	12
499.765	1	2
500.105	1	-1
500.446	1	10
500.786	1	9
501.127	1	18
501.467	1	3
501.808	1	-9
502.148	1	10
502.489	1	13
502.829	1	7
503.170	1	-6
503.510	1	5
503.851	1	-2
504.191	1	3
504.532	1	-9
504.872	1	-11
505.213	1	4
505.553	1	12
505.894	1	6
506.234	1	12
506.575	1	8
506.915	1	5
507.256	1	-7
507.596	1	1
507.936	1	13
508.277	1	-9
508.617	1	9
508.958	1	22
509.298	1	16
509.639	1	8
509.979	1	-1
510.319	1	-1
510.660	1	10
511.000	1	16
511.341	1	-8
511.681	1	-4
512.022	1	-7
512.362	1	4
512.702	1	1
513.043	1	15
513.383	1	-7
513.724	1	9
514.064	1	2
514.404	1	-5
514.745	1	4
515.085	1	-5
515.425	1	-5
515.766	1	5
516.106	1	1
516.447	1	7
516.787	1	-3
517.127	1	0
517.468	1	-3
517.808	1	-1
518.148	1	9
518.489	1	16
518.829	1	-14
519.169	1	9
519.510	1	-6
519.850	1	1
520.190	1	-2
520.531	1	7
520.871	1	-9
521.211	1	11
521.552	1	9
521.892	1	-10
522.232	1	-5
522.573	1	1
522.913	1	11
523.253	1	5
523.593	1	-12
523.934	1	10
524.274	1	-6
524.614	1	0
524.955	1	-4
525.295	1	-9
525.635	1	10
525.975	1	-1
526.316	1	0
526.656	1	16
526.996	1	17
527.337	1	1
527.677	1	12
528.017	1	-2
528.357	1	6
528.698	1	-5
529.038	1	12
529.378	1	11
529.718	1	6
530.058	1	2
530.399	1	14
530.739	1	-1
531.079	1	10
531.419	1	9
531.760	1	10
532.100	1	10
532.440	1	-4
532.780	1	3
533.120	1	5
533.461	1	14
533.801	1	7
534.141	1	11
534.481	1	-2
534.821	1	9
535.162	1	8
535.502	1	12
535.842	1	6
536.182	1	0
536.522	1	7
536.862	1	8
537.203	1	8
537.543	1	0
537.883	1	7
538.223	1	3
538.563	1	4
538.903	1	3
539.243	1	-4
539.584	1	-2
539.924	1	5
540.264	1	5
540.604	1	11
540.944	1	0
541.284	1	-7
541.624	1	6
541.964	1	6
542.305	1	-6
542.645	1	4
542.985	1	-2
543.325	1	2
543.665	1	6
544.005	1	3
544.345	1	-2
544.685	1	12
545.025	1	-7
545.365	1	6
545.705	1	5
546.045	1	12
546.386	1	6
546.726	1	7
547.066	1	-5
547.406	1	1
547.746	1	10
548.086	1	4
548.426	1	3
548.766	1	15
549.106	1	12
549.446	1	2
549.786	1	2
550.126	1	-2
550.466	1	0
550.806	1	16
551.146	1	2
551.486	1	7
551.826	1	3
552.166	1	-4
552.506	1	3
552.846	1	11
553.186	1	4
553.526	1	2
553.866	1	2
554.206	1	-1
554.546	1	-7
554.886	1	2
555.226	1	-2
555.566	1	16
555.906	1	4
556.246	1	-5
556.586	1	13
556.926	1	5
557.266	1	0
557.606	1	-9
557.946	1	9
558.286	1	10
558.626	1	11
558.966	1	-11
559.306	1	-2
559.646	1	1
559.986	1	-9
560.325	1	-4
560.665	1	7
561.005	1	6
561.345	1	-2
561.685	1	-9
562.025	1	0
562.365	1	3
562.705	1	9
563.045	1	-7
563.385	1	0
563.725	1	-3
564.064	1	11
564.404	1	2
564.744	1	5
565.084	1	-9
565.424	1	1
565.764	1	17
566.104	1	-5
566.444	1	3
566.783	1	-1
567.123	1	22
567.463	1	5
567.803	1	-4
568.143	1	1
568.483	1	-6
568.823	1	16
569.162	1	8
569.502	1	6
569.842	1	-5
570.182	1	-5
570.522	1	9
570.862	1	2
571.201	1	9
571.541	1	1
571.881	1	10
572.221	1	-2
572.561	1	0
572.900	1	13
573.240	1	-1
573.580	1	2
573.920	1	5
574.260	1	2
574.599	1	0
574.939	1	5
575.279	1	4
575.619	1	4
575.959	1	-11
576.298	1	-13
576.638	1	10
576.978	1	7
577.318	1	9
577.657	1	-15
577.997	1	5
578.337	1	0
578.677	1	-4
579.016	1	8
579.356	1	-8
579.696	1	2
580.036	1	-5
580.375	1	3
580.715	1	7
581.055	1	10
581.394	1	2
581.734	1	12
582.074	1	0
582.414	1	0
582.753	1	8
583.093	1	-9
583.433	1	1
583.772	1	5
584.112	1	7
584.452	1	2
584.791	1	-7
585.131	1	-3
585.471	1	-2
585.811	1	4
586.150	1	-3
586.490	1	-4
586.830	1	-2
587.169	1	-5
587.509	1	1
587.849	1	10
588.188	1	4
588.528	1	6
588.867	1	1
589.207	1	-5
589.547	1	4
589.886	1	-5
590.226	1	2
590.566	1	4
590.905	1	5
591.245	1	2
591.585	1	0
591.924	1	0
592.264	1	-4
592.603	1	-3
592.943	1	-2
593.283	1	10
593.622	1	-3
593.962	1	4
594.301	1	16
594.641	1	2
594.981	1	-2
595.320	1	7
595.660	1	-5
595.999	1	12
596.339	1	5
596.678	1	-4
597.018	1	4
597.358	1	2
597.697	1	0
598.037	1	1
598.376	1	8
598.716	1	-10
599.055	1	3
599.395	1	15
599.734	1	0
600.074	1	-8
600.413	1	-5
600.753	1	-3
601.092	1	-10
601.432	1	-6
601.771	1	10
602.111	1	1
602.451	1	8
602.790	1	1
603.130	1	4
603.469	1	0
603.809	1	10
604.148	1	-3
604.487	1	3
604.827	1	-9
605.166	1	-1
605.506	1	8
605.845	1	4
606.185	1	-8
606.524	1	-7
606.864	1	0
607.203	1	14
607.543	1	-7
607.882	1	-9
608.222	1	-8
608.561	1	7
608.901	1	-1
609.240	1	5
609.579	1	-1
609.919	1	-2
610.258	1	5
610.598	1	-3
610.937	1	0
611.277	1	3
611.616	1	-5
611.955	1	9
612.295	1	-6
612.634	1	0
612.974	1	9
613.313	1	0
613.652	1	-8
613.992	1	2
614.331	1	6
614.671	1	7
615.010	1	1
615.349	1	7
615.689	1	-2
616.028	1	-1
616.368	1	-4
616.707	1	-3
617.046	1	8
617.386	1	3
617.725	1	1
618.064	1	8
618.404	1	9
618.743	1	-2
619.082	1	8
619.422	1	4
619.761	1	-2
620.100	1	5
620.440	1	-1
620.779	1	2
621.118	1	-4
621.458	1	5
621.797	1	-4
622.136	1	3
622.476	1	6
622.815	1	-8
623.154	1	10
623.494	1	8
623.833	1	0
624.172	1	8
624.511	1	1
624.851	1	-11
625.190	1	-2
625.529	1	5
625.869	1	10
626.208	1	-2
626.547	1	4
626.886	1	-7
627.226	1	-5
627.565	1	8
627.904	1	9
628.243	1	-2
628.583	1	4
628.922	1	-4
629.261	1	8
629.600	1	11
629.940	1	-2
630.279	1	3
630.618	1	-4
630.957	1	-7
631.297	1	-5
631.636	1	-1
631.975	1	13
632.314	1	20
632.653	1	-3
632.993	1	3
633.332	1	7
633.671	1	6
634.010	1	0
634.349	1	11
634.689	1	15
635.028	1	-1
635.367	1	-9
635.706	1	-10
636.045	1	13
636.384	1	7
636.724	1	5
637.063	1	11
637.402	1	14
637.741	1	-1
638.080	1	9
638.419	1	9
638.759	1	-1
639.098	1	-6
639.437	1	-7
639.776	1	1
640.115	1	-8
640.454	1	7
640.793	1	14
641.132	1	10
641.472	1	-1
641.811	1	1
642.150	1	6
642.489	1	-8
642.828	1	-3
643.167	1	7
643.506	1	-7
643.845	1	0
644.184	1	6
644.524	1	-3
644.863	1	-1
645.202	1	-2
645.541	1	-4
645.880	1	0
646.219	1	0
646.558	1	5
646.897	1	-2
647.236	1	1
647.575	1	7
647.914	1	-5
648.253	1	6
648.592	1	-7
648.931	1	8
649.270	1	8
649.610	1	19
649.949	1	3
650.288	1	-3
650.627	1	1
650.966	1	1
651.305	1	-6
651.644	1	1
651.983	1	1
652.322	1	7
652.661	1	4
653.000	1	2
653.339	1	5
653.678	1	3
654.017	1	-4
654.356	1	9
654.695	1	5
655.034	1	10
655.373	1	-5
655.712	1	-3
656.051	1	8
656.390	1	-8
656.729	1	-2
657.068	1	5
657.406	1	5
657.745	1	-13
658.084	1	9
658.423	1	6
658.762	1	-8
659.101	1	8
659.440	1	5
659.779	1	2
660.118	1	4
660.457	1	-3
660.796	1	-1
661.135	1	1
661.474	1	-4
661.813	1	4
662.152	1	1
662.491	1	3
662.829	1	2
663.168	1	-4
663.507	1	2
663.846	1	5
664.185	1	-4
664.524	1	1
664.863	1	4
665.202	1	-9
665.541	1	2
665.879	1	10
666.218	1	-14
666.557	1	3
666.896	1	4
667.235	1	5
667.574	1	8
667.913	1	13
668.251	1	3
668.590	1	-13
668.929	1	8
669.268	1	-2
669.607	1	1
669.946	1	3
670.285	1	9
670.623	1	4
670.962	1	-8
671.301	1	2
671.640	1	-6
671.979	1	13
672.317	1	2
672.656	1	3
672.995	1	0
673.334	1	1
673.673	1	17
674.011	1	4
674.350	1	0
674.689	1	0
675.028	1	-6
675.367	1	-5
675.705	1	-4
676.044	1	-3
676.383	1	-8
676.722	1	1
677.060	1	8
677.399	1	-3
677.738	1	-4
678.077	1	5
678.416	1	9
678.754	1	-5
679.093	1	16
679.432	1	4
679.771	1	2
680.109	1	5
680.448	1	-3
680.787	1	-3
681.125	1	3
681.464	1	-2
681.803	1	-8
682.142	1	11
682.480	1	2
682.819	1	0
683.158	1	5
683.496	1	-7
683.835	1	0
684.174	1	1
684.512	1	2
684.851	1	-5
685.190	1	14
685.529	1	-4
685.867	1	4
686.206	1	3
686.545	1	14
686.883	1	-5
687.222	1	-6
687.561	1	4
687.899	1	-2
688.238	1	0
688.577	1	-6
688.746	1	4