File: Analysis/GaN_68K_200ms/GaN_sample E_spot4_UVVIS_68 K_200um_200 ms 2x2mm1_725.txt
340.368	1	4
340.710	1	-14
341.052	1	-7
341.394	1	-5
341.737	1	11
342.079	1	-8
342.421	1	0
342.763	1	-6
343.105	1	7
343.447	1	7
343.789	1	-4
344.131	1	-6
344.473	1	7
344.815	1	-10
345.157	1	6
345.499	1	-2
345.841	1	10
346.183	1	2
346.526	1	3
346.868	1	1
347.210	1	1
347.552	1	7
347.894	1	2
348.236	1	0
348.578	1	0
348.920	1	3
349.262	1	-3
349.604	1	6
349.946	1	7
350.288	1	-2
350.630	1	-16
350.972	1	3
351.314	1	-7
351.656	1	0
351.998	1	-9
352.340	1	-4
352.682	1	-7
353.024	1	-10
353.366	1	2
353.708	1	11
354.050	1	7
354.392	1	12
354.734	1	2
355.076	1	0
355.418	1	-2
355.760	1	1
356.102	1	-3
356.444	1	6
356.785	1	9
357.127	1	2
357.469	1	1
357.811	1	13
358.153	1	-5
358.495	1	-1
358.837	1	-1
359.179	1	0
359.521	1	3
359.863	1	-12
360.205	1	-1
360.547	1	3
360.889	1	-2
361.231	1	-2
361.572	1	-18
361.914	1	-2
362.256	1	4
362.598	1	-7
362.940	1	7
363.282	1	4
363.624	1	-6
363.966	1	-3
364.308	1	-3
364.649	1	-6
364.991	1	6
365.333	1	2
365.675	1	-5
366.017	1	1
366.359	1	3
366.701	1	-4
367.042	1	8
367.384	1	6
367.726	1	1
368.068	1	-4
368.410	1	1
368.752	1	-5
369.093	1	-5
369.435	1	-11
369.777	1	-6
370.119	1	8
370.461	1	1
370.803	1	-1
371.144	1	6
371.486	1	9
371.828	1	1
372.170	1	-2
372.512	1	-7
372.853	1	0
373.195	1	-2
373.537	1	-2
373.879	1	10
374.220	1	0
374.562	1	3
374.904	1	-2
375.246	1	4
375.588	1	-2
375.929	1	13
376.271	1	-2
376.613	1	-1
376.955	1	-12
377.296	1	3
377.638	1	-5
377.980	1	6
378.321	1	1
378.663	1	1
379.005	1	8
379.347	1	12
379.688	1	-2
380.030	1	-4
380.372	1	-2
380.714	1	2
381.055	1	0
381.397	1	-4
381.739	1	4
382.080	1	-12
382.422	1	10
382.764	1	-7
383.105	1	-3
383.447	1	0
383.789	1	0
384.130	1	-10
384.472	1	0
384.814	1	6
385.156	1	9
385.497	1	5
385.839	1	3
386.180	1	6
386.522	1	5
386.864	1	2
387.205	1	-10
387.547	1	1
387.889	1	8
388.230	1	7
388.572	1	3
388.914	1	8
389.255	1	3
389.597	1	-3
389.939	1	5
390.280	1	6
390.622	1	-3
390.963	1	13
391.305	1	3
391.647	1	1
391.988	1	2
392.330	1	1
392.671	1	8
393.013	1	9
393.355	1	6
393.696	1	3
394.038	1	-4
394.379	1	-4
394.721	1	5
395.062	1	-5
395.404	1	3
395.746	1	-5
396.087	1	-2
396.429	1	6
396.770	1	14
397.112	1	-4
397.453	1	-8
397.795	1	2
398.136	1	7
398.478	1	-8
398.819	1	6
399.161	1	1
399.503	1	3
399.844	1	1
400.186	1	9
400.527	1	4
400.869	1	11
401.210	1	-5
401.552	1	5
401.893	1	0
402.235	1	12
402.576	1	17
402.918	1	-4
403.259	1	4
403.601	1	-8
403.942	1	12
404.284	1	-4
404.625	1	-6
404.967	1	8
405.308	1	-4
405.649	1	10
405.991	1	-6
406.332	1	-1
406.674	1	-4
407.015	1	4
407.357	1	7
407.698	1	-6
408.040	1	-11
408.381	1	1
408.722	1	-6
409.064	1	5
409.405	1	-7
409.747	1	-9
410.088	1	1
410.430	1	8
410.771	1	2
411.112	1	7
411.454	1	0
411.795	1	9
412.137	1	6
412.478	1	7
412.819	1	2
413.161	1	1
413.502	1	-7
413.844	1	1
414.185	1	11
414.526	1	-5
414.868	1	1
415.209	1	-3
415.550	1	-1
415.892	1	-9
416.233	1	-2
416.575	1	-2
416.916	1	-12
417.257	1	4
417.599	1	8
417.940	1	4
418.281	1	-2
418.623	1	-8
418.964	1	-3
419.305	1	4
419.647	1	6
419.988	1	0
420.329	1	8
420.671	1	2
421.012	1	9
421.353	1	7
421.695	1	1
422.036	1	-2
422.377	1	7
422.718	1	-9
423.060	1	-11
423.401	1	7
423.742	1	-1
424.084	1	4
424.425	1	1
424.766	1	0
425.107	1	-5
425.449	1	8
425.790	1	-1
426.131	1	1
426.472	1	-6
426.814	1	15
427.155	1	-1
427.496	1	4
427.837	1	-2
428.179	1	-3
428.520	1	-11
428.861	1	3
429.202	1	3
429.544	1	-6
429.885	1	-4
430.226	1	-1
430.567	1	9
430.909	1	-1
431.250	1	-10
431.591	1	6
431.932	1	6
432.273	1	-5
432.615	1	-6
432.956	1	1
433.297	1	9
433.638	1	3
433.979	1	1
434.320	1	1
434.662	1	-11
435.003	1	4
435.344	1	0
435.685	1	14
436.026	1	-2
436.368	1	5
436.709	1	-7
437.050	1	6
437.391	1	-2
437.732	1	-2
438.073	1	10
438.414	1	-1
438.756	1	5
439.097	1	11
439.438	1	-1
439.779	1	-6
440.120	1	10
440.461	1	-7
440.802	1	3
441.143	1	7
441.485	1	-9
441.826	1	-16
442.167	1	-5
442.508	1	-5
442.849	1	-2
443.190	1	-5
443.531	1	-7
443.872	1	-3
444.213	1	-2
444.554	1	-4
444.895	1	-5
445.237	1	-4
445.578	1	1
445.919	1	-3
446.260	1	1
446.601	1	2
446.942	1	-1
447.283	1	-1
447.624	1	4
447.965	1	4
448.306	1	2
448.647	1	10
448.988	1	-11
449.329	1	-4
449.670	1	2
450.011	1	-3
450.352	1	6
450.693	1	4
451.034	1	-3
451.375	1	8
451.716	1	11
452.057	1	9
452.398	1	-3
452.739	1	-4
453.080	1	5
453.421	1	6
453.762	1	6
454.103	1	-3
454.444	1	7
454.785	1	-14
455.126	1	-3
455.467	1	0
455.808	1	-1
456.149	1	-9
456.490	1	-7
456.831	1	3
457.172	1	0
457.513	1	2
457.854	1	1
458.195	1	-7
458.536	1	3
458.877	1	-7
459.218	1	1
459.559	1	6
459.899	1	8
460.240	1	4
460.581	1	6
460.922	1	-2
461.263	1	-1
461.604	1	-5
461.945	1	6
462.286	1	9
462.627	1	5
462.968	1	-9
463.309	1	-8
463.649	1	3
463.990	1	-4
464.331	1	-3
464.672	1	-1
465.013	1	-11
465.354	1	8
465.695	1	5
466.036	1	-2
466.376	1	-2
466.717	1	-12
467.058	1	4
467.399	1	6
467.740	1	-1
468.081	1	-3
468.422	1	10
468.762	1	-17
469.103	1	-1
469.444	1	3
469.785	1	4
470.126	1	-10
470.467	1	-2
470.807	1	0
471.148	1	7
471.489	1	-4
471.830	1	11
472.171	1	-2
472.511	1	11
472.852	1	-3
473.193	1	-9
473.534	1	3
473.875	1	5
474.215	1	-2
474.556	1	-9
474.897	1	0
475.238	1	3
475.578	1	3
475.919	1	-2
476.260	1	-6
476.601	1	1
476.942	1	-1
477.282	1	-14
477.623	1	6
477.964	1	-8
478.305	1	8
478.645	1	-11
478.986	1	-3
479.327	1	-1
479.667	1	-1
480.008	1	4
480.349	1	-4
480.690	1	1
481.030	1	0
481.371	1	6
481.712	1	8
482.053	1	5
482.393	1	-19
482.734	1	4
483.075	1	7
483.415	1	10
483.756	1	11
484.097	1	-4
484.437	1	-8
484.778	1	3
485.119	1	7
485.459	1	11
485.800	1	-4
486.141	1	-6
486.481	1	-1
486.822	1	-4
487.163	1	-3
487.503	1	-8
487.844	1	7
488.185	1	-7
488.525	1	-6
488.866	1	-4
489.207	1	19
489.547	1	-7
489.888	1	-5
490.228	1	0
490.569	1	10
490.910	1	-8
491.250	1	4
491.591	1	-10
491.932	1	-4
492.272	1	3
492.613	1	2
492.953	1	2
493.294	1	4
493.635	1	-3
493.975	1	0
494.316	1	11
494.656	1	-2
494.997	1	-8
495.337	1	4
495.678	1	6
496.019	1	-4
496.359	1	4
496.700	1	-5
497.040	1	0
497.381	1	-12
497.721	1	-1
498.062	1	-2
498.403	1	-1
498.743	1	-2
499.084	1	-5
499.424	1	6
499.765	1	-6
500.105	1	1
500.446	1	11
500.786	1	13
501.127	1	9
501.467	1	4
501.808	1	-15
502.148	1	1
502.489	1	6
502.829	1	3
503.170	1	2
503.510	1	-1
503.851	1	-15
504.191	1	8
504.532	1	-4
504.872	1	-5
505.213	1	-2
505.553	1	-4
505.894	1	3
506.234	1	7
506.575	1	-3
506.915	1	5
507.256	1	3
507.596	1	10
507.936	1	4
508.277	1	-10
508.617	1	10
508.958	1	13
509.298	1	11
509.639	1	7
509.979	1	0
510.319	1	-3
510.660	1	2
511.000	1	-1
511.341	1	-4
511.681	1	3
512.022	1	-3
512.362	1	6
512.702	1	-6
513.043	1	9
513.383	1	-6
513.724	1	14
514.064	1	5
514.404	1	0
514.745	1	1
515.085	1	-10
515.425	1	5
515.766	1	-3
516.106	1	-11
516.447	1	6
516.787	1	-2
517.127	1	0
517.468	1	0
517.808	1	-1
518.148	1	2
518.489	1	9
518.829	1	0
519.169	1	10
519.510	1	-2
519.850	1	-9
520.190	1	-4
520.531	1	9
520.871	1	-7
521.211	1	-7
521.552	1	5
521.892	1	-15
522.232	1	-10
522.573	1	4
522.913	1	0
523.253	1	0
523.593	1	-15
523.934	1	8
524.274	1	-14
524.614	1	-1
524.955	1	-2
525.295	1	1
525.635	1	17
525.975	1	-3
526.316	1	-11
526.656	1	20
526.996	1	18
527.337	1	-2
527.677	1	7
528.017	1	-8
528.357	1	9
528.698	1	-3
529.038	1	6
529.378	1	2
529.718	1	3
530.058	1	5
530.399	1	-1
530.739	1	-9
531.079	1	8
531.419	1	13
531.760	1	5
532.100	1	0
532.440	1	0
532.780	1	-6
533.120	1	-6
533.461	1	8
533.801	1	4
534.141	1	8
534.481	1	-4
534.821	1	7
535.162	1	8
535.502	1	2
535.842	1	12
536.182	1	-1
536.522	1	4
536.862	1	8
537.203	1	6
537.543	1	-1
537.883	1	8
538.223	1	10
538.563	1	-1
538.903	1	2
539.243	1	-6
539.584	1	15
539.924	1	0
540.264	1	4
540.604	1	5
540.944	1	1
541.284	1	0
541.624	1	6
541.964	1	4
542.305	1	2
542.645	1	1
542.985	1	-11
543.325	1	-2
543.665	1	10
544.005	1	-1
544.345	1	-7
544.685	1	2
545.025	1	0
545.365	1	0
545.705	1	12
546.045	1	7
546.386	1	16
546.726	1	-5
547.066	1	-5
547.406	1	4
547.746	1	9
548.086	1	-6
548.426	1	-12
548.766	1	2
549.106	1	3
549.446	1	-5
549.786	1	1
550.126	1	-3
550.466	1	6
550.806	1	9
551.146	1	0
551.486	1	0
551.826	1	13
552.166	1	3
552.506	1	-7
552.846	1	0
553.186	1	1
553.526	1	-10
553.866	1	3
554.206	1	1
554.546	1	-15
554.886	1	8
555.226	1	-3
555.566	1	1
555.906	1	0
556.246	1	6
556.586	1	3
556.926	1	-1
557.266	1	6
557.606	1	-7
557.946	1	8
558.286	1	5
558.626	1	-1
558.966	1	8
559.306	1	-8
559.646	1	-6
559.986	1	-5
560.325	1	-8
560.665	1	2
561.005	1	-1
561.345	1	-6
561.685	1	-3
562.025	1	-6
562.365	1	-2
562.705	1	2
563.045	1	4
563.385	1	-2
563.725	1	-4
564.064	1	7
564.404	1	-6
564.744	1	6
565.084	1	-6
565.424	1	5
565.764	1	6
566.104	1	-11
566.444	1	2
566.783	1	-2
567.123	1	8
567.463	1	2
567.803	1	-7
568.143	1	-3
568.483	1	-10
568.823	1	0
569.162	1	2
569.502	1	-1
569.842	1	-8
570.182	1	-8
570.522	1	14
570.862	1	9
571.201	1	9
571.541	1	-10
571.881	1	7
572.221	1	1
572.561	1	-3
572.900	1	13
573.240	1	-6
573.580	1	4
573.920	1	-3
574.260	1	0
574.599	1	3
574.939	1	-9
575.279	1	-4
575.619	1	-1
575.959	1	-5
576.298	1	0
576.638	1	1
576.978	1	-5
577.318	1	14
577.657	1	-11
577.997	1	-8
578.337	1	-6
578.677	1	-11
579.016	1	9
579.356	1	-8
579.696	1	3
580.036	1	-2
580.375	1	3
580.715	1	3
581.055	1	6
581.394	1	-6
581.734	1	4
582.074	1	-6
582.414	1	0
582.753	1	6
583.093	1	-6
583.433	1	-7
583.772	1	-2
584.112	1	2
584.452	1	-1
584.791	1	0
585.131	1	-11
585.471	1	0
585.811	1	-4
586.150	1	8
586.490	1	1
586.830	1	-1
587.169	1	-2
587.509	1	-3
587.849	1	12
588.188	1	-2
588.528	1	5
588.867	1	-4
589.207	1	-13
589.547	1	-2
589.886	1	-5
590.226	1	6
590.566	1	-6
590.905	1	7
591.245	1	0
591.585	1	-4
591.924	1	1
592.264	1	-1
592.603	1	-6
592.943	1	-7
593.283	1	5
593.622	1	0
593.962	1	9
594.301	1	8
594.641	1	0
594.981	1	-2
595.320	1	3
595.660	1	0
595.999	1	-2
596.339	1	2
596.678	1	0
597.018	1	8
597.358	1	1
597.697	1	-6
598.037	1	9
598.376	1	6
598.716	1	2
599.055	1	1
599.395	1	1
599.734	1	-5
600.074	1	-11
600.413	1	4
600.753	1	-7
601.092	1	-19
601.432	1	-7
601.771	1	-1
602.111	1	0
602.451	1	-6
602.790	1	-3
603.130	1	8
603.469	1	-1
603.809	1	9
604.148	1	-3
604.487	1	4
604.827	1	-14
605.166	1	-5
605.506	1	-3
605.845	1	2
606.185	1	-13
606.524	1	2
606.864	1	1
607.203	1	-2
607.543	1	-5
607.882	1	-14
608.222	1	11
608.561	1	4
608.901	1	-1
609.240	1	-6
609.579	1	1
609.919	1	-4
610.258	1	12
610.598	1	7
610.937	1	-4
611.277	1	1
611.616	1	-9
611.955	1	4
612.295	1	1
612.634	1	-6
612.974	1	2
613.313	1	7
613.652	1	-7
613.992	1	-1
614.331	1	6
614.671	1	-1
615.010	1	5
615.349	1	-1
615.689	1	-4
616.028	1	-1
616.368	1	-10
616.707	1	-3
617.046	1	0
617.386	1	-4
617.725	1	3
618.064	1	2
618.404	1	0
618.743	1	-3
619.082	1	-5
619.422	1	4
619.761	1	-6
620.100	1	3
620.440	1	5
620.779	1	3
621.118	1	-2
621.458	1	9
621.797	1	3
622.136	1	-8
622.476	1	2
622.815	1	0
623.154	1	6
623.494	1	9
623.833	1	-6
624.172	1	0
624.511	1	-5
624.851	1	-3
625.190	1	7
625.529	1	1
625.869	1	5
626.208	1	-5
626.547	1	1
626.886	1	0
627.226	1	9
627.565	1	5
627.904	1	-7
628.243	1	-10
628.583	1	5
628.922	1	0
629.261	1	4
629.600	1	6
629.940	1	4
630.279	1	-5
630.618	1	1
630.957	1	-4
631.297	1	-1
631.636	1	-5
631.975	1	-8
632.314	1	14
632.653	1	0
632.993	1	3
633.332	1	1
633.671	1	6
634.010	1	4
634.349	1	8
634.689	1	5
635.028	1	1
635.367	1	-4
635.706	1	-5
636.045	1	-2
636.384	1	10
636.724	1	5
637.063	1	2
637.402	1	8
637.741	1	6
638.080	1	-1
638.419	1	4
638.759	1	5
639.098	1	-6
639.437	1	-7
639.776	1	-6
640.115	1	-4
640.454	1	15
640.793	1	-2
641.132	1	9
641.472	1	-10
641.811	1	-5
642.150	1	-3
642.489	1	-6
642.828	1	7
643.167	1	14
643.506	1	-4
643.845	1	5
644.184	1	4
644.524	1	-2
644.863	1	-11
645.202	1	-4
645.541	1	-7
645.880	1	0
646.219	1	0
646.558	1	-4
646.897	1	-5
647.236	1	8
647.575	1	-2
647.914	1	-8
648.253	1	5
648.592	1	-1
648.931	1	6
649.270	1	4
649.610	1	6
649.949	1	7
650.288	1	-4
650.627	1	-6
650.966	1	-8
651.305	1	-8
651.644	1	1
651.983	1	-5
652.322	1	4
652.661	1	2
653.000	1	-1
653.339	1	6
653.678	1	-11
654.017	1	-6
654.356	1	11
654.695	1	7
655.034	1	-3
655.373	1	-4
655.712	1	-10
656.051	1	8
656.390	1	-5
656.729	1	5
657.068	1	6
657.406	1	-3
657.745	1	-6
658.084	1	4
658.423	1	-2
658.762	1	-5
659.101	1	-8
659.440	1	3
659.779	1	-10
660.118	1	-3
660.457	1	-8
660.796	1	-4
661.135	1	-2
661.474	1	-4
661.813	1	3
662.152	1	1
662.491	1	-9
662.829	1	-14
663.168	1	-2
663.507	1	-2
663.846	1	6
664.185	1	2
664.524	1	-9
664.863	1	-4
665.202	1	-8
665.541	1	-1
665.879	1	5
666.218	1	-13
666.557	1	3
666.896	1	-9
667.235	1	-9
667.574	1	2
667.913	1	-2
668.251	1	-4
668.590	1	-4
668.929	1	4
669.268	1	-1
669.607	1	-12
669.946	1	-4
670.285	1	1
670.623	1	2
670.962	1	-1
671.301	1	-2
671.640	1	-6
671.979	1	13
672.317	1	1
672.656	1	4
672.995	1	9
673.334	1	5
673.673	1	15
674.011	1	7
674.350	1	-5
674.689	1	-9
675.028	1	0
675.367	1	-3
675.705	1	-8
676.044	1	-6
676.383	1	-2
676.722	1	-2
677.060	1	-5
677.399	1	-4
677.738	1	-10
678.077	1	5
678.416	1	5
678.754	1	-1
679.093	1	11
679.432	1	-13
679.771	1	-5
680.109	1	5
680.448	1	-3
680.787	1	4
681.125	1	3
681.464	1	-3
681.803	1	-8
682.142	1	6
682.480	1	-9
682.819	1	-5
683.158	1	4
683.496	1	-3
683.835	1	2
684.174	1	5
684.512	1	-5
684.851	1	2
685.190	1	3
685.529	1	8
685.867	1	-4
686.206	1	5
686.545	1	1
686.883	1	-4
687.222	1	-7
687.561	1	2
687.899	1	-1
688.238	1	3
688.577	1	-7
688.746	1	14