File: Analysis/GaN_68K_200ms/GaN_sample E_spot4_UVVIS_68 K_200um_200 ms 2x2mm1_139.txt
340.368	1	-1
340.710	1	2
341.052	1	3
341.394	1	4
341.737	1	6
342.079	1	5
342.421	1	-2
342.763	1	4
343.105	1	21
343.447	1	8
343.789	1	-1
344.131	1	4
344.473	1	7
344.815	1	4
345.157	1	8
345.499	1	7
345.841	1	6
346.183	1	6
346.526	1	9
346.868	1	9
347.210	1	6
347.552	1	7
347.894	1	4
348.236	1	1
348.578	1	4
348.920	1	21
349.262	1	1
349.604	1	16
349.946	1	13
350.288	1	8
350.630	1	-9
350.972	1	10
351.314	1	1
351.656	1	8
351.998	1	8
352.340	1	6
352.682	1	6
353.024	1	-1
353.366	1	12
353.708	1	14
354.050	1	14
354.392	1	17
354.734	1	13
355.076	1	25
355.418	1	10
355.760	1	14
356.102	1	14
356.444	1	15
356.785	1	16
357.127	1	13
357.469	1	13
357.811	1	30
358.153	1	13
358.495	1	17
358.837	1	11
359.179	1	18
359.521	1	19
359.863	1	23
360.205	1	21
360.547	1	24
360.889	1	25
361.231	1	36
361.572	1	34
361.914	1	30
362.256	1	46
362.598	1	46
362.940	1	50
363.282	1	50
363.624	1	60
363.966	1	74
364.308	1	61
364.649	1	83
364.991	1	103
365.333	1	93
365.675	1	94
366.017	1	111
366.359	1	119
366.701	1	104
367.042	1	129
367.384	1	115
367.726	1	123
368.068	1	97
368.410	1	107
368.752	1	100
369.093	1	104
369.435	1	86
369.777	1	87
370.119	1	93
370.461	1	86
370.803	1	72
371.144	1	75
371.486	1	75
371.828	1	67
372.170	1	72
372.512	1	56
372.853	1	72
373.195	1	50
373.537	1	55
373.879	1	63
374.220	1	44
374.562	1	46
374.904	1	44
375.246	1	61
375.588	1	40
375.929	1	40
376.271	1	41
376.613	1	51
376.955	1	28
377.296	1	43
377.638	1	32
377.980	1	41
378.321	1	35
378.663	1	40
379.005	1	39
379.347	1	50
379.688	1	32
380.030	1	39
380.372	1	41
380.714	1	38
381.055	1	42
381.397	1	47
381.739	1	56
382.080	1	43
382.422	1	70
382.764	1	58
383.105	1	65
383.447	1	85
383.789	1	79
384.130	1	83
384.472	1	88
384.814	1	107
385.156	1	118
385.497	1	127
385.839	1	131
386.180	1	130
386.522	1	132
386.864	1	132
387.205	1	131
387.547	1	132
387.889	1	140
388.230	1	118
388.572	1	128
388.914	1	138
389.255	1	129
389.597	1	112
389.939	1	122
390.280	1	128
390.622	1	121
390.963	1	122
391.305	1	121
391.647	1	126
391.988	1	117
392.330	1	127
392.671	1	119
393.013	1	109
393.355	1	118
393.696	1	104
394.038	1	101
394.379	1	95
394.721	1	109
395.062	1	101
395.404	1	118
395.746	1	101
396.087	1	111
396.429	1	119
396.770	1	119
397.112	1	121
397.453	1	115
397.795	1	124
398.136	1	117
398.478	1	116
398.819	1	126
399.161	1	127
399.503	1	117
399.844	1	123
400.186	1	118
400.527	1	115
400.869	1	97
401.210	1	98
401.552	1	96
401.893	1	104
402.235	1	84
402.576	1	89
402.918	1	81
403.259	1	84
403.601	1	74
403.942	1	89
404.284	1	91
404.625	1	83
404.967	1	87
405.308	1	89
405.649	1	80
405.991	1	85
406.332	1	77
406.674	1	75
407.015	1	70
407.357	1	77
407.698	1	66
408.040	1	76
408.381	1	71
408.722	1	66
409.064	1	69
409.405	1	78
409.747	1	80
410.088	1	72
410.430	1	70
410.771	1	63
411.112	1	73
411.454	1	68
411.795	1	64
412.137	1	81
412.478	1	61
412.819	1	50
413.161	1	67
413.502	1	59
413.844	1	56
414.185	1	60
414.526	1	60
414.868	1	70
415.209	1	50
415.550	1	45
415.892	1	46
416.233	1	52
416.575	1	49
416.916	1	50
417.257	1	57
417.599	1	45
417.940	1	52
418.281	1	51
418.623	1	53
418.964	1	47
419.305	1	46
419.647	1	55
419.988	1	34
420.329	1	53
420.671	1	46
421.012	1	46
421.353	1	43
421.695	1	42
422.036	1	42
422.377	1	41
422.718	1	37
423.060	1	36
423.401	1	39
423.742	1	41
424.084	1	45
424.425	1	34
424.766	1	49
425.107	1	34
425.449	1	34
425.790	1	31
426.131	1	42
426.472	1	33
426.814	1	28
427.155	1	18
427.496	1	41
427.837	1	16
428.179	1	14
428.520	1	37
428.861	1	30
429.202	1	30
429.544	1	25
429.885	1	22
430.226	1	24
430.567	1	42
430.909	1	13
431.250	1	10
431.591	1	30
431.932	1	30
432.273	1	28
432.615	1	20
432.956	1	17
433.297	1	23
433.638	1	22
433.979	1	14
434.320	1	27
434.662	1	11
435.003	1	36
435.344	1	33
435.685	1	31
436.026	1	18
436.368	1	16
436.709	1	4
437.050	1	27
437.391	1	18
437.732	1	19
438.073	1	14
438.414	1	20
438.756	1	26
439.097	1	22
439.438	1	23
439.779	1	13
440.120	1	14
440.461	1	16
440.802	1	26
441.143	1	25
441.485	1	18
441.826	1	15
442.167	1	19
442.508	1	11
442.849	1	17
443.190	1	1
443.531	1	12
443.872	1	20
444.213	1	14
444.554	1	12
444.895	1	18
445.237	1	10
445.578	1	27
445.919	1	19
446.260	1	14
446.601	1	11
446.942	1	9
447.283	1	14
447.624	1	18
447.965	1	2
448.306	1	20
448.647	1	26
448.988	1	5
449.329	1	9
449.670	1	18
450.011	1	23
450.352	1	25
450.693	1	15
451.034	1	19
451.375	1	22
451.716	1	18
452.057	1	21
452.398	1	12
452.739	1	5
453.080	1	22
453.421	1	5
453.762	1	16
454.103	1	16
454.444	1	24
454.785	1	4
455.126	1	8
455.467	1	17
455.808	1	12
456.149	1	9
456.490	1	8
456.831	1	12
457.172	1	14
457.513	1	18
457.854	1	6
458.195	1	10
458.536	1	20
458.877	1	12
459.218	1	15
459.559	1	17
459.899	1	15
460.240	1	12
460.581	1	11
460.922	1	13
461.263	1	17
461.604	1	7
461.945	1	19
462.286	1	17
462.627	1	6
462.968	1	9
463.309	1	15
463.649	1	11
463.990	1	4
464.331	1	22
464.672	1	12
465.013	1	4
465.354	1	13
465.695	1	19
466.036	1	1
466.376	1	12
466.717	1	5
467.058	1	25
467.399	1	20
467.740	1	4
468.081	1	14
468.422	1	16
468.762	1	3
469.103	1	8
469.444	1	6
469.785	1	17
470.126	1	11
470.467	1	5
470.807	1	4
471.148	1	14
471.489	1	10
471.830	1	30
472.171	1	6
472.511	1	18
472.852	1	3
473.193	1	7
473.534	1	8
473.875	1	15
474.215	1	0
474.556	1	8
474.897	1	4
475.238	1	7
475.578	1	7
475.919	1	10
476.260	1	7
476.601	1	12
476.942	1	10
477.282	1	5
477.623	1	18
477.964	1	16
478.305	1	13
478.645	1	8
478.986	1	12
479.327	1	11
479.667	1	16
480.008	1	19
480.349	1	9
480.690	1	14
481.030	1	6
481.371	1	24
481.712	1	13
482.053	1	18
482.393	1	3
482.734	1	19
483.075	1	18
483.415	1	19
483.756	1	22
484.097	1	10
484.437	1	8
484.778	1	23
485.119	1	19
485.459	1	27
485.800	1	16
486.141	1	8
486.481	1	18
486.822	1	15
487.163	1	15
487.503	1	7
487.844	1	16
488.185	1	8
488.525	1	7
488.866	1	23
489.207	1	25
489.547	1	7
489.888	1	14
490.228	1	20
490.569	1	19
490.910	1	11
491.250	1	22
491.591	1	12
491.932	1	19
492.272	1	23
492.613	1	19
492.953	1	24
493.294	1	30
493.635	1	25
493.975	1	26
494.316	1	24
494.656	1	22
494.997	1	26
495.337	1	23
495.678	1	20
496.019	1	28
496.359	1	23
496.700	1	23
497.040	1	23
497.381	1	11
497.721	1	29
498.062	1	22
498.403	1	27
498.743	1	30
499.084	1	19
499.424	1	42
499.765	1	25
500.105	1	30
500.446	1	22
500.786	1	28
501.127	1	33
501.467	1	41
501.808	1	30
502.148	1	39
502.489	1	33
502.829	1	45
503.170	1	40
503.510	1	32
503.851	1	20
504.191	1	39
504.532	1	30
504.872	1	33
505.213	1	36
505.553	1	53
505.894	1	58
506.234	1	55
506.575	1	44
506.915	1	48
507.256	1	42
507.596	1	50
507.936	1	57
508.277	1	42
508.617	1	58
508.958	1	52
509.298	1	55
509.639	1	58
509.979	1	48
510.319	1	46
510.660	1	54
511.000	1	57
511.341	1	51
511.681	1	58
512.022	1	43
512.362	1	56
512.702	1	54
513.043	1	57
513.383	1	62
513.724	1	71
514.064	1	61
514.404	1	62
514.745	1	60
515.085	1	59
515.425	1	53
515.766	1	61
516.106	1	62
516.447	1	74
516.787	1	60
517.127	1	63
517.468	1	70
517.808	1	66
518.148	1	68
518.489	1	69
518.829	1	62
519.169	1	74
519.510	1	73
519.850	1	72
520.190	1	76
520.531	1	71
520.871	1	68
521.211	1	67
521.552	1	78
521.892	1	62
522.232	1	72
522.573	1	78
522.913	1	79
523.253	1	74
523.593	1	60
523.934	1	77
524.274	1	63
524.614	1	74
524.955	1	74
525.295	1	75
525.635	1	80
525.975	1	70
526.316	1	85
526.656	1	95
526.996	1	84
527.337	1	71
527.677	1	83
528.017	1	65
528.357	1	84
528.698	1	72
529.038	1	82
529.378	1	74
529.718	1	95
530.058	1	74
530.399	1	83
530.739	1	80
531.079	1	85
531.419	1	90
531.760	1	87
532.100	1	89
532.440	1	71
532.780	1	77
533.120	1	79
533.461	1	92
533.801	1	86
534.141	1	85
534.481	1	86
534.821	1	78
535.162	1	85
535.502	1	85
535.842	1	77
536.182	1	75
536.522	1	88
536.862	1	78
537.203	1	83
537.543	1	81
537.883	1	83
538.223	1	76
538.563	1	76
538.903	1	75
539.243	1	63
539.584	1	81
539.924	1	80
540.264	1	84
540.604	1	77
540.944	1	77
541.284	1	70
541.624	1	66
541.964	1	81
542.305	1	64
542.645	1	60
542.985	1	76
543.325	1	74
543.665	1	69
544.005	1	68
544.345	1	69
544.685	1	78
545.025	1	55
545.365	1	79
545.705	1	71
546.045	1	81
546.386	1	60
546.726	1	69
547.066	1	56
547.406	1	76
547.746	1	75
548.086	1	72
548.426	1	52
548.766	1	71
549.106	1	74
549.446	1	66
549.786	1	72
550.126	1	56
550.466	1	62
550.806	1	81
551.146	1	66
551.486	1	74
551.826	1	63
552.166	1	61
552.506	1	55
552.846	1	63
553.186	1	62
553.526	1	59
553.866	1	73
554.206	1	65
554.546	1	46
554.886	1	60
555.226	1	55
555.566	1	53
555.906	1	69
556.246	1	60
556.586	1	66
556.926	1	59
557.266	1	62
557.606	1	48
557.946	1	61
558.286	1	53
558.626	1	63
558.966	1	51
559.306	1	51
559.646	1	55
559.986	1	51
560.325	1	41
560.665	1	58
561.005	1	47
561.345	1	41
561.685	1	41
562.025	1	49
562.365	1	42
562.705	1	57
563.045	1	47
563.385	1	41
563.725	1	37
564.064	1	52
564.404	1	44
564.744	1	55
565.084	1	32
565.424	1	37
565.764	1	52
566.104	1	50
566.444	1	43
566.783	1	46
567.123	1	58
567.463	1	39
567.803	1	37
568.143	1	40
568.483	1	33
568.823	1	51
569.162	1	48
569.502	1	41
569.842	1	41
570.182	1	30
570.522	1	44
570.862	1	36
571.201	1	43
571.541	1	31
571.881	1	34
572.221	1	47
572.561	1	30
572.900	1	54
573.240	1	26
573.580	1	31
573.920	1	40
574.260	1	30
574.599	1	31
574.939	1	41
575.279	1	36
575.619	1	27
575.959	1	25
576.298	1	24
576.638	1	30
576.978	1	29
577.318	1	39
577.657	1	19
577.997	1	19
578.337	1	26
578.677	1	25
579.016	1	52
579.356	1	27
579.696	1	27
580.036	1	21
580.375	1	27
580.715	1	28
581.055	1	26
581.394	1	17
581.734	1	26
582.074	1	28
582.414	1	24
582.753	1	37
583.093	1	22
583.433	1	24
583.772	1	13
584.112	1	29
584.452	1	25
584.791	1	24
585.131	1	16
585.471	1	20
585.811	1	27
586.150	1	26
586.490	1	20
586.830	1	18
587.169	1	19
587.509	1	23
587.849	1	31
588.188	1	20
588.528	1	27
588.867	1	25
589.207	1	12
589.547	1	13
589.886	1	21
590.226	1	14
590.566	1	21
590.905	1	18
591.245	1	15
591.585	1	17
591.924	1	13
592.264	1	20
592.603	1	10
592.943	1	15
593.283	1	23
593.622	1	18
593.962	1	20
594.301	1	33
594.641	1	14
594.981	1	20
595.320	1	20
595.660	1	16
595.999	1	19
596.339	1	21
596.678	1	10
597.018	1	19
597.358	1	20
597.697	1	5
598.037	1	17
598.376	1	26
598.716	1	7
599.055	1	14
599.395	1	11
599.734	1	10
600.074	1	12
600.413	1	17
600.753	1	18
601.092	1	7
601.432	1	16
601.771	1	12
602.111	1	8
602.451	1	16
602.790	1	20
603.130	1	17
603.469	1	12
603.809	1	18
604.148	1	19
604.487	1	22
604.827	1	6
605.166	1	9
605.506	1	12
605.845	1	13
606.185	1	17
606.524	1	10
606.864	1	8
607.203	1	28
607.543	1	2
607.882	1	13
608.222	1	15
608.561	1	17
608.901	1	16
609.240	1	15
609.579	1	20
609.919	1	14
610.258	1	15
610.598	1	9
610.937	1	14
611.277	1	25
611.616	1	-4
611.955	1	21
612.295	1	16
612.634	1	7
612.974	1	15
613.313	1	6
613.652	1	2
613.992	1	4
614.331	1	18
614.671	1	7
615.010	1	21
615.349	1	14
615.689	1	13
616.028	1	16
616.368	1	6
616.707	1	6
617.046	1	14
617.386	1	19
617.725	1	10
618.064	1	18
618.404	1	18
618.743	1	6
619.082	1	14
619.422	1	15
619.761	1	10
620.100	1	14
620.440	1	7
620.779	1	2
621.118	1	5
621.458	1	16
621.797	1	15
622.136	1	13
622.476	1	11
622.815	1	4
623.154	1	24
623.494	1	5
623.833	1	13
624.172	1	29
624.511	1	9
624.851	1	-2
625.190	1	6
625.529	1	14
625.869	1	13
626.208	1	10
626.547	1	13
626.886	1	3
627.226	1	7
627.565	1	23
627.904	1	15
628.243	1	5
628.583	1	10
628.922	1	1
629.261	1	13
629.600	1	9
629.940	1	5
630.279	1	7
630.618	1	4
630.957	1	7
631.297	1	12
631.636	1	6
631.975	1	9
632.314	1	21
632.653	1	4
632.993	1	15
633.332	1	8
633.671	1	4
634.010	1	4
634.349	1	4
634.689	1	13
635.028	1	9
635.367	1	12
635.706	1	1
636.045	1	5
636.384	1	12
636.724	1	15
637.063	1	14
637.402	1	9
637.741	1	13
638.080	1	13
638.419	1	12
638.759	1	17
639.098	1	8
639.437	1	-3
639.776	1	12
640.115	1	14
640.454	1	18
640.793	1	15
641.132	1	10
641.472	1	12
641.811	1	5
642.150	1	6
642.489	1	6
642.828	1	10
643.167	1	7
643.506	1	-1
643.845	1	8
644.184	1	7
644.524	1	1
644.863	1	4
645.202	1	12
645.541	1	6
645.880	1	2
646.219	1	13
646.558	1	7
646.897	1	8
647.236	1	10
647.575	1	9
647.914	1	-3
648.253	1	16
648.592	1	11
648.931	1	14
649.270	1	10
649.610	1	8
649.949	1	4
650.288	1	9
650.627	1	5
650.966	1	4
651.305	1	8
651.644	1	3
651.983	1	5
652.322	1	11
652.661	1	15
653.000	1	5
653.339	1	10
653.678	1	9
654.017	1	6
654.356	1	9
654.695	1	10
655.034	1	12
655.373	1	16
655.712	1	-1
656.051	1	14
656.390	1	7
656.729	1	13
657.068	1	7
657.406	1	9
657.745	1	4
658.084	1	10
658.423	1	-6
658.762	1	4
659.101	1	-1
659.440	1	15
659.779	1	2
660.118	1	8
660.457	1	6
660.796	1	-4
661.135	1	11
661.474	1	10
661.813	1	11
662.152	1	2
662.491	1	-1
662.829	1	5
663.168	1	9
663.507	1	0
663.846	1	14
664.185	1	7
664.524	1	-6
664.863	1	5
665.202	1	-2
665.541	1	-3
665.879	1	9
666.218	1	0
666.557	1	-3
666.896	1	9
667.235	1	5
667.574	1	8
667.913	1	1
668.251	1	7
668.590	1	8
668.929	1	10
669.268	1	8
669.607	1	5
669.946	1	4
670.285	1	10
670.623	1	11
670.962	1	5
671.301	1	5
671.640	1	-1
671.979	1	23
672.317	1	-1
672.656	1	9
672.995	1	11
673.334	1	7
673.673	1	24
674.011	1	8
674.350	1	5
674.689	1	-4
675.028	1	10
675.367	1	13
675.705	1	-6
676.044	1	4
676.383	1	4
676.722	1	11
677.060	1	0
677.399	1	12
677.738	1	-4
678.077	1	10
678.416	1	7
678.754	1	1
679.093	1	6
679.432	1	-4
679.771	1	6
680.109	1	20
680.448	1	13
680.787	1	10
681.125	1	4
681.464	1	-4
681.803	1	-8
682.142	1	17
682.480	1	3
682.819	1	7
683.158	1	2
683.496	1	4
683.835	1	14
684.174	1	6
684.512	1	15
684.851	1	3
685.190	1	9
685.529	1	8
685.867	1	16
686.206	1	10
686.545	1	8
686.883	1	4
687.222	1	0
687.561	1	13
687.899	1	1
688.238	1	11
688.577	1	11
688.746	1	14