File: Analysis/GaN_68K_200ms/GaN_sample E_spot4_UVVIS_68 K_200um_200 ms 2x2mm1_284.txt
340.368	1	4
340.710	1	-10
341.052	1	1
341.394	1	3
341.737	1	13
342.079	1	-3
342.421	1	-6
342.763	1	2
343.105	1	17
343.447	1	-2
343.789	1	8
344.131	1	0
344.473	1	-3
344.815	1	4
345.157	1	11
345.499	1	14
345.841	1	0
346.183	1	-1
346.526	1	12
346.868	1	1
347.210	1	0
347.552	1	-2
347.894	1	2
348.236	1	-4
348.578	1	0
348.920	1	6
349.262	1	4
349.604	1	8
349.946	1	5
350.288	1	1
350.630	1	-4
350.972	1	6
351.314	1	-8
351.656	1	8
351.998	1	4
352.340	1	-3
352.682	1	-6
353.024	1	1
353.366	1	0
353.708	1	15
354.050	1	6
354.392	1	3
354.734	1	-2
355.076	1	7
355.418	1	-9
355.760	1	8
356.102	1	1
356.444	1	10
356.785	1	17
357.127	1	6
357.469	1	4
357.811	1	14
358.153	1	4
358.495	1	10
358.837	1	6
359.179	1	8
359.521	1	5
359.863	1	-6
360.205	1	-1
360.547	1	11
360.889	1	6
361.231	1	10
361.572	1	1
361.914	1	-5
362.256	1	14
362.598	1	3
362.940	1	9
363.282	1	5
363.624	1	4
363.966	1	7
364.308	1	-4
364.649	1	-2
364.991	1	3
365.333	1	16
365.675	1	7
366.017	1	6
366.359	1	2
366.701	1	3
367.042	1	15
367.384	1	12
367.726	1	17
368.068	1	0
368.410	1	5
368.752	1	0
369.093	1	11
369.435	1	0
369.777	1	12
370.119	1	10
370.461	1	5
370.803	1	2
371.144	1	5
371.486	1	9
371.828	1	5
372.170	1	8
372.512	1	5
372.853	1	2
373.195	1	2
373.537	1	13
373.879	1	9
374.220	1	11
374.562	1	11
374.904	1	11
375.246	1	0
375.588	1	5
375.929	1	10
376.271	1	-2
376.613	1	7
376.955	1	-4
377.296	1	8
377.638	1	-2
377.980	1	9
378.321	1	12
378.663	1	3
379.005	1	9
379.347	1	3
379.688	1	2
380.030	1	3
380.372	1	-1
380.714	1	7
381.055	1	4
381.397	1	6
381.739	1	10
382.080	1	-3
382.422	1	13
382.764	1	1
383.105	1	-3
383.447	1	14
383.789	1	4
384.130	1	0
384.472	1	3
384.814	1	5
385.156	1	17
385.497	1	22
385.839	1	17
386.180	1	17
386.522	1	14
386.864	1	0
387.205	1	5
387.547	1	1
387.889	1	18
388.230	1	15
388.572	1	15
388.914	1	23
389.255	1	11
389.597	1	0
389.939	1	8
390.280	1	18
390.622	1	15
390.963	1	8
391.305	1	6
391.647	1	15
391.988	1	9
392.330	1	12
392.671	1	11
393.013	1	13
393.355	1	10
393.696	1	6
394.038	1	5
394.379	1	6
394.721	1	10
395.062	1	-6
395.404	1	14
395.746	1	0
396.087	1	16
396.429	1	14
396.770	1	12
397.112	1	6
397.453	1	4
397.795	1	6
398.136	1	18
398.478	1	8
398.819	1	13
399.161	1	17
399.503	1	11
399.844	1	5
400.186	1	14
400.527	1	8
400.869	1	15
401.210	1	4
401.552	1	21
401.893	1	-1
402.235	1	9
402.576	1	18
402.918	1	1
403.259	1	2
403.601	1	1
403.942	1	11
404.284	1	2
404.625	1	19
404.967	1	5
405.308	1	9
405.649	1	7
405.991	1	10
406.332	1	-1
406.674	1	4
407.015	1	3
407.357	1	6
407.698	1	2
408.040	1	-2
408.381	1	10
408.722	1	0
409.064	1	12
409.405	1	13
409.747	1	5
410.088	1	9
410.430	1	15
410.771	1	7
411.112	1	9
411.454	1	15
411.795	1	10
412.137	1	14
412.478	1	10
412.819	1	9
413.161	1	4
413.502	1	9
413.844	1	11
414.185	1	12
414.526	1	12
414.868	1	15
415.209	1	2
415.550	1	4
415.892	1	9
416.233	1	10
416.575	1	4
416.916	1	5
417.257	1	8
417.599	1	16
417.940	1	1
418.281	1	3
418.623	1	6
418.964	1	7
419.305	1	3
419.647	1	13
419.988	1	6
420.329	1	9
420.671	1	9
421.012	1	15
421.353	1	8
421.695	1	5
422.036	1	-3
422.377	1	10
422.718	1	5
423.060	1	-1
423.401	1	15
423.742	1	7
424.084	1	20
424.425	1	10
424.766	1	16
425.107	1	10
425.449	1	10
425.790	1	1
426.131	1	7
426.472	1	3
426.814	1	13
427.155	1	11
427.496	1	12
427.837	1	7
428.179	1	-4
428.520	1	-4
428.861	1	2
429.202	1	7
429.544	1	0
429.885	1	4
430.226	1	6
430.567	1	14
430.909	1	-5
431.250	1	-4
431.591	1	1
431.932	1	9
432.273	1	-1
432.615	1	6
432.956	1	1
433.297	1	9
433.638	1	-3
433.979	1	-2
434.320	1	12
434.662	1	6
435.003	1	7
435.344	1	4
435.685	1	13
436.026	1	9
436.368	1	-2
436.709	1	-7
437.050	1	9
437.391	1	7
437.732	1	4
438.073	1	2
438.414	1	-2
438.756	1	7
439.097	1	11
439.438	1	2
439.779	1	-5
440.120	1	3
440.461	1	-2
440.802	1	10
441.143	1	4
441.485	1	1
441.826	1	-6
442.167	1	3
442.508	1	6
442.849	1	11
443.190	1	-1
443.531	1	6
443.872	1	1
444.213	1	-2
444.554	1	-4
444.895	1	2
445.237	1	1
445.578	1	13
445.919	1	6
446.260	1	2
446.601	1	5
446.942	1	12
447.283	1	5
447.624	1	10
447.965	1	0
448.306	1	4
448.647	1	20
448.988	1	-10
449.329	1	13
449.670	1	-2
450.011	1	5
450.352	1	16
450.693	1	16
451.034	1	9
451.375	1	7
451.716	1	4
452.057	1	11
452.398	1	14
452.739	1	1
453.080	1	11
453.421	1	3
453.762	1	10
454.103	1	-3
454.444	1	16
454.785	1	2
455.126	1	11
455.467	1	3
455.808	1	-1
456.149	1	2
456.490	1	8
456.831	1	15
457.172	1	-1
457.513	1	10
457.854	1	5
458.195	1	-1
458.536	1	9
458.877	1	9
459.218	1	9
459.559	1	2
459.899	1	3
460.240	1	0
460.581	1	10
460.922	1	12
461.263	1	7
461.604	1	4
461.945	1	8
462.286	1	11
462.627	1	10
462.968	1	-7
463.309	1	-1
463.649	1	4
463.990	1	2
464.331	1	15
464.672	1	5
465.013	1	-4
465.354	1	-1
465.695	1	13
466.036	1	11
466.376	1	-8
466.717	1	-3
467.058	1	13
467.399	1	7
467.740	1	-3
468.081	1	2
468.422	1	9
468.762	1	-11
469.103	1	-2
469.444	1	10
469.785	1	11
470.126	1	6
470.467	1	-5
470.807	1	-6
471.148	1	4
471.489	1	-1
471.830	1	14
472.171	1	11
472.511	1	6
472.852	1	-5
473.193	1	-2
473.534	1	8
473.875	1	6
474.215	1	-3
474.556	1	-17
474.897	1	3
475.238	1	-8
475.578	1	7
475.919	1	2
476.260	1	-3
476.601	1	1
476.942	1	1
477.282	1	-6
477.623	1	4
477.964	1	13
478.305	1	0
478.645	1	-14
478.986	1	7
479.327	1	6
479.667	1	2
480.008	1	11
480.349	1	2
480.690	1	0
481.030	1	0
481.371	1	8
481.712	1	12
482.053	1	14
482.393	1	1
482.734	1	0
483.075	1	1
483.415	1	9
483.756	1	16
484.097	1	-6
484.437	1	-6
484.778	1	12
485.119	1	-4
485.459	1	9
485.800	1	-3
486.141	1	-6
486.481	1	6
486.822	1	11
487.163	1	0
487.503	1	-5
487.844	1	-2
488.185	1	1
488.525	1	-2
488.866	1	13
489.207	1	11
489.547	1	-1
489.888	1	-6
490.228	1	-3
490.569	1	8
490.910	1	-6
491.250	1	8
491.591	1	-6
491.932	1	10
492.272	1	4
492.613	1	6
492.953	1	12
493.294	1	6
493.635	1	5
493.975	1	3
494.316	1	17
494.656	1	-8
494.997	1	7
495.337	1	9
495.678	1	8
496.019	1	-11
496.359	1	4
496.700	1	9
497.040	1	3
497.381	1	-12
497.721	1	1
498.062	1	2
498.403	1	12
498.743	1	5
499.084	1	-16
499.424	1	3
499.765	1	5
500.105	1	10
500.446	1	15
500.786	1	9
501.127	1	10
501.467	1	8
501.808	1	-1
502.148	1	13
502.489	1	5
502.829	1	6
503.170	1	1
503.510	1	4
503.851	1	-5
504.191	1	8
504.532	1	3
504.872	1	4
505.213	1	7
505.553	1	14
505.894	1	3
506.234	1	8
506.575	1	9
506.915	1	8
507.256	1	0
507.596	1	10
507.936	1	7
508.277	1	1
508.617	1	10
508.958	1	3
509.298	1	13
509.639	1	9
509.979	1	15
510.319	1	-4
510.660	1	5
511.000	1	12
511.341	1	-7
511.681	1	3
512.022	1	2
512.362	1	6
512.702	1	-4
513.043	1	13
513.383	1	0
513.724	1	11
514.064	1	15
514.404	1	3
514.745	1	4
515.085	1	2
515.425	1	-3
515.766	1	11
516.106	1	3
516.447	1	10
516.787	1	-6
517.127	1	-8
517.468	1	10
517.808	1	9
518.148	1	9
518.489	1	2
518.829	1	-3
519.169	1	12
519.510	1	9
519.850	1	-3
520.190	1	8
520.531	1	11
520.871	1	4
521.211	1	17
521.552	1	7
521.892	1	-4
522.232	1	2
522.573	1	6
522.913	1	8
523.253	1	2
523.593	1	-8
523.934	1	14
524.274	1	-5
524.614	1	7
524.955	1	1
525.295	1	4
525.635	1	13
525.975	1	-2
526.316	1	12
526.656	1	22
526.996	1	12
527.337	1	-6
527.677	1	17
528.017	1	3
528.357	1	4
528.698	1	0
529.038	1	11
529.378	1	11
529.718	1	5
530.058	1	1
530.399	1	14
530.739	1	5
531.079	1	13
531.419	1	19
531.760	1	11
532.100	1	9
532.440	1	5
532.780	1	11
533.120	1	-1
533.461	1	18
533.801	1	13
534.141	1	12
534.481	1	1
534.821	1	4
535.162	1	12
535.502	1	7
535.842	1	13
536.182	1	8
536.522	1	10
536.862	1	7
537.203	1	18
537.543	1	1
537.883	1	10
538.223	1	14
538.563	1	12
538.903	1	3
539.243	1	1
539.584	1	2
539.924	1	3
540.264	1	15
540.604	1	10
540.944	1	3
541.284	1	-3
541.624	1	7
541.964	1	18
542.305	1	3
542.645	1	12
542.985	1	1
543.325	1	-2
543.665	1	17
544.005	1	4
544.345	1	0
544.685	1	-1
545.025	1	3
545.365	1	-1
545.705	1	12
546.045	1	15
546.386	1	9
546.726	1	1
547.066	1	-10
547.406	1	13
547.746	1	10
548.086	1	14
548.426	1	2
548.766	1	15
549.106	1	14
549.446	1	10
549.786	1	6
550.126	1	6
550.466	1	-2
550.806	1	14
551.146	1	4
551.486	1	19
551.826	1	7
552.166	1	1
552.506	1	0
552.846	1	11
553.186	1	11
553.526	1	1
553.866	1	5
554.206	1	8
554.546	1	0
554.886	1	8
555.226	1	-1
555.566	1	8
555.906	1	1
556.246	1	6
556.586	1	6
556.926	1	15
557.266	1	7
557.606	1	-4
557.946	1	4
558.286	1	10
558.626	1	4
558.966	1	-1
559.306	1	5
559.646	1	2
559.986	1	-3
560.325	1	-5
560.665	1	4
561.005	1	10
561.345	1	1
561.685	1	5
562.025	1	1
562.365	1	2
562.705	1	22
563.045	1	15
563.385	1	-3
563.725	1	0
564.064	1	4
564.404	1	-5
564.744	1	9
565.084	1	3
565.424	1	3
565.764	1	9
566.104	1	3
566.444	1	13
566.783	1	12
567.123	1	19
567.463	1	-3
567.803	1	-1
568.143	1	-1
568.483	1	-2
568.823	1	6
569.162	1	12
569.502	1	2
569.842	1	8
570.182	1	-1
570.522	1	22
570.862	1	-1
571.201	1	10
571.541	1	-3
571.881	1	12
572.221	1	9
572.561	1	-8
572.900	1	16
573.240	1	3
573.580	1	2
573.920	1	4
574.260	1	-3
574.599	1	8
574.939	1	5
575.279	1	6
575.619	1	9
575.959	1	0
576.298	1	3
576.638	1	-6
576.978	1	2
577.318	1	5
577.657	1	-8
577.997	1	-8
578.337	1	-3
578.677	1	2
579.016	1	10
579.356	1	1
579.696	1	6
580.036	1	3
580.375	1	8
580.715	1	6
581.055	1	12
581.394	1	1
581.734	1	14
582.074	1	4
582.414	1	0
582.753	1	5
583.093	1	0
583.433	1	-7
583.772	1	2
584.112	1	1
584.452	1	-10
584.791	1	11
585.131	1	-5
585.471	1	12
585.811	1	3
586.150	1	14
586.490	1	-5
586.830	1	-4
587.169	1	6
587.509	1	6
587.849	1	6
588.188	1	7
588.528	1	0
588.867	1	11
589.207	1	-11
589.547	1	4
589.886	1	-6
590.226	1	4
590.566	1	8
590.905	1	4
591.245	1	7
591.585	1	-4
591.924	1	4
592.264	1	-4
592.603	1	-1
592.943	1	2
593.283	1	11
593.622	1	-7
593.962	1	6
594.301	1	5
594.641	1	-5
594.981	1	-1
595.320	1	4
595.660	1	-1
595.999	1	0
596.339	1	13
596.678	1	0
597.018	1	4
597.358	1	4
597.697	1	1
598.037	1	8
598.376	1	14
598.716	1	-4
599.055	1	5
599.395	1	10
599.734	1	-4
600.074	1	-6
600.413	1	2
600.753	1	11
601.092	1	-2
601.432	1	5
601.771	1	5
602.111	1	-2
602.451	1	5
602.790	1	0
603.130	1	4
603.469	1	2
603.809	1	6
604.148	1	5
604.487	1	3
604.827	1	-10
605.166	1	-3
605.506	1	3
605.845	1	-2
606.185	1	6
606.524	1	-2
606.864	1	-2
607.203	1	15
607.543	1	-11
607.882	1	-8
608.222	1	9
608.561	1	14
608.901	1	0
609.240	1	7
609.579	1	5
609.919	1	-13
610.258	1	9
610.598	1	5
610.937	1	8
611.277	1	11
611.616	1	-5
611.955	1	3
612.295	1	-2
612.634	1	2
612.974	1	6
613.313	1	0
613.652	1	-1
613.992	1	3
614.331	1	3
614.671	1	8
615.010	1	3
615.349	1	3
615.689	1	3
616.028	1	1
616.368	1	4
616.707	1	2
617.046	1	0
617.386	1	-9
617.725	1	-7
618.064	1	4
618.404	1	6
618.743	1	1
619.082	1	3
619.422	1	-8
619.761	1	4
620.100	1	6
620.440	1	6
620.779	1	-3
621.118	1	0
621.458	1	4
621.797	1	-4
622.136	1	14
622.476	1	5
622.815	1	0
623.154	1	9
623.494	1	4
623.833	1	-1
624.172	1	12
624.511	1	1
624.851	1	-4
625.190	1	-5
625.529	1	7
625.869	1	-1
626.208	1	1
626.547	1	-2
626.886	1	-5
627.226	1	2
627.565	1	5
627.904	1	5
628.243	1	-1
628.583	1	6
628.922	1	-5
629.261	1	5
629.600	1	10
629.940	1	6
630.279	1	0
630.618	1	5
630.957	1	-7
631.297	1	0
631.636	1	-3
631.975	1	4
632.314	1	13
632.653	1	-9
632.993	1	6
633.332	1	10
633.671	1	6
634.010	1	2
634.349	1	10
634.689	1	13
635.028	1	3
635.367	1	0
635.706	1	-4
636.045	1	5
636.384	1	5
636.724	1	6
637.063	1	-6
637.402	1	4
637.741	1	16
638.080	1	7
638.419	1	5
638.759	1	6
639.098	1	2
639.437	1	0
639.776	1	4
640.115	1	-2
640.454	1	18
640.793	1	10
641.132	1	14
641.472	1	-5
641.811	1	3
642.150	1	-6
642.489	1	-3
642.828	1	7
643.167	1	11
643.506	1	-3
643.845	1	2
644.184	1	13
644.524	1	1
644.863	1	-4
645.202	1	-3
645.541	1	-3
645.880	1	5
646.219	1	0
646.558	1	4
646.897	1	0
647.236	1	0
647.575	1	10
647.914	1	-6
648.253	1	5
648.592	1	-2
648.931	1	8
649.270	1	8
649.610	1	20
649.949	1	-7
650.288	1	-3
650.627	1	4
650.966	1	1
651.305	1	-3
651.644	1	-1
651.983	1	1
652.322	1	1
652.661	1	0
653.000	1	-2
653.339	1	13
653.678	1	-4
654.017	1	3
654.356	1	8
654.695	1	5
655.034	1	4
655.373	1	2
655.712	1	-5
656.051	1	9
656.390	1	8
656.729	1	8
657.068	1	-5
657.406	1	9
657.745	1	-6
658.084	1	9
658.423	1	-8
658.762	1	-1
659.101	1	7
659.440	1	13
659.779	1	8
660.118	1	9
660.457	1	-3
660.796	1	-8
661.135	1	6
661.474	1	-4
661.813	1	7
662.152	1	5
662.491	1	11
662.829	1	-2
663.168	1	-5
663.507	1	1
663.846	1	12
664.185	1	-10
664.524	1	-9
664.863	1	4
665.202	1	3
665.541	1	3
665.879	1	7
666.218	1	-2
666.557	1	11
666.896	1	-2
667.235	1	6
667.574	1	-3
667.913	1	-4
668.251	1	8
668.590	1	1
668.929	1	10
669.268	1	2
669.607	1	-8
669.946	1	5
670.285	1	10
670.623	1	2
670.962	1	-1
671.301	1	2
671.640	1	-9
671.979	1	9
672.317	1	-4
672.656	1	9
672.995	1	-2
673.334	1	3
673.673	1	21
674.011	1	1
674.350	1	2
674.689	1	6
675.028	1	-2
675.367	1	2
675.705	1	-6
676.044	1	4
676.383	1	-1
676.722	1	1
677.060	1	12
677.399	1	0
677.738	1	-9
678.077	1	9
678.416	1	3
678.754	1	1
679.093	1	7
679.432	1	2
679.771	1	8
680.109	1	6
680.448	1	6
680.787	1	2
681.125	1	15
681.464	1	-5
681.803	1	-9
682.142	1	9
682.480	1	-2
682.819	1	2
683.158	1	-8
683.496	1	-7
683.835	1	-4
684.174	1	3
684.512	1	4
684.851	1	9
685.190	1	10
685.529	1	-1
685.867	1	-6
686.206	1	1
686.545	1	8
686.883	1	-4
687.222	1	5
687.561	1	7
687.899	1	2
688.238	1	2
688.577	1	3
688.746	1	1