File: Analysis/GaN_68K_200ms/GaN_sample E_spot4_UVVIS_68 K_200um_200 ms 2x2mm1_36.txt
340.368	1	-3
340.710	1	-8
341.052	1	6
341.394	1	2
341.737	1	4
342.079	1	-4
342.421	1	-3
342.763	1	-9
343.105	1	6
343.447	1	11
343.789	1	-3
344.131	1	0
344.473	1	-2
344.815	1	2
345.157	1	0
345.499	1	0
345.841	1	7
346.183	1	6
346.526	1	-3
346.868	1	2
347.210	1	3
347.552	1	4
347.894	1	-4
348.236	1	5
348.578	1	11
348.920	1	13
349.262	1	-8
349.604	1	2
349.946	1	2
350.288	1	1
350.630	1	-9
350.972	1	1
351.314	1	-1
351.656	1	3
351.998	1	-1
352.340	1	-4
352.682	1	-2
353.024	1	-4
353.366	1	17
353.708	1	6
354.050	1	9
354.392	1	6
354.734	1	4
355.076	1	4
355.418	1	-11
355.760	1	6
356.102	1	0
356.444	1	11
356.785	1	4
357.127	1	-2
357.469	1	-3
357.811	1	13
358.153	1	4
358.495	1	10
358.837	1	7
359.179	1	11
359.521	1	5
359.863	1	0
360.205	1	0
360.547	1	2
360.889	1	9
361.231	1	2
361.572	1	0
361.914	1	0
362.256	1	7
362.598	1	6
362.940	1	-2
363.282	1	12
363.624	1	7
363.966	1	0
364.308	1	-1
364.649	1	4
364.991	1	5
365.333	1	9
365.675	1	4
366.017	1	6
366.359	1	0
366.701	1	-3
367.042	1	11
367.384	1	8
367.726	1	8
368.068	1	6
368.410	1	4
368.752	1	-1
369.093	1	0
369.435	1	-6
369.777	1	-2
370.119	1	6
370.461	1	0
370.803	1	-13
371.144	1	7
371.486	1	13
371.828	1	-6
372.170	1	6
372.512	1	-6
372.853	1	4
373.195	1	-9
373.537	1	4
373.879	1	11
374.220	1	8
374.562	1	3
374.904	1	5
375.246	1	8
375.588	1	6
375.929	1	1
376.271	1	2
376.613	1	-1
376.955	1	-4
377.296	1	13
377.638	1	-3
377.980	1	7
378.321	1	10
378.663	1	-2
379.005	1	6
379.347	1	3
379.688	1	-5
380.030	1	1
380.372	1	-3
380.714	1	1
381.055	1	4
381.397	1	1
381.739	1	9
382.080	1	-19
382.422	1	4
382.764	1	-3
383.105	1	-6
383.447	1	14
383.789	1	6
384.130	1	-9
384.472	1	-9
384.814	1	1
385.156	1	6
385.497	1	5
385.839	1	3
386.180	1	8
386.522	1	9
386.864	1	-6
387.205	1	-12
387.547	1	-2
387.889	1	5
388.230	1	1
388.572	1	-5
388.914	1	7
389.255	1	13
389.597	1	-3
389.939	1	8
390.280	1	8
390.622	1	-10
390.963	1	9
391.305	1	5
391.647	1	9
391.988	1	-10
392.330	1	10
392.671	1	7
393.013	1	5
393.355	1	3
393.696	1	5
394.038	1	3
394.379	1	-3
394.721	1	-4
395.062	1	-14
395.404	1	13
395.746	1	-12
396.087	1	2
396.429	1	-4
396.770	1	7
397.112	1	-7
397.453	1	-10
397.795	1	6
398.136	1	5
398.478	1	1
398.819	1	5
399.161	1	4
399.503	1	-1
399.844	1	-6
400.186	1	4
400.527	1	3
400.869	1	11
401.210	1	-5
401.552	1	5
401.893	1	1
402.235	1	5
402.576	1	13
402.918	1	-3
403.259	1	-3
403.601	1	-3
403.942	1	6
404.284	1	0
404.625	1	7
404.967	1	-1
405.308	1	-4
405.649	1	3
405.991	1	5
406.332	1	-1
406.674	1	-12
407.015	1	-4
407.357	1	6
407.698	1	-10
408.040	1	-1
408.381	1	1
408.722	1	-7
409.064	1	-5
409.405	1	8
409.747	1	-2
410.088	1	-3
410.430	1	7
410.771	1	11
411.112	1	2
411.454	1	11
411.795	1	-4
412.137	1	0
412.478	1	10
412.819	1	-2
413.161	1	1
413.502	1	2
413.844	1	-4
414.185	1	8
414.526	1	0
414.868	1	12
415.209	1	-4
415.550	1	-4
415.892	1	-9
416.233	1	-3
416.575	1	-5
416.916	1	-4
417.257	1	8
417.599	1	10
417.940	1	0
418.281	1	6
418.623	1	-3
418.964	1	1
419.305	1	3
419.647	1	-3
419.988	1	-1
420.329	1	1
420.671	1	3
421.012	1	13
421.353	1	3
421.695	1	3
422.036	1	-5
422.377	1	0
422.718	1	-4
423.060	1	-2
423.401	1	3
423.742	1	3
424.084	1	5
424.425	1	0
424.766	1	2
425.107	1	7
425.449	1	-5
425.790	1	-1
426.131	1	-2
426.472	1	-2
426.814	1	0
427.155	1	2
427.496	1	8
427.837	1	-6
428.179	1	-13
428.520	1	-4
428.861	1	-2
429.202	1	2
429.544	1	6
429.885	1	-6
430.226	1	-1
430.567	1	2
430.909	1	-7
431.250	1	-8
431.591	1	4
431.932	1	11
432.273	1	0
432.615	1	3
432.956	1	-7
433.297	1	10
433.638	1	2
433.979	1	-3
434.320	1	4
434.662	1	-5
435.003	1	-1
435.344	1	6
435.685	1	1
436.026	1	5
436.368	1	2
436.709	1	-6
437.050	1	5
437.391	1	2
437.732	1	1
438.073	1	7
438.414	1	-4
438.756	1	5
439.097	1	6
439.438	1	6
439.779	1	3
440.120	1	2
440.461	1	-6
440.802	1	12
441.143	1	14
441.485	1	1
441.826	1	-6
442.167	1	-3
442.508	1	1
442.849	1	8
443.190	1	-2
443.531	1	-7
443.872	1	5
444.213	1	0
444.554	1	-1
444.895	1	-3
445.237	1	1
445.578	1	9
445.919	1	0
446.260	1	16
446.601	1	-1
446.942	1	9
447.283	1	-4
447.624	1	-1
447.965	1	0
448.306	1	5
448.647	1	13
448.988	1	-8
449.329	1	0
449.670	1	6
450.011	1	13
450.352	1	-1
450.693	1	11
451.034	1	3
451.375	1	9
451.716	1	8
452.057	1	16
452.398	1	-2
452.739	1	11
453.080	1	0
453.421	1	6
453.762	1	11
454.103	1	1
454.444	1	17
454.785	1	2
455.126	1	-1
455.467	1	7
455.808	1	0
456.149	1	-11
456.490	1	4
456.831	1	10
457.172	1	-10
457.513	1	15
457.854	1	0
458.195	1	-4
458.536	1	3
458.877	1	8
459.218	1	6
459.559	1	-1
459.899	1	6
460.240	1	5
460.581	1	14
460.922	1	1
461.263	1	12
461.604	1	3
461.945	1	10
462.286	1	6
462.627	1	3
462.968	1	-11
463.309	1	0
463.649	1	0
463.990	1	2
464.331	1	6
464.672	1	4
465.013	1	-13
465.354	1	4
465.695	1	6
466.036	1	1
466.376	1	-2
466.717	1	0
467.058	1	10
467.399	1	4
467.740	1	-1
468.081	1	0
468.422	1	13
468.762	1	-4
469.103	1	-7
469.444	1	2
469.785	1	8
470.126	1	1
470.467	1	1
470.807	1	-7
471.148	1	-6
471.489	1	2
471.830	1	11
472.171	1	4
472.511	1	1
472.852	1	-4
473.193	1	-7
473.534	1	0
473.875	1	0
474.215	1	-1
474.556	1	-4
474.897	1	4
475.238	1	3
475.578	1	3
475.919	1	0
476.260	1	-3
476.601	1	-2
476.942	1	-2
477.282	1	-10
477.623	1	6
477.964	1	8
478.305	1	-4
478.645	1	-6
478.986	1	-1
479.327	1	-13
479.667	1	-10
480.008	1	0
480.349	1	2
480.690	1	4
481.030	1	-5
481.371	1	1
481.712	1	-1
482.053	1	7
482.393	1	-5
482.734	1	1
483.075	1	11
483.415	1	6
483.756	1	9
484.097	1	-2
484.437	1	-11
484.778	1	0
485.119	1	4
485.459	1	3
485.800	1	-1
486.141	1	-8
486.481	1	6
486.822	1	8
487.163	1	-2
487.503	1	-6
487.844	1	-4
488.185	1	-4
488.525	1	0
488.866	1	8
489.207	1	12
489.547	1	-1
489.888	1	7
490.228	1	-5
490.569	1	9
490.910	1	0
491.250	1	1
491.591	1	-5
491.932	1	15
492.272	1	8
492.613	1	4
492.953	1	6
493.294	1	11
493.635	1	1
493.975	1	10
494.316	1	15
494.656	1	-2
494.997	1	-6
495.337	1	7
495.678	1	11
496.019	1	6
496.359	1	-2
496.700	1	10
497.040	1	-4
497.381	1	-17
497.721	1	-6
498.062	1	-1
498.403	1	7
498.743	1	1
499.084	1	-5
499.424	1	10
499.765	1	-5
500.105	1	6
500.446	1	5
500.786	1	-2
501.127	1	11
501.467	1	7
501.808	1	-13
502.148	1	8
502.489	1	1
502.829	1	-4
503.170	1	-4
503.510	1	9
503.851	1	1
504.191	1	-5
504.532	1	-16
504.872	1	-5
505.213	1	-5
505.553	1	5
505.894	1	5
506.234	1	5
506.575	1	-2
506.915	1	0
507.256	1	5
507.596	1	7
507.936	1	2
508.277	1	-5
508.617	1	13
508.958	1	12
509.298	1	15
509.639	1	8
509.979	1	-4
510.319	1	2
510.660	1	1
511.000	1	18
511.341	1	-4
511.681	1	-7
512.022	1	-7
512.362	1	8
512.702	1	-5
513.043	1	0
513.383	1	-6
513.724	1	2
514.064	1	3
514.404	1	4
514.745	1	3
515.085	1	1
515.425	1	-2
515.766	1	0
516.106	1	-1
516.447	1	5
516.787	1	-1
517.127	1	-5
517.468	1	-3
517.808	1	-3
518.148	1	2
518.489	1	-3
518.829	1	-8
519.169	1	16
519.510	1	-2
519.850	1	-6
520.190	1	-8
520.531	1	2
520.871	1	-8
521.211	1	2
521.552	1	0
521.892	1	-10
522.232	1	-9
522.573	1	3
522.913	1	7
523.253	1	-2
523.593	1	-6
523.934	1	3
524.274	1	-5
524.614	1	1
524.955	1	0
525.295	1	-9
525.635	1	13
525.975	1	-1
526.316	1	-9
526.656	1	13
526.996	1	11
527.337	1	-4
527.677	1	9
528.017	1	-4
528.357	1	1
528.698	1	6
529.038	1	-8
529.378	1	0
529.718	1	5
530.058	1	0
530.399	1	15
530.739	1	-6
531.079	1	15
531.419	1	-1
531.760	1	12
532.100	1	3
532.440	1	-4
532.780	1	-10
533.120	1	-4
533.461	1	17
533.801	1	-5
534.141	1	7
534.481	1	-5
534.821	1	6
535.162	1	4
535.502	1	2
535.842	1	5
536.182	1	-3
536.522	1	1
536.862	1	6
537.203	1	8
537.543	1	2
537.883	1	3
538.223	1	6
538.563	1	3
538.903	1	4
539.243	1	1
539.584	1	5
539.924	1	7
540.264	1	10
540.604	1	6
540.944	1	-1
541.284	1	5
541.624	1	9
541.964	1	3
542.305	1	-4
542.645	1	0
542.985	1	-1
543.325	1	-4
543.665	1	20
544.005	1	-5
544.345	1	-3
544.685	1	0
545.025	1	-7
545.365	1	2
545.705	1	13
546.045	1	12
546.386	1	5
546.726	1	-3
547.066	1	-6
547.406	1	10
547.746	1	5
548.086	1	-3
548.426	1	3
548.766	1	3
549.106	1	1
549.446	1	-7
549.786	1	1
550.126	1	0
550.466	1	0
550.806	1	4
551.146	1	4
551.486	1	10
551.826	1	5
552.166	1	8
552.506	1	-1
552.846	1	1
553.186	1	2
553.526	1	-7
553.866	1	4
554.206	1	7
554.546	1	-12
554.886	1	6
555.226	1	-9
555.566	1	0
555.906	1	3
556.246	1	3
556.586	1	6
556.926	1	-7
557.266	1	8
557.606	1	-10
557.946	1	8
558.286	1	6
558.626	1	2
558.966	1	4
559.306	1	-7
559.646	1	-10
559.986	1	-1
560.325	1	-9
560.665	1	2
561.005	1	3
561.345	1	-2
561.685	1	4
562.025	1	-1
562.365	1	0
562.705	1	7
563.045	1	8
563.385	1	-8
563.725	1	4
564.064	1	10
564.404	1	1
564.744	1	2
565.084	1	3
565.424	1	-4
565.764	1	2
566.104	1	-5
566.444	1	18
566.783	1	0
567.123	1	12
567.463	1	-3
567.803	1	0
568.143	1	-9
568.483	1	-3
568.823	1	13
569.162	1	2
569.502	1	4
569.842	1	-2
570.182	1	4
570.522	1	6
570.862	1	1
571.201	1	7
571.541	1	-8
571.881	1	0
572.221	1	3
572.561	1	-4
572.900	1	12
573.240	1	-3
573.580	1	3
573.920	1	-2
574.260	1	-6
574.599	1	-7
574.939	1	-3
575.279	1	9
575.619	1	14
575.959	1	-3
576.298	1	-5
576.638	1	-2
576.978	1	0
577.318	1	8
577.657	1	-20
577.997	1	-8
578.337	1	-3
578.677	1	-1
579.016	1	20
579.356	1	-3
579.696	1	7
580.036	1	-4
580.375	1	3
580.715	1	8
581.055	1	12
581.394	1	-7
581.734	1	7
582.074	1	-7
582.414	1	7
582.753	1	1
583.093	1	-8
583.433	1	-7
583.772	1	7
584.112	1	4
584.452	1	4
584.791	1	-3
585.131	1	-2
585.471	1	3
585.811	1	1
586.150	1	6
586.490	1	-2
586.830	1	-11
587.169	1	-5
587.509	1	6
587.849	1	4
588.188	1	-2
588.528	1	3
588.867	1	2
589.207	1	-3
589.547	1	0
589.886	1	1
590.226	1	7
590.566	1	-7
590.905	1	8
591.245	1	0
591.585	1	-2
591.924	1	2
592.264	1	-4
592.603	1	-5
592.943	1	0
593.283	1	1
593.622	1	-1
593.962	1	12
594.301	1	0
594.641	1	-1
594.981	1	-4
595.320	1	8
595.660	1	-1
595.999	1	7
596.339	1	7
596.678	1	3
597.018	1	1
597.358	1	3
597.697	1	0
598.037	1	-1
598.376	1	7
598.716	1	-3
599.055	1	3
599.395	1	7
599.734	1	-4
600.074	1	-6
600.413	1	11
600.753	1	6
601.092	1	-13
601.432	1	-2
601.771	1	11
602.111	1	-3
602.451	1	-1
602.790	1	4
603.130	1	-1
603.469	1	-3
603.809	1	11
604.148	1	3
604.487	1	4
604.827	1	-3
605.166	1	1
605.506	1	10
605.845	1	6
606.185	1	-3
606.524	1	4
606.864	1	-3
607.203	1	11
607.543	1	-8
607.882	1	-7
608.222	1	7
608.561	1	5
608.901	1	9
609.240	1	11
609.579	1	-4
609.919	1	-3
610.258	1	7
610.598	1	-2
610.937	1	4
611.277	1	8
611.616	1	-7
611.955	1	6
612.295	1	-4
612.634	1	8
612.974	1	4
613.313	1	2
613.652	1	6
613.992	1	6
614.331	1	3
614.671	1	3
615.010	1	-2
615.349	1	-3
615.689	1	-4
616.028	1	0
616.368	1	0
616.707	1	4
617.046	1	10
617.386	1	3
617.725	1	3
618.064	1	12
618.404	1	19
618.743	1	-6
619.082	1	3
619.422	1	-5
619.761	1	-2
620.100	1	1
620.440	1	-2
620.779	1	4
621.118	1	8
621.458	1	9
621.797	1	-1
622.136	1	4
622.476	1	2
622.815	1	-1
623.154	1	11
623.494	1	6
623.833	1	2
624.172	1	9
624.511	1	-5
624.851	1	-1
625.190	1	-4
625.529	1	7
625.869	1	1
626.208	1	-2
626.547	1	0
626.886	1	-8
627.226	1	-1
627.565	1	13
627.904	1	-2
628.243	1	-4
628.583	1	5
628.922	1	-2
629.261	1	10
629.600	1	4
629.940	1	0
630.279	1	-6
630.618	1	5
630.957	1	-2
631.297	1	0
631.636	1	2
631.975	1	4
632.314	1	11
632.653	1	-2
632.993	1	-7
633.332	1	13
633.671	1	0
634.010	1	-1
634.349	1	-2
634.689	1	5
635.028	1	1
635.367	1	3
635.706	1	-2
636.045	1	2
636.384	1	10
636.724	1	1
637.063	1	4
637.402	1	5
637.741	1	10
638.080	1	6
638.419	1	10
638.759	1	0
639.098	1	-2
639.437	1	-14
639.776	1	-4
640.115	1	5
640.454	1	16
640.793	1	22
641.132	1	11
641.472	1	-9
641.811	1	1
642.150	1	4
642.489	1	1
642.828	1	-1
643.167	1	11
643.506	1	2
643.845	1	4
644.184	1	11
644.524	1	-6
644.863	1	-8
645.202	1	-1
645.541	1	-4
645.880	1	1
646.219	1	-2
646.558	1	-6
646.897	1	3
647.236	1	0
647.575	1	4
647.914	1	-8
648.253	1	12
648.592	1	-7
648.931	1	-1
649.270	1	9
649.610	1	12
649.949	1	-1
650.288	1	-11
650.627	1	-3
650.966	1	-2
651.305	1	-7
651.644	1	3
651.983	1	1
652.322	1	4
652.661	1	7
653.000	1	-4
653.339	1	11
653.678	1	-4
654.017	1	-3
654.356	1	15
654.695	1	8
655.034	1	-1
655.373	1	3
655.712	1	-13
656.051	1	6
656.390	1	7
656.729	1	9
657.068	1	-5
657.406	1	4
657.745	1	8
658.084	1	7
658.423	1	0
658.762	1	-4
659.101	1	5
659.440	1	9
659.779	1	4
660.118	1	13
660.457	1	-3
660.796	1	-2
661.135	1	0
661.474	1	5
661.813	1	4
662.152	1	2
662.491	1	3
662.829	1	-3
663.168	1	-4
663.507	1	-6
663.846	1	15
664.185	1	0
664.524	1	2
664.863	1	3
665.202	1	-11
665.541	1	-11
665.879	1	-7
666.218	1	-15
666.557	1	4
666.896	1	-4
667.235	1	6
667.574	1	16
667.913	1	-3
668.251	1	-1
668.590	1	-3
668.929	1	13
669.268	1	0
669.607	1	-9
669.946	1	7
670.285	1	11
670.623	1	14
670.962	1	-5
671.301	1	-8
671.640	1	-10
671.979	1	12
672.317	1	-8
672.656	1	5
672.995	1	-2
673.334	1	8
673.673	1	19
674.011	1	-5
674.350	1	0
674.689	1	-7
675.028	1	5
675.367	1	4
675.705	1	7
676.044	1	-7
676.383	1	-1
676.722	1	-3
677.060	1	-3
677.399	1	-2
677.738	1	-4
678.077	1	6
678.416	1	5
678.754	1	-5
679.093	1	2
679.432	1	-4
679.771	1	4
680.109	1	13
680.448	1	-3
680.787	1	-1
681.125	1	4
681.464	1	0
681.803	1	-18
682.142	1	15
682.480	1	-3
682.819	1	-6
683.158	1	6
683.496	1	-9
683.835	1	-3
684.174	1	2
684.512	1	-10
684.851	1	1
685.190	1	7
685.529	1	2
685.867	1	9
686.206	1	4
686.545	1	5
686.883	1	-2
687.222	1	-5
687.561	1	11
687.899	1	2
688.238	1	-1
688.577	1	-5
688.746	1	7