File: Analysis/GaN_68K_200ms/GaN_sample E_spot4_UVVIS_68 K_200um_200 ms 2x2mm1_571.txt
340.368	1	7
340.710	1	-3
341.052	1	-1
341.394	1	1
341.737	1	2
342.079	1	-6
342.421	1	-16
342.763	1	-3
343.105	1	2
343.447	1	5
343.789	1	-1
344.131	1	-1
344.473	1	-5
344.815	1	7
345.157	1	4
345.499	1	6
345.841	1	4
346.183	1	1
346.526	1	12
346.868	1	3
347.210	1	-3
347.552	1	3
347.894	1	-1
348.236	1	-1
348.578	1	3
348.920	1	3
349.262	1	-3
349.604	1	12
349.946	1	7
350.288	1	-4
350.630	1	5
350.972	1	-2
351.314	1	-12
351.656	1	8
351.998	1	-6
352.340	1	-2
352.682	1	-5
353.024	1	-14
353.366	1	5
353.708	1	6
354.050	1	6
354.392	1	6
354.734	1	-8
355.076	1	3
355.418	1	-7
355.760	1	5
356.102	1	-8
356.444	1	2
356.785	1	10
357.127	1	-1
357.469	1	3
357.811	1	15
358.153	1	-2
358.495	1	7
358.837	1	-8
359.179	1	11
359.521	1	-6
359.863	1	-1
360.205	1	-9
360.547	1	1
360.889	1	-5
361.231	1	12
361.572	1	-5
361.914	1	5
362.256	1	-4
362.598	1	-3
362.940	1	-2
363.282	1	1
363.624	1	3
363.966	1	2
364.308	1	6
364.649	1	-5
364.991	1	-2
365.333	1	-1
365.675	1	-6
366.017	1	7
366.359	1	6
366.701	1	-2
367.042	1	9
367.384	1	13
367.726	1	6
368.068	1	3
368.410	1	2
368.752	1	-5
369.093	1	3
369.435	1	4
369.777	1	1
370.119	1	7
370.461	1	3
370.803	1	-8
371.144	1	5
371.486	1	17
371.828	1	10
372.170	1	10
372.512	1	-5
372.853	1	1
373.195	1	-7
373.537	1	-1
373.879	1	8
374.220	1	-3
374.562	1	8
374.904	1	9
375.246	1	2
375.588	1	6
375.929	1	-2
376.271	1	2
376.613	1	5
376.955	1	0
377.296	1	3
377.638	1	-7
377.980	1	7
378.321	1	6
378.663	1	-1
379.005	1	5
379.347	1	9
379.688	1	-7
380.030	1	0
380.372	1	-10
380.714	1	5
381.055	1	4
381.397	1	-1
381.739	1	7
382.080	1	-9
382.422	1	3
382.764	1	-12
383.105	1	8
383.447	1	5
383.789	1	5
384.130	1	3
384.472	1	-11
384.814	1	0
385.156	1	10
385.497	1	8
385.839	1	-1
386.180	1	4
386.522	1	11
386.864	1	0
387.205	1	3
387.547	1	0
387.889	1	3
388.230	1	4
388.572	1	5
388.914	1	18
389.255	1	4
389.597	1	0
389.939	1	3
390.280	1	7
390.622	1	-1
390.963	1	11
391.305	1	12
391.647	1	4
391.988	1	1
392.330	1	4
392.671	1	8
393.013	1	2
393.355	1	11
393.696	1	-1
394.038	1	-7
394.379	1	-6
394.721	1	9
395.062	1	-3
395.404	1	4
395.746	1	0
396.087	1	8
396.429	1	-1
396.770	1	5
397.112	1	-1
397.453	1	-6
397.795	1	-1
398.136	1	8
398.478	1	1
398.819	1	11
399.161	1	2
399.503	1	4
399.844	1	-2
400.186	1	7
400.527	1	1
400.869	1	6
401.210	1	-2
401.552	1	18
401.893	1	-1
402.235	1	15
402.576	1	7
402.918	1	0
403.259	1	-7
403.601	1	-7
403.942	1	1
404.284	1	4
404.625	1	4
404.967	1	0
405.308	1	7
405.649	1	0
405.991	1	4
406.332	1	-1
406.674	1	-3
407.015	1	-2
407.357	1	1
407.698	1	-2
408.040	1	-4
408.381	1	2
408.722	1	-4
409.064	1	6
409.405	1	0
409.747	1	-4
410.088	1	2
410.430	1	4
410.771	1	5
411.112	1	6
411.454	1	5
411.795	1	9
412.137	1	10
412.478	1	4
412.819	1	-4
413.161	1	-2
413.502	1	-4
413.844	1	-2
414.185	1	6
414.526	1	12
414.868	1	10
415.209	1	-4
415.550	1	-5
415.892	1	0
416.233	1	-1
416.575	1	1
416.916	1	-6
417.257	1	7
417.599	1	4
417.940	1	-1
418.281	1	-3
418.623	1	-4
418.964	1	4
419.305	1	-1
419.647	1	2
419.988	1	-8
420.329	1	4
420.671	1	3
421.012	1	9
421.353	1	-5
421.695	1	1
422.036	1	-4
422.377	1	1
422.718	1	-1
423.060	1	-2
423.401	1	0
423.742	1	4
424.084	1	1
424.425	1	-2
424.766	1	3
425.107	1	5
425.449	1	-3
425.790	1	3
426.131	1	6
426.472	1	4
426.814	1	7
427.155	1	-2
427.496	1	2
427.837	1	0
428.179	1	-16
428.520	1	-8
428.861	1	0
429.202	1	7
429.544	1	-3
429.885	1	-2
430.226	1	-8
430.567	1	2
430.909	1	-3
431.250	1	-5
431.591	1	-3
431.932	1	0
432.273	1	-2
432.615	1	0
432.956	1	-5
433.297	1	7
433.638	1	1
433.979	1	0
434.320	1	-7
434.662	1	-3
435.003	1	6
435.344	1	4
435.685	1	-3
436.026	1	3
436.368	1	-1
436.709	1	-12
437.050	1	1
437.391	1	11
437.732	1	-10
438.073	1	7
438.414	1	6
438.756	1	7
439.097	1	5
439.438	1	2
439.779	1	-11
440.120	1	4
440.461	1	-2
440.802	1	-2
441.143	1	10
441.485	1	3
441.826	1	3
442.167	1	-3
442.508	1	6
442.849	1	6
443.190	1	-9
443.531	1	-6
443.872	1	6
444.213	1	-7
444.554	1	4
444.895	1	2
445.237	1	-7
445.578	1	5
445.919	1	3
446.260	1	4
446.601	1	-7
446.942	1	1
447.283	1	-2
447.624	1	6
447.965	1	-3
448.306	1	3
448.647	1	8
448.988	1	-16
449.329	1	-1
449.670	1	8
450.011	1	-2
450.352	1	2
450.693	1	4
451.034	1	6
451.375	1	10
451.716	1	-3
452.057	1	4
452.398	1	-4
452.739	1	4
453.080	1	7
453.421	1	-4
453.762	1	5
454.103	1	3
454.444	1	5
454.785	1	-7
455.126	1	-8
455.467	1	0
455.808	1	-7
456.149	1	-7
456.490	1	3
456.831	1	11
457.172	1	-2
457.513	1	2
457.854	1	-1
458.195	1	-7
458.536	1	4
458.877	1	2
459.218	1	9
459.559	1	-1
459.899	1	7
460.240	1	3
460.581	1	5
460.922	1	-2
461.263	1	7
461.604	1	-2
461.945	1	12
462.286	1	5
462.627	1	4
462.968	1	1
463.309	1	-3
463.649	1	6
463.990	1	-3
464.331	1	-1
464.672	1	-2
465.013	1	-5
465.354	1	6
465.695	1	7
466.036	1	2
466.376	1	-10
466.717	1	-6
467.058	1	6
467.399	1	3
467.740	1	7
468.081	1	-5
468.422	1	4
468.762	1	0
469.103	1	4
469.444	1	-7
469.785	1	6
470.126	1	2
470.467	1	-1
470.807	1	0
471.148	1	1
471.489	1	-8
471.830	1	14
472.171	1	4
472.511	1	7
472.852	1	-9
473.193	1	-4
473.534	1	-6
473.875	1	5
474.215	1	-3
474.556	1	-5
474.897	1	2
475.238	1	0
475.578	1	6
475.919	1	1
476.260	1	-5
476.601	1	3
476.942	1	4
477.282	1	-14
477.623	1	9
477.964	1	9
478.305	1	-3
478.645	1	-9
478.986	1	-2
479.327	1	1
479.667	1	1
480.008	1	13
480.349	1	3
480.690	1	4
481.030	1	0
481.371	1	1
481.712	1	-4
482.053	1	7
482.393	1	-14
482.734	1	2
483.075	1	13
483.415	1	0
483.756	1	10
484.097	1	-8
484.437	1	-8
484.778	1	-3
485.119	1	5
485.459	1	15
485.800	1	-7
486.141	1	-11
486.481	1	0
486.822	1	3
487.163	1	-1
487.503	1	-8
487.844	1	2
488.185	1	-13
488.525	1	-5
488.866	1	1
489.207	1	8
489.547	1	-9
489.888	1	-4
490.228	1	-13
490.569	1	7
490.910	1	6
491.250	1	1
491.591	1	-3
491.932	1	4
492.272	1	16
492.613	1	5
492.953	1	-2
493.294	1	1
493.635	1	-8
493.975	1	1
494.316	1	13
494.656	1	-4
494.997	1	-7
495.337	1	5
495.678	1	0
496.019	1	-7
496.359	1	0
496.700	1	-4
497.040	1	-8
497.381	1	-14
497.721	1	3
498.062	1	1
498.403	1	0
498.743	1	2
499.084	1	-8
499.424	1	5
499.765	1	1
500.105	1	3
500.446	1	6
500.786	1	11
501.127	1	12
501.467	1	-1
501.808	1	-9
502.148	1	4
502.489	1	5
502.829	1	0
503.170	1	5
503.510	1	4
503.851	1	-15
504.191	1	-1
504.532	1	-4
504.872	1	4
505.213	1	0
505.553	1	-9
505.894	1	2
506.234	1	11
506.575	1	-4
506.915	1	-1
507.256	1	-3
507.596	1	6
507.936	1	3
508.277	1	4
508.617	1	6
508.958	1	9
509.298	1	12
509.639	1	10
509.979	1	-1
510.319	1	-6
510.660	1	11
511.000	1	8
511.341	1	-7
511.681	1	1
512.022	1	-6
512.362	1	-5
512.702	1	-1
513.043	1	5
513.383	1	-6
513.724	1	10
514.064	1	8
514.404	1	-3
514.745	1	-4
515.085	1	-6
515.425	1	-3
515.766	1	0
516.106	1	1
516.447	1	5
516.787	1	-11
517.127	1	0
517.468	1	4
517.808	1	2
518.148	1	5
518.489	1	-4
518.829	1	-7
519.169	1	12
519.510	1	9
519.850	1	-7
520.190	1	3
520.531	1	-1
520.871	1	-3
521.211	1	8
521.552	1	3
521.892	1	-9
522.232	1	-5
522.573	1	10
522.913	1	9
523.253	1	6
523.593	1	-8
523.934	1	8
524.274	1	-5
524.614	1	6
524.955	1	1
525.295	1	-6
525.635	1	16
525.975	1	-11
526.316	1	-3
526.656	1	19
526.996	1	12
527.337	1	3
527.677	1	13
528.017	1	-7
528.357	1	-1
528.698	1	4
529.038	1	5
529.378	1	6
529.718	1	6
530.058	1	-3
530.399	1	5
530.739	1	-6
531.079	1	6
531.419	1	3
531.760	1	4
532.100	1	13
532.440	1	-4
532.780	1	1
533.120	1	-1
533.461	1	12
533.801	1	2
534.141	1	-4
534.481	1	3
534.821	1	5
535.162	1	3
535.502	1	5
535.842	1	1
536.182	1	5
536.522	1	2
536.862	1	7
537.203	1	10
537.543	1	6
537.883	1	10
538.223	1	8
538.563	1	2
538.903	1	-9
539.243	1	-2
539.584	1	2
539.924	1	-1
540.264	1	9
540.604	1	4
540.944	1	8
541.284	1	-4
541.624	1	5
541.964	1	9
542.305	1	-5
542.645	1	-2
542.985	1	-7
543.325	1	-3
543.665	1	6
544.005	1	0
544.345	1	-10
544.685	1	6
545.025	1	-3
545.365	1	-5
545.705	1	-2
546.045	1	5
546.386	1	3
546.726	1	3
547.066	1	-13
547.406	1	11
547.746	1	10
548.086	1	2
548.426	1	-8
548.766	1	-4
549.106	1	8
549.446	1	6
549.786	1	2
550.126	1	-8
550.466	1	-4
550.806	1	10
551.146	1	2
551.486	1	3
551.826	1	11
552.166	1	1
552.506	1	-7
552.846	1	11
553.186	1	-1
553.526	1	-2
553.866	1	3
554.206	1	-9
554.546	1	-10
554.886	1	11
555.226	1	-13
555.566	1	6
555.906	1	8
556.246	1	-6
556.586	1	19
556.926	1	-3
557.266	1	10
557.606	1	-19
557.946	1	1
558.286	1	8
558.626	1	8
558.966	1	-1
559.306	1	3
559.646	1	-2
559.986	1	-17
560.325	1	-6
560.665	1	12
561.005	1	4
561.345	1	3
561.685	1	2
562.025	1	-5
562.365	1	4
562.705	1	6
563.045	1	8
563.385	1	-5
563.725	1	2
564.064	1	3
564.404	1	0
564.744	1	8
565.084	1	-8
565.424	1	0
565.764	1	13
566.104	1	-4
566.444	1	1
566.783	1	-3
567.123	1	15
567.463	1	3
567.803	1	-9
568.143	1	1
568.483	1	-14
568.823	1	3
569.162	1	-5
569.502	1	4
569.842	1	7
570.182	1	2
570.522	1	14
570.862	1	-1
571.201	1	2
571.541	1	-6
571.881	1	10
572.221	1	3
572.561	1	-8
572.900	1	10
573.240	1	-10
573.580	1	7
573.920	1	-4
574.260	1	-7
574.599	1	-7
574.939	1	4
575.279	1	-3
575.619	1	1
575.959	1	-6
576.298	1	-3
576.638	1	-3
576.978	1	6
577.318	1	10
577.657	1	-10
577.997	1	-7
578.337	1	0
578.677	1	-8
579.016	1	3
579.356	1	0
579.696	1	-5
580.036	1	-9
580.375	1	-2
580.715	1	6
581.055	1	11
581.394	1	1
581.734	1	11
582.074	1	-12
582.414	1	1
582.753	1	10
583.093	1	-15
583.433	1	-6
583.772	1	-2
584.112	1	4
584.452	1	-2
584.791	1	2
585.131	1	-6
585.471	1	-1
585.811	1	-3
586.150	1	-1
586.490	1	-1
586.830	1	-11
587.169	1	-4
587.509	1	1
587.849	1	3
588.188	1	-1
588.528	1	3
588.867	1	6
589.207	1	-14
589.547	1	9
589.886	1	-7
590.226	1	-2
590.566	1	0
590.905	1	-1
591.245	1	-2
591.585	1	-12
591.924	1	-2
592.264	1	-2
592.603	1	-2
592.943	1	-5
593.283	1	12
593.622	1	-3
593.962	1	5
594.301	1	12
594.641	1	2
594.981	1	-4
595.320	1	0
595.660	1	0
595.999	1	2
596.339	1	6
596.678	1	-5
597.018	1	0
597.358	1	12
597.697	1	-1
598.037	1	-7
598.376	1	7
598.716	1	-12
599.055	1	-5
599.395	1	-1
599.734	1	-3
600.074	1	-5
600.413	1	3
600.753	1	5
601.092	1	-18
601.432	1	-5
601.771	1	5
602.111	1	-3
602.451	1	5
602.790	1	-1
603.130	1	6
603.469	1	-6
603.809	1	8
604.148	1	-13
604.487	1	1
604.827	1	-9
605.166	1	2
605.506	1	7
605.845	1	-7
606.185	1	-5
606.524	1	-4
606.864	1	0
607.203	1	7
607.543	1	-12
607.882	1	-8
608.222	1	4
608.561	1	5
608.901	1	5
609.240	1	6
609.579	1	2
609.919	1	-10
610.258	1	7
610.598	1	-4
610.937	1	-4
611.277	1	-2
611.616	1	1
611.955	1	11
612.295	1	-2
612.634	1	2
612.974	1	4
613.313	1	2
613.652	1	-3
613.992	1	-2
614.331	1	5
614.671	1	-2
615.010	1	3
615.349	1	2
615.689	1	5
616.028	1	-3
616.368	1	0
616.707	1	-7
617.046	1	3
617.386	1	-2
617.725	1	7
618.064	1	3
618.404	1	9
618.743	1	-2
619.082	1	2
619.422	1	6
619.761	1	-2
620.100	1	9
620.440	1	9
620.779	1	-5
621.118	1	4
621.458	1	10
621.797	1	1
622.136	1	12
622.476	1	7
622.815	1	0
623.154	1	-1
623.494	1	4
623.833	1	-4
624.172	1	5
624.511	1	-2
624.851	1	-7
625.190	1	4
625.529	1	0
625.869	1	5
626.208	1	3
626.547	1	3
626.886	1	-8
627.226	1	0
627.565	1	9
627.904	1	7
628.243	1	-9
628.583	1	-4
628.922	1	4
629.261	1	1
629.600	1	4
629.940	1	12
630.279	1	-14
630.618	1	1
630.957	1	-6
631.297	1	-4
631.636	1	-4
631.975	1	4
632.314	1	14
632.653	1	-7
632.993	1	6
633.332	1	0
633.671	1	-3
634.010	1	3
634.349	1	2
634.689	1	14
635.028	1	-4
635.367	1	-11
635.706	1	-7
636.045	1	-5
636.384	1	5
636.724	1	-6
637.063	1	8
637.402	1	4
637.741	1	3
638.080	1	0
638.419	1	2
638.759	1	3
639.098	1	5
639.437	1	-9
639.776	1	5
640.115	1	-5
640.454	1	8
640.793	1	9
641.132	1	20
641.472	1	-11
641.811	1	1
642.150	1	-9
642.489	1	-8
642.828	1	0
643.167	1	14
643.506	1	-2
643.845	1	-8
644.184	1	-2
644.524	1	-6
644.863	1	0
645.202	1	11
645.541	1	-7
645.880	1	-3
646.219	1	3
646.558	1	2
646.897	1	-3
647.236	1	0
647.575	1	4
647.914	1	-8
648.253	1	-10
648.592	1	1
648.931	1	7
649.270	1	8
649.610	1	11
649.949	1	4
650.288	1	1
650.627	1	-4
650.966	1	-4
651.305	1	-4
651.644	1	-7
651.983	1	1
652.322	1	4
652.661	1	3
653.000	1	1
653.339	1	12
653.678	1	2
654.017	1	-5
654.356	1	6
654.695	1	3
655.034	1	-4
655.373	1	-4
655.712	1	-10
656.051	1	7
656.390	1	2
656.729	1	-2
657.068	1	-6
657.406	1	9
657.745	1	-1
658.084	1	2
658.423	1	-8
658.762	1	-2
659.101	1	-3
659.440	1	10
659.779	1	2
660.118	1	7
660.457	1	3
660.796	1	7
661.135	1	7
661.474	1	-5
661.813	1	-4
662.152	1	0
662.491	1	-3
662.829	1	1
663.168	1	-1
663.507	1	-2
663.846	1	1
664.185	1	3
664.524	1	-11
664.863	1	-4
665.202	1	-10
665.541	1	-5
665.879	1	2
666.218	1	-13
666.557	1	6
666.896	1	-5
667.235	1	-4
667.574	1	9
667.913	1	0
668.251	1	-2
668.590	1	8
668.929	1	0
669.268	1	3
669.607	1	-9
669.946	1	4
670.285	1	-4
670.623	1	1
670.962	1	-5
671.301	1	-1
671.640	1	-12
671.979	1	17
672.317	1	-4
672.656	1	6
672.995	1	2
673.334	1	3
673.673	1	17
674.011	1	4
674.350	1	2
674.689	1	-6
675.028	1	-2
675.367	1	5
675.705	1	-13
676.044	1	0
676.383	1	3
676.722	1	-3
677.060	1	-3
677.399	1	2
677.738	1	-4
678.077	1	-2
678.416	1	2
678.754	1	-7
679.093	1	0
679.432	1	-9
679.771	1	0
680.109	1	12
680.448	1	2
680.787	1	2
681.125	1	1
681.464	1	6
681.803	1	56
682.142	1	20
682.480	1	-4
682.819	1	-2
683.158	1	4
683.496	1	1
683.835	1	1
684.174	1	2
684.512	1	-2
684.851	1	-1
685.190	1	5
685.529	1	3
685.867	1	5
686.206	1	-1
686.545	1	10
686.883	1	-11
687.222	1	6
687.561	1	3
687.899	1	-4
688.238	1	-5
688.577	1	-9
688.746	1	2