File: Analysis/GaN_68K_200ms/GaN_sample E_spot4_UVVIS_68 K_200um_200 ms 2x2mm1_384.txt
340.368	1	4
340.710	1	-8
341.052	1	0
341.394	1	1
341.737	1	1
342.079	1	-6
342.421	1	0
342.763	1	0
343.105	1	13
343.447	1	6
343.789	1	-2
344.131	1	-2
344.473	1	2
344.815	1	3
345.157	1	-1
345.499	1	-3
345.841	1	6
346.183	1	-8
346.526	1	3
346.868	1	2
347.210	1	-6
347.552	1	0
347.894	1	3
348.236	1	8
348.578	1	2
348.920	1	10
349.262	1	-4
349.604	1	14
349.946	1	2
350.288	1	6
350.630	1	-4
350.972	1	1
351.314	1	4
351.656	1	3
351.998	1	0
352.340	1	4
352.682	1	0
353.024	1	-2
353.366	1	0
353.708	1	11
354.050	1	12
354.392	1	13
354.734	1	5
355.076	1	8
355.418	1	3
355.760	1	-2
356.102	1	2
356.444	1	12
356.785	1	6
357.127	1	5
357.469	1	-3
357.811	1	10
358.153	1	2
358.495	1	13
358.837	1	5
359.179	1	2
359.521	1	6
359.863	1	-2
360.205	1	-3
360.547	1	10
360.889	1	9
361.231	1	0
361.572	1	-6
361.914	1	3
362.256	1	7
362.598	1	4
362.940	1	9
363.282	1	4
363.624	1	6
363.966	1	5
364.308	1	2
364.649	1	6
364.991	1	15
365.333	1	15
365.675	1	-7
366.017	1	7
366.359	1	5
366.701	1	6
367.042	1	13
367.384	1	17
367.726	1	18
368.068	1	-4
368.410	1	3
368.752	1	0
369.093	1	13
369.435	1	4
369.777	1	-2
370.119	1	-1
370.461	1	3
370.803	1	5
371.144	1	9
371.486	1	15
371.828	1	6
372.170	1	11
372.512	1	2
372.853	1	8
373.195	1	-8
373.537	1	4
373.879	1	6
374.220	1	5
374.562	1	-7
374.904	1	1
375.246	1	4
375.588	1	-2
375.929	1	6
376.271	1	3
376.613	1	9
376.955	1	-12
377.296	1	5
377.638	1	0
377.980	1	7
378.321	1	2
378.663	1	-1
379.005	1	8
379.347	1	-4
379.688	1	2
380.030	1	-3
380.372	1	0
380.714	1	5
381.055	1	1
381.397	1	-1
381.739	1	16
382.080	1	-15
382.422	1	6
382.764	1	1
383.105	1	4
383.447	1	8
383.789	1	8
384.130	1	-3
384.472	1	-4
384.814	1	15
385.156	1	13
385.497	1	10
385.839	1	18
386.180	1	10
386.522	1	6
386.864	1	2
387.205	1	-6
387.547	1	7
387.889	1	15
388.230	1	-5
388.572	1	7
388.914	1	20
389.255	1	2
389.597	1	-8
389.939	1	10
390.280	1	13
390.622	1	2
390.963	1	12
391.305	1	16
391.647	1	7
391.988	1	-1
392.330	1	11
392.671	1	14
393.013	1	15
393.355	1	4
393.696	1	2
394.038	1	2
394.379	1	2
394.721	1	1
395.062	1	1
395.404	1	9
395.746	1	3
396.087	1	8
396.429	1	6
396.770	1	12
397.112	1	-2
397.453	1	0
397.795	1	3
398.136	1	14
398.478	1	4
398.819	1	6
399.161	1	12
399.503	1	7
399.844	1	6
400.186	1	14
400.527	1	10
400.869	1	8
401.210	1	0
401.552	1	23
401.893	1	7
402.235	1	16
402.576	1	10
402.918	1	3
403.259	1	-12
403.601	1	-7
403.942	1	0
404.284	1	8
404.625	1	10
404.967	1	10
405.308	1	4
405.649	1	1
405.991	1	12
406.332	1	9
406.674	1	9
407.015	1	-1
407.357	1	0
407.698	1	0
408.040	1	-2
408.381	1	1
408.722	1	8
409.064	1	10
409.405	1	8
409.747	1	3
410.088	1	11
410.430	1	7
410.771	1	9
411.112	1	7
411.454	1	8
411.795	1	9
412.137	1	25
412.478	1	3
412.819	1	-1
413.161	1	1
413.502	1	5
413.844	1	3
414.185	1	6
414.526	1	8
414.868	1	14
415.209	1	6
415.550	1	-5
415.892	1	7
416.233	1	1
416.575	1	9
416.916	1	3
417.257	1	3
417.599	1	-1
417.940	1	-5
418.281	1	1
418.623	1	-1
418.964	1	5
419.305	1	4
419.647	1	6
419.988	1	-4
420.329	1	0
420.671	1	4
421.012	1	7
421.353	1	4
421.695	1	0
422.036	1	-9
422.377	1	0
422.718	1	7
423.060	1	-1
423.401	1	3
423.742	1	5
424.084	1	9
424.425	1	2
424.766	1	3
425.107	1	10
425.449	1	5
425.790	1	-4
426.131	1	5
426.472	1	4
426.814	1	3
427.155	1	-4
427.496	1	8
427.837	1	-7
428.179	1	-5
428.520	1	-4
428.861	1	0
429.202	1	12
429.544	1	4
429.885	1	0
430.226	1	2
430.567	1	12
430.909	1	-9
431.250	1	-5
431.591	1	12
431.932	1	-1
432.273	1	-1
432.615	1	8
432.956	1	4
433.297	1	11
433.638	1	-4
433.979	1	9
434.320	1	-7
434.662	1	-6
435.003	1	2
435.344	1	-2
435.685	1	6
436.026	1	7
436.368	1	9
436.709	1	5
437.050	1	10
437.391	1	-4
437.732	1	-1
438.073	1	14
438.414	1	-3
438.756	1	3
439.097	1	10
439.438	1	9
439.779	1	3
440.120	1	3
440.461	1	-5
440.802	1	7
441.143	1	10
441.485	1	-4
441.826	1	-6
442.167	1	-2
442.508	1	8
442.849	1	10
443.190	1	-5
443.531	1	1
443.872	1	4
444.213	1	-9
444.554	1	-4
444.895	1	0
445.237	1	-7
445.578	1	13
445.919	1	-3
446.260	1	3
446.601	1	4
446.942	1	5
447.283	1	4
447.624	1	-2
447.965	1	-1
448.306	1	8
448.647	1	21
448.988	1	-9
449.329	1	2
449.670	1	10
450.011	1	3
450.352	1	5
450.693	1	6
451.034	1	8
451.375	1	14
451.716	1	11
452.057	1	11
452.398	1	1
452.739	1	8
453.080	1	17
453.421	1	2
453.762	1	15
454.103	1	7
454.444	1	17
454.785	1	-10
455.126	1	0
455.467	1	2
455.808	1	-6
456.149	1	-5
456.490	1	3
456.831	1	11
457.172	1	1
457.513	1	7
457.854	1	4
458.195	1	2
458.536	1	1
458.877	1	4
459.218	1	8
459.559	1	3
459.899	1	10
460.240	1	1
460.581	1	7
460.922	1	-3
461.263	1	10
461.604	1	0
461.945	1	3
462.286	1	8
462.627	1	-11
462.968	1	-2
463.309	1	2
463.649	1	1
463.990	1	3
464.331	1	2
464.672	1	6
465.013	1	-4
465.354	1	-2
465.695	1	0
466.036	1	4
466.376	1	-2
466.717	1	-6
467.058	1	14
467.399	1	-1
467.740	1	-1
468.081	1	8
468.422	1	5
468.762	1	-7
469.103	1	-7
469.444	1	1
469.785	1	-2
470.126	1	4
470.467	1	2
470.807	1	3
471.148	1	2
471.489	1	5
471.830	1	13
472.171	1	3
472.511	1	8
472.852	1	3
473.193	1	2
473.534	1	2
473.875	1	4
474.215	1	-3
474.556	1	-6
474.897	1	11
475.238	1	-2
475.578	1	4
475.919	1	6
476.260	1	4
476.601	1	1
476.942	1	-4
477.282	1	-9
477.623	1	3
477.964	1	3
478.305	1	5
478.645	1	-14
478.986	1	1
479.327	1	5
479.667	1	1
480.008	1	9
480.349	1	2
480.690	1	1
481.030	1	-2
481.371	1	0
481.712	1	4
482.053	1	14
482.393	1	-1
482.734	1	-2
483.075	1	7
483.415	1	3
483.756	1	-1
484.097	1	-4
484.437	1	-4
484.778	1	1
485.119	1	13
485.459	1	6
485.800	1	2
486.141	1	-11
486.481	1	0
486.822	1	9
487.163	1	-5
487.503	1	-4
487.844	1	2
488.185	1	-8
488.525	1	2
488.866	1	10
489.207	1	7
489.547	1	1
489.888	1	1
490.228	1	-4
490.569	1	5
490.910	1	1
491.250	1	9
491.591	1	-3
491.932	1	11
492.272	1	8
492.613	1	4
492.953	1	11
493.294	1	2
493.635	1	-3
493.975	1	-7
494.316	1	7
494.656	1	9
494.997	1	1
495.337	1	0
495.678	1	8
496.019	1	-4
496.359	1	2
496.700	1	-5
497.040	1	2
497.381	1	-16
497.721	1	1
498.062	1	3
498.403	1	4
498.743	1	-3
499.084	1	-7
499.424	1	16
499.765	1	-3
500.105	1	3
500.446	1	8
500.786	1	6
501.127	1	21
501.467	1	4
501.808	1	-8
502.148	1	6
502.489	1	8
502.829	1	4
503.170	1	7
503.510	1	8
503.851	1	-6
504.191	1	6
504.532	1	-9
504.872	1	-5
505.213	1	-2
505.553	1	7
505.894	1	3
506.234	1	3
506.575	1	7
506.915	1	4
507.256	1	-4
507.596	1	4
507.936	1	4
508.277	1	3
508.617	1	15
508.958	1	6
509.298	1	6
509.639	1	10
509.979	1	-3
510.319	1	3
510.660	1	8
511.000	1	8
511.341	1	-7
511.681	1	3
512.022	1	2
512.362	1	4
512.702	1	2
513.043	1	0
513.383	1	-8
513.724	1	7
514.064	1	12
514.404	1	2
514.745	1	4
515.085	1	5
515.425	1	-4
515.766	1	8
516.106	1	-1
516.447	1	4
516.787	1	-7
517.127	1	6
517.468	1	5
517.808	1	6
518.148	1	1
518.489	1	7
518.829	1	-2
519.169	1	6
519.510	1	1
519.850	1	-4
520.190	1	3
520.531	1	8
520.871	1	7
521.211	1	2
521.552	1	12
521.892	1	-4
522.232	1	-5
522.573	1	0
522.913	1	-1
523.253	1	-4
523.593	1	0
523.934	1	5
524.274	1	-2
524.614	1	1
524.955	1	11
525.295	1	3
525.635	1	16
525.975	1	-6
526.316	1	6
526.656	1	20
526.996	1	8
527.337	1	-2
527.677	1	20
528.017	1	0
528.357	1	1
528.698	1	-1
529.038	1	11
529.378	1	11
529.718	1	9
530.058	1	3
530.399	1	3
530.739	1	8
531.079	1	4
531.419	1	14
531.760	1	9
532.100	1	7
532.440	1	11
532.780	1	13
533.120	1	-2
533.461	1	11
533.801	1	5
534.141	1	8
534.481	1	-1
534.821	1	4
535.162	1	10
535.502	1	5
535.842	1	7
536.182	1	5
536.522	1	11
536.862	1	-1
537.203	1	13
537.543	1	8
537.883	1	11
538.223	1	22
538.563	1	4
538.903	1	1
539.243	1	3
539.584	1	-3
539.924	1	7
540.264	1	5
540.604	1	6
540.944	1	0
541.284	1	4
541.624	1	2
541.964	1	10
542.305	1	-9
542.645	1	6
542.985	1	8
543.325	1	10
543.665	1	17
544.005	1	3
544.345	1	-7
544.685	1	8
545.025	1	1
545.365	1	10
545.705	1	8
546.045	1	4
546.386	1	1
546.726	1	3
547.066	1	-1
547.406	1	5
547.746	1	7
548.086	1	2
548.426	1	-11
548.766	1	8
549.106	1	14
549.446	1	9
549.786	1	9
550.126	1	-7
550.466	1	-3
550.806	1	3
551.146	1	0
551.486	1	10
551.826	1	16
552.166	1	0
552.506	1	-3
552.846	1	-2
553.186	1	0
553.526	1	-2
553.866	1	0
554.206	1	6
554.546	1	-9
554.886	1	5
555.226	1	-7
555.566	1	8
555.906	1	4
556.246	1	5
556.586	1	10
556.926	1	3
557.266	1	10
557.606	1	-9
557.946	1	5
558.286	1	4
558.626	1	1
558.966	1	4
559.306	1	-3
559.646	1	3
559.986	1	-5
560.325	1	-7
560.665	1	5
561.005	1	1
561.345	1	3
561.685	1	-2
562.025	1	-3
562.365	1	10
562.705	1	8
563.045	1	6
563.385	1	-6
563.725	1	3
564.064	1	9
564.404	1	6
564.744	1	2
565.084	1	-6
565.424	1	-2
565.764	1	12
566.104	1	6
566.444	1	13
566.783	1	7
567.123	1	17
567.463	1	1
567.803	1	-7
568.143	1	-1
568.483	1	-1
568.823	1	16
569.162	1	4
569.502	1	9
569.842	1	-2
570.182	1	-5
570.522	1	6
570.862	1	11
571.201	1	-4
571.541	1	-3
571.881	1	9
572.221	1	5
572.561	1	2
572.900	1	15
573.240	1	0
573.580	1	2
573.920	1	2
574.260	1	7
574.599	1	-7
574.939	1	-1
575.279	1	10
575.619	1	12
575.959	1	-8
576.298	1	-6
576.638	1	3
576.978	1	-4
577.318	1	1
577.657	1	-17
577.997	1	-8
578.337	1	-3
578.677	1	4
579.016	1	9
579.356	1	1
579.696	1	11
580.036	1	-13
580.375	1	-2
580.715	1	9
581.055	1	5
581.394	1	3
581.734	1	12
582.074	1	0
582.414	1	-7
582.753	1	11
583.093	1	-4
583.433	1	-10
583.772	1	1
584.112	1	10
584.452	1	1
584.791	1	6
585.131	1	-2
585.471	1	-6
585.811	1	-1
586.150	1	5
586.490	1	-5
586.830	1	-2
587.169	1	5
587.509	1	3
587.849	1	4
588.188	1	-4
588.528	1	6
588.867	1	5
589.207	1	-8
589.547	1	-8
589.886	1	0
590.226	1	5
590.566	1	3
590.905	1	6
591.245	1	2
591.585	1	-3
591.924	1	-2
592.264	1	2
592.603	1	6
592.943	1	-7
593.283	1	12
593.622	1	6
593.962	1	9
594.301	1	9
594.641	1	-9
594.981	1	-1
595.320	1	16
595.660	1	-4
595.999	1	2
596.339	1	5
596.678	1	-4
597.018	1	8
597.358	1	-3
597.697	1	-1
598.037	1	6
598.376	1	12
598.716	1	-15
599.055	1	11
599.395	1	20
599.734	1	-2
600.074	1	4
600.413	1	8
600.753	1	1
601.092	1	-7
601.432	1	-1
601.771	1	10
602.111	1	-8
602.451	1	-2
602.790	1	-2
603.130	1	8
603.469	1	7
603.809	1	5
604.148	1	8
604.487	1	-1
604.827	1	-1
605.166	1	-4
605.506	1	0
605.845	1	3
606.185	1	2
606.524	1	-9
606.864	1	0
607.203	1	10
607.543	1	-7
607.882	1	-3
608.222	1	3
608.561	1	-3
608.901	1	1
609.240	1	0
609.579	1	4
609.919	1	4
610.258	1	8
610.598	1	5
610.937	1	-1
611.277	1	-1
611.616	1	-7
611.955	1	10
612.295	1	-5
612.634	1	-2
612.974	1	8
613.313	1	4
613.652	1	-4
613.992	1	6
614.331	1	2
614.671	1	17
615.010	1	5
615.349	1	5
615.689	1	-1
616.028	1	-1
616.368	1	0
616.707	1	-1
617.046	1	9
617.386	1	5
617.725	1	9
618.064	1	3
618.404	1	6
618.743	1	-1
619.082	1	1
619.422	1	14
619.761	1	1
620.100	1	9
620.440	1	4
620.779	1	3
621.118	1	-12
621.458	1	7
621.797	1	0
622.136	1	5
622.476	1	2
622.815	1	-1
623.154	1	10
623.494	1	1
623.833	1	5
624.172	1	11
624.511	1	7
624.851	1	-11
625.190	1	5
625.529	1	5
625.869	1	0
626.208	1	-8
626.547	1	7
626.886	1	0
627.226	1	5
627.565	1	6
627.904	1	5
628.243	1	-5
628.583	1	0
628.922	1	-10
629.261	1	-4
629.600	1	10
629.940	1	-11
630.279	1	-4
630.618	1	3
630.957	1	-1
631.297	1	3
631.636	1	7
631.975	1	6
632.314	1	11
632.653	1	-5
632.993	1	3
633.332	1	5
633.671	1	7
634.010	1	7
634.349	1	6
634.689	1	3
635.028	1	1
635.367	1	1
635.706	1	3
636.045	1	2
636.384	1	12
636.724	1	4
637.063	1	-2
637.402	1	11
637.741	1	18
638.080	1	-6
638.419	1	8
638.759	1	-3
639.098	1	0
639.437	1	-8
639.776	1	-3
640.115	1	-4
640.454	1	10
640.793	1	7
641.132	1	7
641.472	1	-1
641.811	1	5
642.150	1	-4
642.489	1	4
642.828	1	8
643.167	1	11
643.506	1	-2
643.845	1	0
644.184	1	10
644.524	1	1
644.863	1	0
645.202	1	5
645.541	1	-2
645.880	1	5
646.219	1	1
646.558	1	9
646.897	1	5
647.236	1	0
647.575	1	10
647.914	1	-2
648.253	1	2
648.592	1	-10
648.931	1	5
649.270	1	11
649.610	1	21
649.949	1	-4
650.288	1	-5
650.627	1	5
650.966	1	-4
651.305	1	-1
651.644	1	-3
651.983	1	0
652.322	1	7
652.661	1	1
653.000	1	1
653.339	1	1
653.678	1	2
654.017	1	-1
654.356	1	-3
654.695	1	11
655.034	1	3
655.373	1	-4
655.712	1	-10
656.051	1	16
656.390	1	-4
656.729	1	13
657.068	1	1
657.406	1	7
657.745	1	-3
658.084	1	3
658.423	1	-3
658.762	1	-4
659.101	1	-6
659.440	1	11
659.779	1	3
660.118	1	2
660.457	1	12
660.796	1	1
661.135	1	6
661.474	1	3
661.813	1	-3
662.152	1	-8
662.491	1	4
662.829	1	-9
663.168	1	-2
663.507	1	-5
663.846	1	14
664.185	1	4
664.524	1	-1
664.863	1	6
665.202	1	-10
665.541	1	2
665.879	1	-5
666.218	1	-8
666.557	1	-8
666.896	1	1
667.235	1	-5
667.574	1	10
667.913	1	4
668.251	1	-5
668.590	1	1
668.929	1	3
669.268	1	10
669.607	1	-5
669.946	1	10
670.285	1	6
670.623	1	4
670.962	1	1
671.301	1	-6
671.640	1	-13
671.979	1	9
672.317	1	-4
672.656	1	14
672.995	1	6
673.334	1	8
673.673	1	8
674.011	1	3
674.350	1	-2
674.689	1	-1
675.028	1	2
675.367	1	7
675.705	1	-5
676.044	1	3
676.383	1	-2
676.722	1	-4
677.060	1	4
677.399	1	-7
677.738	1	-2
678.077	1	4
678.416	1	3
678.754	1	0
679.093	1	4
679.432	1	-5
679.771	1	3
680.109	1	-3
680.448	1	1
680.787	1	1
681.125	1	9
681.464	1	-8
681.803	1	2
682.142	1	8
682.480	1	-4
682.819	1	5
683.158	1	3
683.496	1	-10
683.835	1	4
684.174	1	7
684.512	1	-1
684.851	1	1
685.190	1	8
685.529	1	11
685.867	1	1
686.206	1	3
686.545	1	3
686.883	1	-4
687.222	1	-2
687.561	1	2
687.899	1	-1
688.238	1	3
688.577	1	-3
688.746	1	8