File: Analysis/GaN_68K_200ms/GaN_sample E_spot4_UVVIS_68 K_200um_200 ms 2x2mm1_815.txt
340.368	1	-4
340.710	1	-8
341.052	1	-4
341.394	1	-2
341.737	1	16
342.079	1	-11
342.421	1	-6
342.763	1	-4
343.105	1	10
343.447	1	5
343.789	1	-3
344.131	1	-1
344.473	1	3
344.815	1	2
345.157	1	4
345.499	1	6
345.841	1	4
346.183	1	-1
346.526	1	4
346.868	1	-1
347.210	1	-6
347.552	1	1
347.894	1	-2
348.236	1	7
348.578	1	9
348.920	1	8
349.262	1	-10
349.604	1	12
349.946	1	-2
350.288	1	6
350.630	1	-1
350.972	1	-7
351.314	1	-4
351.656	1	2
351.998	1	-7
352.340	1	-3
352.682	1	-3
353.024	1	-3
353.366	1	10
353.708	1	6
354.050	1	5
354.392	1	6
354.734	1	-3
355.076	1	3
355.418	1	-6
355.760	1	3
356.102	1	-6
356.444	1	-2
356.785	1	10
357.127	1	-4
357.469	1	4
357.811	1	14
358.153	1	-1
358.495	1	12
358.837	1	-2
359.179	1	7
359.521	1	-1
359.863	1	-3
360.205	1	2
360.547	1	3
360.889	1	2
361.231	1	3
361.572	1	-9
361.914	1	0
362.256	1	3
362.598	1	8
362.940	1	-1
363.282	1	12
363.624	1	4
363.966	1	3
364.308	1	0
364.649	1	-4
364.991	1	1
365.333	1	10
365.675	1	-1
366.017	1	7
366.359	1	1
366.701	1	-13
367.042	1	6
367.384	1	4
367.726	1	15
368.068	1	-8
368.410	1	3
368.752	1	-8
369.093	1	6
369.435	1	2
369.777	1	-3
370.119	1	4
370.461	1	2
370.803	1	-10
371.144	1	9
371.486	1	16
371.828	1	8
372.170	1	7
372.512	1	-5
372.853	1	-2
373.195	1	-9
373.537	1	2
373.879	1	6
374.220	1	-4
374.562	1	1
374.904	1	4
375.246	1	-2
375.588	1	-10
375.929	1	2
376.271	1	-4
376.613	1	-1
376.955	1	-5
377.296	1	7
377.638	1	5
377.980	1	-1
378.321	1	3
378.663	1	-9
379.005	1	6
379.347	1	4
379.688	1	-9
380.030	1	-5
380.372	1	-2
380.714	1	4
381.055	1	7
381.397	1	-6
381.739	1	12
382.080	1	-16
382.422	1	18
382.764	1	4
383.105	1	4
383.447	1	11
383.789	1	2
384.130	1	-8
384.472	1	-8
384.814	1	6
385.156	1	15
385.497	1	8
385.839	1	11
386.180	1	-2
386.522	1	6
386.864	1	-13
387.205	1	4
387.547	1	2
387.889	1	18
388.230	1	-2
388.572	1	-3
388.914	1	12
389.255	1	8
389.597	1	-6
389.939	1	4
390.280	1	4
390.622	1	-6
390.963	1	11
391.305	1	16
391.647	1	17
391.988	1	-6
392.330	1	11
392.671	1	8
393.013	1	8
393.355	1	10
393.696	1	-2
394.038	1	-9
394.379	1	1
394.721	1	6
395.062	1	-6
395.404	1	2
395.746	1	1
396.087	1	7
396.429	1	1
396.770	1	5
397.112	1	-3
397.453	1	-8
397.795	1	1
398.136	1	0
398.478	1	-7
398.819	1	4
399.161	1	4
399.503	1	10
399.844	1	-12
400.186	1	4
400.527	1	2
400.869	1	10
401.210	1	-5
401.552	1	11
401.893	1	7
402.235	1	9
402.576	1	8
402.918	1	-8
403.259	1	-5
403.601	1	-8
403.942	1	7
404.284	1	0
404.625	1	4
404.967	1	0
405.308	1	2
405.649	1	-2
405.991	1	12
406.332	1	-1
406.674	1	2
407.015	1	-14
407.357	1	6
407.698	1	-10
408.040	1	0
408.381	1	-15
408.722	1	-4
409.064	1	-5
409.405	1	0
409.747	1	0
410.088	1	-3
410.430	1	7
410.771	1	-1
411.112	1	0
411.454	1	1
411.795	1	-1
412.137	1	12
412.478	1	9
412.819	1	-8
413.161	1	-6
413.502	1	-5
413.844	1	-1
414.185	1	0
414.526	1	3
414.868	1	5
415.209	1	-9
415.550	1	-10
415.892	1	2
416.233	1	3
416.575	1	-5
416.916	1	-1
417.257	1	-2
417.599	1	7
417.940	1	-9
418.281	1	-6
418.623	1	-7
418.964	1	1
419.305	1	-1
419.647	1	17
419.988	1	-4
420.329	1	7
420.671	1	2
421.012	1	7
421.353	1	9
421.695	1	1
422.036	1	-1
422.377	1	1
422.718	1	-2
423.060	1	-2
423.401	1	2
423.742	1	4
424.084	1	-3
424.425	1	2
424.766	1	5
425.107	1	-9
425.449	1	1
425.790	1	-5
426.131	1	5
426.472	1	-4
426.814	1	9
427.155	1	6
427.496	1	8
427.837	1	0
428.179	1	-8
428.520	1	-4
428.861	1	-3
429.202	1	-2
429.544	1	2
429.885	1	-5
430.226	1	2
430.567	1	17
430.909	1	-7
431.250	1	-2
431.591	1	-3
431.932	1	6
432.273	1	-3
432.615	1	5
432.956	1	-4
433.297	1	8
433.638	1	-3
433.979	1	1
434.320	1	3
434.662	1	-4
435.003	1	2
435.344	1	7
435.685	1	9
436.026	1	-4
436.368	1	6
436.709	1	-12
437.050	1	2
437.391	1	0
437.732	1	3
438.073	1	7
438.414	1	6
438.756	1	0
439.097	1	2
439.438	1	4
439.779	1	0
440.120	1	12
440.461	1	-9
440.802	1	5
441.143	1	8
441.485	1	-7
441.826	1	-4
442.167	1	-2
442.508	1	2
442.849	1	8
443.190	1	-14
443.531	1	-7
443.872	1	3
444.213	1	-12
444.554	1	0
444.895	1	-3
445.237	1	-10
445.578	1	7
445.919	1	-10
446.260	1	1
446.601	1	-8
446.942	1	3
447.283	1	-1
447.624	1	7
447.965	1	-13
448.306	1	2
448.647	1	3
448.988	1	-17
449.329	1	4
449.670	1	-2
450.011	1	1
450.352	1	11
450.693	1	-3
451.034	1	17
451.375	1	7
451.716	1	12
452.057	1	10
452.398	1	4
452.739	1	-10
453.080	1	7
453.421	1	0
453.762	1	5
454.103	1	5
454.444	1	14
454.785	1	0
455.126	1	4
455.467	1	0
455.808	1	-3
456.149	1	-3
456.490	1	6
456.831	1	0
457.172	1	6
457.513	1	4
457.854	1	-5
458.195	1	-2
458.536	1	16
458.877	1	-1
459.218	1	4
459.559	1	8
459.899	1	3
460.240	1	2
460.581	1	4
460.922	1	-1
461.263	1	7
461.604	1	4
461.945	1	4
462.286	1	4
462.627	1	-4
462.968	1	0
463.309	1	-6
463.649	1	8
463.990	1	-1
464.331	1	0
464.672	1	1
465.013	1	-14
465.354	1	2
465.695	1	-1
466.036	1	2
466.376	1	0
466.717	1	-3
467.058	1	10
467.399	1	5
467.740	1	-1
468.081	1	2
468.422	1	-7
468.762	1	-6
469.103	1	-5
469.444	1	-6
469.785	1	8
470.126	1	8
470.467	1	-4
470.807	1	-2
471.148	1	0
471.489	1	-2
471.830	1	4
472.171	1	1
472.511	1	7
472.852	1	-6
473.193	1	-11
473.534	1	-10
473.875	1	3
474.215	1	-7
474.556	1	-6
474.897	1	-5
475.238	1	-3
475.578	1	-3
475.919	1	3
476.260	1	1
476.601	1	-5
476.942	1	-2
477.282	1	-4
477.623	1	4
477.964	1	6
478.305	1	-3
478.645	1	-6
478.986	1	-6
479.327	1	-5
479.667	1	0
480.008	1	8
480.349	1	2
480.690	1	-7
481.030	1	-2
481.371	1	-8
481.712	1	4
482.053	1	4
482.393	1	-5
482.734	1	4
483.075	1	6
483.415	1	5
483.756	1	6
484.097	1	-6
484.437	1	-1
484.778	1	5
485.119	1	7
485.459	1	4
485.800	1	-8
486.141	1	-12
486.481	1	8
486.822	1	-3
487.163	1	-4
487.503	1	-8
487.844	1	1
488.185	1	-9
488.525	1	-8
488.866	1	6
489.207	1	2
489.547	1	-7
489.888	1	6
490.228	1	-2
490.569	1	12
490.910	1	-7
491.250	1	2
491.591	1	-5
491.932	1	8
492.272	1	7
492.613	1	5
492.953	1	11
493.294	1	3
493.635	1	-5
493.975	1	2
494.316	1	9
494.656	1	-3
494.997	1	0
495.337	1	6
495.678	1	8
496.019	1	-6
496.359	1	0
496.700	1	-2
497.040	1	-4
497.381	1	-15
497.721	1	-5
498.062	1	-5
498.403	1	0
498.743	1	-1
499.084	1	-8
499.424	1	15
499.765	1	5
500.105	1	2
500.446	1	9
500.786	1	8
501.127	1	10
501.467	1	0
501.808	1	-22
502.148	1	-1
502.489	1	-4
502.829	1	0
503.170	1	7
503.510	1	-3
503.851	1	-12
504.191	1	4
504.532	1	-2
504.872	1	-4
505.213	1	1
505.553	1	-4
505.894	1	4
506.234	1	3
506.575	1	1
506.915	1	-1
507.256	1	-9
507.596	1	9
507.936	1	5
508.277	1	-4
508.617	1	7
508.958	1	5
509.298	1	15
509.639	1	-1
509.979	1	1
510.319	1	-6
510.660	1	11
511.000	1	6
511.341	1	-6
511.681	1	-5
512.022	1	-6
512.362	1	0
512.702	1	-7
513.043	1	0
513.383	1	-2
513.724	1	5
514.064	1	1
514.404	1	-5
514.745	1	-7
515.085	1	-2
515.425	1	-7
515.766	1	-1
516.106	1	0
516.447	1	7
516.787	1	-7
517.127	1	-6
517.468	1	1
517.808	1	0
518.148	1	1
518.489	1	3
518.829	1	-5
519.169	1	14
519.510	1	-4
519.850	1	-3
520.190	1	-4
520.531	1	4
520.871	1	-18
521.211	1	-1
521.552	1	-1
521.892	1	-12
522.232	1	-5
522.573	1	-3
522.913	1	6
523.253	1	-1
523.593	1	-9
523.934	1	7
524.274	1	-5
524.614	1	1
524.955	1	3
525.295	1	-12
525.635	1	8
525.975	1	-3
526.316	1	3
526.656	1	14
526.996	1	3
527.337	1	1
527.677	1	7
528.017	1	-8
528.357	1	5
528.698	1	-7
529.038	1	8
529.378	1	3
529.718	1	10
530.058	1	2
530.399	1	10
530.739	1	-6
531.079	1	4
531.419	1	3
531.760	1	-3
532.100	1	0
532.440	1	-1
532.780	1	4
533.120	1	-7
533.461	1	6
533.801	1	9
534.141	1	7
534.481	1	2
534.821	1	7
535.162	1	4
535.502	1	9
535.842	1	-1
536.182	1	-2
536.522	1	13
536.862	1	-2
537.203	1	3
537.543	1	-1
537.883	1	-3
538.223	1	1
538.563	1	3
538.903	1	-3
539.243	1	-6
539.584	1	-7
539.924	1	10
540.264	1	4
540.604	1	-1
540.944	1	-3
541.284	1	8
541.624	1	-2
541.964	1	-2
542.305	1	-13
542.645	1	-3
542.985	1	-2
543.325	1	-1
543.665	1	16
544.005	1	-8
544.345	1	-1
544.685	1	5
545.025	1	-4
545.365	1	-2
545.705	1	2
546.045	1	7
546.386	1	0
546.726	1	-2
547.066	1	-7
547.406	1	9
547.746	1	6
548.086	1	3
548.426	1	3
548.766	1	-5
549.106	1	9
549.446	1	3
549.786	1	6
550.126	1	-2
550.466	1	-2
550.806	1	8
551.146	1	-10
551.486	1	6
551.826	1	9
552.166	1	2
552.506	1	-11
552.846	1	7
553.186	1	-6
553.526	1	6
553.866	1	-4
554.206	1	2
554.546	1	-15
554.886	1	-2
555.226	1	-5
555.566	1	0
555.906	1	2
556.246	1	-3
556.586	1	11
556.926	1	1
557.266	1	11
557.606	1	-11
557.946	1	-1
558.286	1	2
558.626	1	8
558.966	1	0
559.306	1	2
559.646	1	-1
559.986	1	-2
560.325	1	-7
560.665	1	2
561.005	1	7
561.345	1	-7
561.685	1	-3
562.025	1	0
562.365	1	2
562.705	1	6
563.045	1	3
563.385	1	-14
563.725	1	-3
564.064	1	8
564.404	1	1
564.744	1	6
565.084	1	-10
565.424	1	-2
565.764	1	16
566.104	1	-5
566.444	1	0
566.783	1	5
567.123	1	17
567.463	1	3
567.803	1	-3
568.143	1	-6
568.483	1	-6
568.823	1	2
569.162	1	2
569.502	1	7
569.842	1	-6
570.182	1	-5
570.522	1	5
570.862	1	3
571.201	1	1
571.541	1	-8
571.881	1	4
572.221	1	10
572.561	1	-6
572.900	1	1
573.240	1	-4
573.580	1	-1
573.920	1	0
574.260	1	-5
574.599	1	-4
574.939	1	-2
575.279	1	9
575.619	1	4
575.959	1	-12
576.298	1	-8
576.638	1	13
576.978	1	-11
577.318	1	3
577.657	1	-18
577.997	1	2
578.337	1	4
578.677	1	-1
579.016	1	10
579.356	1	-9
579.696	1	-3
580.036	1	-7
580.375	1	6
580.715	1	10
581.055	1	4
581.394	1	-1
581.734	1	7
582.074	1	-16
582.414	1	-5
582.753	1	4
583.093	1	0
583.433	1	0
583.772	1	-1
584.112	1	9
584.452	1	0
584.791	1	5
585.131	1	-1
585.471	1	-4
585.811	1	-1
586.150	1	-2
586.490	1	-9
586.830	1	-5
587.169	1	-1
587.509	1	1
587.849	1	7
588.188	1	1
588.528	1	11
588.867	1	5
589.207	1	-17
589.547	1	-6
589.886	1	-6
590.226	1	7
590.566	1	-4
590.905	1	-3
591.245	1	-4
591.585	1	-5
591.924	1	2
592.264	1	-3
592.603	1	-2
592.943	1	-1
593.283	1	7
593.622	1	-8
593.962	1	10
594.301	1	12
594.641	1	-7
594.981	1	3
595.320	1	4
595.660	1	-10
595.999	1	7
596.339	1	6
596.678	1	-3
597.018	1	-7
597.358	1	2
597.697	1	-8
598.037	1	5
598.376	1	8
598.716	1	-3
599.055	1	1
599.395	1	1
599.734	1	-3
600.074	1	1
600.413	1	-3
600.753	1	-5
601.092	1	-14
601.432	1	-4
601.771	1	6
602.111	1	-3
602.451	1	0
602.790	1	3
603.130	1	-1
603.469	1	-3
603.809	1	7
604.148	1	8
604.487	1	-2
604.827	1	-10
605.166	1	-5
605.506	1	3
605.845	1	1
606.185	1	-2
606.524	1	-2
606.864	1	3
607.203	1	10
607.543	1	-14
607.882	1	-8
608.222	1	7
608.561	1	2
608.901	1	1
609.240	1	-4
609.579	1	3
609.919	1	-1
610.258	1	4
610.598	1	0
610.937	1	-2
611.277	1	-3
611.616	1	-9
611.955	1	-1
612.295	1	6
612.634	1	-4
612.974	1	11
613.313	1	-1
613.652	1	-9
613.992	1	0
614.331	1	5
614.671	1	5
615.010	1	1
615.349	1	-2
615.689	1	-1
616.028	1	-8
616.368	1	-8
616.707	1	1
617.046	1	-1
617.386	1	-3
617.725	1	7
618.064	1	7
618.404	1	-1
618.743	1	1
619.082	1	6
619.422	1	-1
619.761	1	4
620.100	1	2
620.440	1	-2
620.779	1	-2
621.118	1	8
621.458	1	2
621.797	1	-2
622.136	1	3
622.476	1	3
622.815	1	1
623.154	1	2
623.494	1	6
623.833	1	-3
624.172	1	15
624.511	1	1
624.851	1	-6
625.190	1	3
625.529	1	1
625.869	1	0
626.208	1	-2
626.547	1	-3
626.886	1	-8
627.226	1	1
627.565	1	4
627.904	1	16
628.243	1	-4
628.583	1	-2
628.922	1	-11
629.261	1	5
629.600	1	9
629.940	1	0
630.279	1	1
630.618	1	2
630.957	1	-10
631.297	1	-7
631.636	1	2
631.975	1	-1
632.314	1	-2
632.653	1	-8
632.993	1	4
633.332	1	10
633.671	1	-9
634.010	1	-1
634.349	1	4
634.689	1	8
635.028	1	3
635.367	1	-7
635.706	1	1
636.045	1	-4
636.384	1	6
636.724	1	-3
637.063	1	-4
637.402	1	-1
637.741	1	4
638.080	1	1
638.419	1	6
638.759	1	2
639.098	1	6
639.437	1	-2
639.776	1	1
640.115	1	-8
640.454	1	6
640.793	1	12
641.132	1	3
641.472	1	-6
641.811	1	-4
642.150	1	-2
642.489	1	0
642.828	1	1
643.167	1	9
643.506	1	-7
643.845	1	5
644.184	1	6
644.524	1	-6
644.863	1	-4
645.202	1	3
645.541	1	-11
645.880	1	-1
646.219	1	10
646.558	1	-1
646.897	1	-7
647.236	1	6
647.575	1	-9
647.914	1	-6
648.253	1	2
648.592	1	-3
648.931	1	2
649.270	1	14
649.610	1	4
649.949	1	-2
650.288	1	-11
650.627	1	-6
650.966	1	4
651.305	1	-11
651.644	1	-7
651.983	1	4
652.322	1	-2
652.661	1	-1
653.000	1	1
653.339	1	10
653.678	1	-3
654.017	1	1
654.356	1	10
654.695	1	0
655.034	1	1
655.373	1	-6
655.712	1	4
656.051	1	0
656.390	1	0
656.729	1	3
657.068	1	0
657.406	1	5
657.745	1	-1
658.084	1	4
658.423	1	-13
658.762	1	-12
659.101	1	3
659.440	1	3
659.779	1	0
660.118	1	-3
660.457	1	-5
660.796	1	-12
661.135	1	-6
661.474	1	-4
661.813	1	-3
662.152	1	4
662.491	1	-6
662.829	1	4
663.168	1	-3
663.507	1	-1
663.846	1	5
664.185	1	-2
664.524	1	0
664.863	1	-2
665.202	1	-2
665.541	1	-2
665.879	1	-3
666.218	1	-4
666.557	1	2
666.896	1	-6
667.235	1	-4
667.574	1	1
667.913	1	-5
668.251	1	2
668.590	1	2
668.929	1	2
669.268	1	4
669.607	1	-8
669.946	1	5
670.285	1	-6
670.623	1	1
670.962	1	3
671.301	1	1
671.640	1	-21
671.979	1	8
672.317	1	-8
672.656	1	-4
672.995	1	1
673.334	1	3
673.673	1	10
674.011	1	3
674.350	1	-10
674.689	1	-5
675.028	1	1
675.367	1	-3
675.705	1	-1
676.044	1	-9
676.383	1	0
676.722	1	-6
677.060	1	10
677.399	1	-2
677.738	1	-13
678.077	1	2
678.416	1	-3
678.754	1	-5
679.093	1	-5
679.432	1	-9
679.771	1	-1
680.109	1	9
680.448	1	4
680.787	1	6
681.125	1	9
681.464	1	0
681.803	1	-17
682.142	1	1
682.480	1	2
682.819	1	3
683.158	1	-4
683.496	1	0
683.835	1	10
684.174	1	4
684.512	1	-2
684.851	1	-4
685.190	1	3
685.529	1	1
685.867	1	7
686.206	1	5
686.545	1	7
686.883	1	-1
687.222	1	-7
687.561	1	6
687.899	1	-7
688.238	1	1
688.577	1	-10
688.746	1	1