File: Analysis/GaN_68K_200ms/GaN_sample E_spot4_UVVIS_68 K_200um_200 ms 2x2mm1_728.txt
340.368	1	-4
340.710	1	-6
341.052	1	-3
341.394	1	-4
341.737	1	-1
342.079	1	-7
342.421	1	-5
342.763	1	0
343.105	1	9
343.447	1	4
343.789	1	-2
344.131	1	1
344.473	1	1
344.815	1	1
345.157	1	3
345.499	1	3
345.841	1	3
346.183	1	-1
346.526	1	5
346.868	1	3
347.210	1	2
347.552	1	8
347.894	1	-8
348.236	1	-1
348.578	1	-6
348.920	1	8
349.262	1	1
349.604	1	13
349.946	1	14
350.288	1	3
350.630	1	-16
350.972	1	10
351.314	1	-2
351.656	1	5
351.998	1	2
352.340	1	-6
352.682	1	-1
353.024	1	-3
353.366	1	3
353.708	1	5
354.050	1	3
354.392	1	13
354.734	1	-11
355.076	1	1
355.418	1	-13
355.760	1	3
356.102	1	1
356.444	1	6
356.785	1	14
357.127	1	3
357.469	1	0
357.811	1	18
358.153	1	0
358.495	1	2
358.837	1	-3
359.179	1	-9
359.521	1	6
359.863	1	-8
360.205	1	-3
360.547	1	-4
360.889	1	-1
361.231	1	2
361.572	1	-5
361.914	1	-2
362.256	1	10
362.598	1	4
362.940	1	-5
363.282	1	1
363.624	1	2
363.966	1	-1
364.308	1	-12
364.649	1	8
364.991	1	6
365.333	1	15
365.675	1	2
366.017	1	-2
366.359	1	4
366.701	1	-10
367.042	1	7
367.384	1	6
367.726	1	11
368.068	1	-6
368.410	1	-3
368.752	1	-10
369.093	1	1
369.435	1	-5
369.777	1	-3
370.119	1	0
370.461	1	4
370.803	1	-9
371.144	1	8
371.486	1	3
371.828	1	6
372.170	1	10
372.512	1	-8
372.853	1	-7
373.195	1	-7
373.537	1	12
373.879	1	1
374.220	1	10
374.562	1	6
374.904	1	-3
375.246	1	-2
375.588	1	3
375.929	1	5
376.271	1	-1
376.613	1	-5
376.955	1	-13
377.296	1	6
377.638	1	-11
377.980	1	-1
378.321	1	0
378.663	1	-4
379.005	1	8
379.347	1	9
379.688	1	-8
380.030	1	-11
380.372	1	1
380.714	1	3
381.055	1	-2
381.397	1	-2
381.739	1	1
382.080	1	-18
382.422	1	15
382.764	1	5
383.105	1	2
383.447	1	13
383.789	1	4
384.130	1	-7
384.472	1	1
384.814	1	12
385.156	1	15
385.497	1	2
385.839	1	0
386.180	1	0
386.522	1	7
386.864	1	-4
387.205	1	-1
387.547	1	-11
387.889	1	5
388.230	1	5
388.572	1	0
388.914	1	9
389.255	1	5
389.597	1	-4
389.939	1	6
390.280	1	6
390.622	1	6
390.963	1	2
391.305	1	2
391.647	1	4
391.988	1	-4
392.330	1	9
392.671	1	4
393.013	1	7
393.355	1	16
393.696	1	-13
394.038	1	-2
394.379	1	-8
394.721	1	6
395.062	1	-3
395.404	1	8
395.746	1	-4
396.087	1	-1
396.429	1	-1
396.770	1	3
397.112	1	-3
397.453	1	-5
397.795	1	0
398.136	1	11
398.478	1	-3
398.819	1	1
399.161	1	2
399.503	1	-1
399.844	1	-7
400.186	1	10
400.527	1	-1
400.869	1	13
401.210	1	-1
401.552	1	7
401.893	1	-1
402.235	1	-3
402.576	1	13
402.918	1	2
403.259	1	-10
403.601	1	-4
403.942	1	9
404.284	1	0
404.625	1	1
404.967	1	4
405.308	1	-6
405.649	1	3
405.991	1	2
406.332	1	-4
406.674	1	7
407.015	1	-12
407.357	1	6
407.698	1	-11
408.040	1	3
408.381	1	5
408.722	1	-2
409.064	1	4
409.405	1	-5
409.747	1	-5
410.088	1	5
410.430	1	1
410.771	1	-1
411.112	1	8
411.454	1	7
411.795	1	7
412.137	1	6
412.478	1	-4
412.819	1	-6
413.161	1	-5
413.502	1	-2
413.844	1	-2
414.185	1	5
414.526	1	-2
414.868	1	4
415.209	1	2
415.550	1	-3
415.892	1	-5
416.233	1	-1
416.575	1	2
416.916	1	-1
417.257	1	6
417.599	1	3
417.940	1	-7
418.281	1	0
418.623	1	-5
418.964	1	2
419.305	1	-6
419.647	1	7
419.988	1	-11
420.329	1	4
420.671	1	4
421.012	1	5
421.353	1	3
421.695	1	2
422.036	1	-3
422.377	1	3
422.718	1	1
423.060	1	-2
423.401	1	3
423.742	1	-9
424.084	1	8
424.425	1	1
424.766	1	4
425.107	1	2
425.449	1	10
425.790	1	-1
426.131	1	-2
426.472	1	0
426.814	1	6
427.155	1	-18
427.496	1	4
427.837	1	-1
428.179	1	-5
428.520	1	-3
428.861	1	1
429.202	1	7
429.544	1	6
429.885	1	-12
430.226	1	-2
430.567	1	6
430.909	1	-8
431.250	1	-8
431.591	1	5
431.932	1	12
432.273	1	1
432.615	1	-2
432.956	1	-5
433.297	1	4
433.638	1	-1
433.979	1	1
434.320	1	4
434.662	1	-2
435.003	1	-2
435.344	1	8
435.685	1	5
436.026	1	2
436.368	1	5
436.709	1	-10
437.050	1	5
437.391	1	2
437.732	1	7
438.073	1	9
438.414	1	9
438.756	1	-3
439.097	1	1
439.438	1	0
439.779	1	-2
440.120	1	2
440.461	1	-6
440.802	1	5
441.143	1	8
441.485	1	0
441.826	1	-13
442.167	1	-1
442.508	1	-1
442.849	1	5
443.190	1	-15
443.531	1	-5
443.872	1	-4
444.213	1	-13
444.554	1	-6
444.895	1	-8
445.237	1	-6
445.578	1	3
445.919	1	-2
446.260	1	3
446.601	1	3
446.942	1	12
447.283	1	-6
447.624	1	10
447.965	1	-10
448.306	1	3
448.647	1	4
448.988	1	-17
449.329	1	3
449.670	1	1
450.011	1	-2
450.352	1	4
450.693	1	3
451.034	1	6
451.375	1	8
451.716	1	3
452.057	1	8
452.398	1	2
452.739	1	1
453.080	1	8
453.421	1	-6
453.762	1	-1
454.103	1	6
454.444	1	16
454.785	1	4
455.126	1	-5
455.467	1	12
455.808	1	2
456.149	1	1
456.490	1	-10
456.831	1	9
457.172	1	3
457.513	1	8
457.854	1	-7
458.195	1	-6
458.536	1	4
458.877	1	-2
459.218	1	0
459.559	1	0
459.899	1	-2
460.240	1	-1
460.581	1	2
460.922	1	-3
461.263	1	11
461.604	1	-15
461.945	1	-2
462.286	1	12
462.627	1	1
462.968	1	-3
463.309	1	-2
463.649	1	2
463.990	1	3
464.331	1	13
464.672	1	-8
465.013	1	-13
465.354	1	6
465.695	1	2
466.036	1	7
466.376	1	-6
466.717	1	-8
467.058	1	4
467.399	1	-1
467.740	1	-2
468.081	1	1
468.422	1	5
468.762	1	-13
469.103	1	-5
469.444	1	-6
469.785	1	1
470.126	1	14
470.467	1	-5
470.807	1	-1
471.148	1	-2
471.489	1	-1
471.830	1	8
472.171	1	2
472.511	1	8
472.852	1	-1
473.193	1	-13
473.534	1	-3
473.875	1	6
474.215	1	-8
474.556	1	-2
474.897	1	1
475.238	1	0
475.578	1	9
475.919	1	-1
476.260	1	11
476.601	1	-1
476.942	1	7
477.282	1	-18
477.623	1	-2
477.964	1	7
478.305	1	0
478.645	1	-8
478.986	1	-2
479.327	1	-3
479.667	1	2
480.008	1	4
480.349	1	-5
480.690	1	-6
481.030	1	0
481.371	1	5
481.712	1	7
482.053	1	3
482.393	1	-14
482.734	1	1
483.075	1	7
483.415	1	6
483.756	1	8
484.097	1	-7
484.437	1	-1
484.778	1	-4
485.119	1	6
485.459	1	6
485.800	1	-11
486.141	1	-9
486.481	1	6
486.822	1	-3
487.163	1	-13
487.503	1	-13
487.844	1	-1
488.185	1	-6
488.525	1	-1
488.866	1	9
489.207	1	13
489.547	1	-5
489.888	1	2
490.228	1	-3
490.569	1	7
490.910	1	0
491.250	1	0
491.591	1	-2
491.932	1	6
492.272	1	4
492.613	1	2
492.953	1	3
493.294	1	8
493.635	1	-1
493.975	1	-3
494.316	1	0
494.656	1	-11
494.997	1	-2
495.337	1	1
495.678	1	9
496.019	1	-9
496.359	1	0
496.700	1	2
497.040	1	4
497.381	1	-13
497.721	1	-6
498.062	1	0
498.403	1	6
498.743	1	1
499.084	1	-6
499.424	1	18
499.765	1	-5
500.105	1	-3
500.446	1	2
500.786	1	4
501.127	1	2
501.467	1	1
501.808	1	-8
502.148	1	-8
502.489	1	7
502.829	1	6
503.170	1	1
503.510	1	0
503.851	1	-13
504.191	1	2
504.532	1	-12
504.872	1	-4
505.213	1	-5
505.553	1	8
505.894	1	0
506.234	1	7
506.575	1	6
506.915	1	-4
507.256	1	-4
507.596	1	-1
507.936	1	4
508.277	1	4
508.617	1	0
508.958	1	18
509.298	1	14
509.639	1	10
509.979	1	3
510.319	1	0
510.660	1	11
511.000	1	2
511.341	1	-6
511.681	1	4
512.022	1	1
512.362	1	0
512.702	1	-5
513.043	1	0
513.383	1	3
513.724	1	5
514.064	1	0
514.404	1	-2
514.745	1	5
515.085	1	-10
515.425	1	-10
515.766	1	-1
516.106	1	-9
516.447	1	9
516.787	1	-13
517.127	1	6
517.468	1	-2
517.808	1	0
518.148	1	6
518.489	1	7
518.829	1	-8
519.169	1	8
519.510	1	-4
519.850	1	-6
520.190	1	6
520.531	1	-2
520.871	1	-8
521.211	1	0
521.552	1	14
521.892	1	-20
522.232	1	-1
522.573	1	3
522.913	1	9
523.253	1	2
523.593	1	-13
523.934	1	0
524.274	1	-7
524.614	1	5
524.955	1	2
525.295	1	-14
525.635	1	10
525.975	1	-4
526.316	1	-5
526.656	1	18
526.996	1	4
527.337	1	3
527.677	1	9
528.017	1	-6
528.357	1	2
528.698	1	-2
529.038	1	8
529.378	1	-6
529.718	1	-1
530.058	1	-3
530.399	1	1
530.739	1	-2
531.079	1	2
531.419	1	10
531.760	1	11
532.100	1	9
532.440	1	-13
532.780	1	-4
533.120	1	-6
533.461	1	9
533.801	1	-10
534.141	1	9
534.481	1	3
534.821	1	8
535.162	1	10
535.502	1	3
535.842	1	4
536.182	1	7
536.522	1	11
536.862	1	13
537.203	1	1
537.543	1	-3
537.883	1	8
538.223	1	4
538.563	1	0
538.903	1	-2
539.243	1	0
539.584	1	3
539.924	1	9
540.264	1	-2
540.604	1	6
540.944	1	-7
541.284	1	-3
541.624	1	2
541.964	1	1
542.305	1	-1
542.645	1	-4
542.985	1	6
543.325	1	-8
543.665	1	9
544.005	1	-1
544.345	1	-8
544.685	1	5
545.025	1	-2
545.365	1	2
545.705	1	0
546.045	1	10
546.386	1	1
546.726	1	-1
547.066	1	-8
547.406	1	6
547.746	1	10
548.086	1	9
548.426	1	0
548.766	1	-4
549.106	1	5
549.446	1	2
549.786	1	6
550.126	1	3
550.466	1	-8
550.806	1	2
551.146	1	0
551.486	1	6
551.826	1	2
552.166	1	-8
552.506	1	-7
552.846	1	4
553.186	1	1
553.526	1	2
553.866	1	-1
554.206	1	-1
554.546	1	-10
554.886	1	9
555.226	1	-5
555.566	1	7
555.906	1	1
556.246	1	-5
556.586	1	1
556.926	1	4
557.266	1	5
557.606	1	-15
557.946	1	1
558.286	1	2
558.626	1	1
558.966	1	-1
559.306	1	-9
559.646	1	-4
559.986	1	-4
560.325	1	-7
560.665	1	7
561.005	1	6
561.345	1	6
561.685	1	3
562.025	1	-12
562.365	1	2
562.705	1	9
563.045	1	3
563.385	1	-5
563.725	1	-3
564.064	1	10
564.404	1	-13
564.744	1	2
565.084	1	-7
565.424	1	4
565.764	1	15
566.104	1	-5
566.444	1	5
566.783	1	9
567.123	1	14
567.463	1	-3
567.803	1	-12
568.143	1	-3
568.483	1	5
568.823	1	10
569.162	1	-8
569.502	1	-8
569.842	1	-7
570.182	1	-5
570.522	1	5
570.862	1	4
571.201	1	5
571.541	1	-2
571.881	1	2
572.221	1	5
572.561	1	-11
572.900	1	6
573.240	1	-6
573.580	1	-5
573.920	1	3
574.260	1	8
574.599	1	-12
574.939	1	1
575.279	1	2
575.619	1	4
575.959	1	1
576.298	1	0
576.638	1	-2
576.978	1	12
577.318	1	8
577.657	1	-16
577.997	1	-13
578.337	1	-8
578.677	1	0
579.016	1	10
579.356	1	1
579.696	1	-3
580.036	1	8
580.375	1	1
580.715	1	5
581.055	1	-9
581.394	1	-9
581.734	1	4
582.074	1	-4
582.414	1	0
582.753	1	5
583.093	1	0
583.433	1	-7
583.772	1	-2
584.112	1	4
584.452	1	-4
584.791	1	-1
585.131	1	-6
585.471	1	-5
585.811	1	-1
586.150	1	7
586.490	1	-7
586.830	1	-8
587.169	1	1
587.509	1	-3
587.849	1	3
588.188	1	0
588.528	1	-2
588.867	1	6
589.207	1	-11
589.547	1	-2
589.886	1	-11
590.226	1	3
590.566	1	-1
590.905	1	4
591.245	1	-4
591.585	1	-4
591.924	1	-5
592.264	1	-2
592.603	1	3
592.943	1	-3
593.283	1	6
593.622	1	-3
593.962	1	5
594.301	1	9
594.641	1	4
594.981	1	7
595.320	1	12
595.660	1	3
595.999	1	-1
596.339	1	9
596.678	1	-1
597.018	1	-2
597.358	1	-5
597.697	1	-6
598.037	1	-1
598.376	1	3
598.716	1	-7
599.055	1	5
599.395	1	13
599.734	1	0
600.074	1	0
600.413	1	-5
600.753	1	-3
601.092	1	-14
601.432	1	-10
601.771	1	8
602.111	1	-3
602.451	1	0
602.790	1	-3
603.130	1	-2
603.469	1	3
603.809	1	14
604.148	1	7
604.487	1	1
604.827	1	-18
605.166	1	-8
605.506	1	8
605.845	1	0
606.185	1	-5
606.524	1	-11
606.864	1	2
607.203	1	4
607.543	1	-10
607.882	1	-5
608.222	1	10
608.561	1	2
608.901	1	-1
609.240	1	-3
609.579	1	3
609.919	1	-7
610.258	1	10
610.598	1	-3
610.937	1	-5
611.277	1	0
611.616	1	-11
611.955	1	-7
612.295	1	1
612.634	1	-4
612.974	1	11
613.313	1	0
613.652	1	-14
613.992	1	2
614.331	1	6
614.671	1	1
615.010	1	3
615.349	1	2
615.689	1	-4
616.028	1	2
616.368	1	-8
616.707	1	-5
617.046	1	1
617.386	1	-8
617.725	1	5
618.064	1	5
618.404	1	8
618.743	1	-1
619.082	1	4
619.422	1	-3
619.761	1	-6
620.100	1	-3
620.440	1	-10
620.779	1	0
621.118	1	-1
621.458	1	12
621.797	1	-5
622.136	1	2
622.476	1	0
622.815	1	-8
623.154	1	0
623.494	1	4
623.833	1	-3
624.172	1	4
624.511	1	5
624.851	1	2
625.190	1	5
625.529	1	5
625.869	1	4
626.208	1	5
626.547	1	4
626.886	1	-6
627.226	1	5
627.565	1	10
627.904	1	-6
628.243	1	-13
628.583	1	-3
628.922	1	1
629.261	1	8
629.600	1	-1
629.940	1	7
630.279	1	7
630.618	1	0
630.957	1	-8
631.297	1	-2
631.636	1	2
631.975	1	3
632.314	1	10
632.653	1	-5
632.993	1	9
633.332	1	2
633.671	1	3
634.010	1	2
634.349	1	6
634.689	1	6
635.028	1	9
635.367	1	-8
635.706	1	-5
636.045	1	5
636.384	1	9
636.724	1	3
637.063	1	6
637.402	1	0
637.741	1	5
638.080	1	-2
638.419	1	-3
638.759	1	-5
639.098	1	-3
639.437	1	-9
639.776	1	-9
640.115	1	0
640.454	1	15
640.793	1	5
641.132	1	3
641.472	1	-11
641.811	1	-1
642.150	1	0
642.489	1	7
642.828	1	0
643.167	1	9
643.506	1	-3
643.845	1	-7
644.184	1	9
644.524	1	-2
644.863	1	-4
645.202	1	5
645.541	1	-10
645.880	1	6
646.219	1	1
646.558	1	1
646.897	1	-5
647.236	1	7
647.575	1	6
647.914	1	-1
648.253	1	0
648.592	1	4
648.931	1	0
649.270	1	3
649.610	1	11
649.949	1	3
650.288	1	4
650.627	1	0
650.966	1	3
651.305	1	-9
651.644	1	-6
651.983	1	1
652.322	1	12
652.661	1	0
653.000	1	-6
653.339	1	7
653.678	1	0
654.017	1	-8
654.356	1	8
654.695	1	1
655.034	1	-4
655.373	1	9
655.712	1	-10
656.051	1	4
656.390	1	1
656.729	1	4
657.068	1	-7
657.406	1	1
657.745	1	-14
658.084	1	4
658.423	1	-10
658.762	1	-6
659.101	1	6
659.440	1	7
659.779	1	2
660.118	1	1
660.457	1	-1
660.796	1	-1
661.135	1	1
661.474	1	-1
661.813	1	6
662.152	1	0
662.491	1	-1
662.829	1	0
663.168	1	0
663.507	1	0
663.846	1	15
664.185	1	-6
664.524	1	-13
664.863	1	4
665.202	1	0
665.541	1	2
665.879	1	-9
666.218	1	-5
666.557	1	-6
666.896	1	0
667.235	1	-3
667.574	1	3
667.913	1	2
668.251	1	4
668.590	1	-6
668.929	1	-5
669.268	1	3
669.607	1	-13
669.946	1	0
670.285	1	-3
670.623	1	9
670.962	1	-4
671.301	1	-3
671.640	1	-13
671.979	1	16
672.317	1	2
672.656	1	1
672.995	1	2
673.334	1	-2
673.673	1	9
674.011	1	4
674.350	1	-8
674.689	1	-4
675.028	1	0
675.367	1	10
675.705	1	-7
676.044	1	-1
676.383	1	-4
676.722	1	-10
677.060	1	3
677.399	1	4
677.738	1	1
678.077	1	0
678.416	1	-3
678.754	1	0
679.093	1	-2
679.432	1	-3
679.771	1	-5
680.109	1	2
680.448	1	-3
680.787	1	-1
681.125	1	3
681.464	1	-3
681.803	1	-9
682.142	1	9
682.480	1	-3
682.819	1	-1
683.158	1	2
683.496	1	-9
683.835	1	-5
684.174	1	-1
684.512	1	6
684.851	1	-2
685.190	1	-5
685.529	1	3
685.867	1	-5
686.206	1	4
686.545	1	10
686.883	1	-2
687.222	1	-1
687.561	1	2
687.899	1	-3
688.238	1	11
688.577	1	-10
688.746	1	3