File: Analysis/GaN_68K_200ms/GaN_sample E_spot4_UVVIS_68 K_200um_200 ms 2x2mm1_843.txt
340.368	1	-1
340.710	1	-8
341.052	1	4
341.394	1	-9
341.737	1	-2
342.079	1	-8
342.421	1	-10
342.763	1	-6
343.105	1	4
343.447	1	4
343.789	1	-1
344.131	1	-4
344.473	1	-5
344.815	1	3
345.157	1	7
345.499	1	1
345.841	1	-1
346.183	1	2
346.526	1	3
346.868	1	-1
347.210	1	-8
347.552	1	-6
347.894	1	1
348.236	1	1
348.578	1	3
348.920	1	7
349.262	1	-7
349.604	1	13
349.946	1	7
350.288	1	4
350.630	1	-10
350.972	1	-4
351.314	1	-2
351.656	1	-3
351.998	1	3
352.340	1	-9
352.682	1	0
353.024	1	-12
353.366	1	2
353.708	1	-5
354.050	1	-2
354.392	1	4
354.734	1	-2
355.076	1	7
355.418	1	-7
355.760	1	11
356.102	1	-6
356.444	1	2
356.785	1	8
357.127	1	-1
357.469	1	-14
357.811	1	9
358.153	1	2
358.495	1	10
358.837	1	-8
359.179	1	3
359.521	1	-2
359.863	1	-9
360.205	1	-8
360.547	1	-2
360.889	1	0
361.231	1	-1
361.572	1	-7
361.914	1	-4
362.256	1	11
362.598	1	0
362.940	1	0
363.282	1	0
363.624	1	3
363.966	1	1
364.308	1	-2
364.649	1	5
364.991	1	10
365.333	1	2
365.675	1	-6
366.017	1	4
366.359	1	1
366.701	1	-6
367.042	1	-4
367.384	1	5
367.726	1	7
368.068	1	4
368.410	1	3
368.752	1	-9
369.093	1	-4
369.435	1	3
369.777	1	-6
370.119	1	3
370.461	1	-8
370.803	1	-2
371.144	1	1
371.486	1	3
371.828	1	4
372.170	1	8
372.512	1	-1
372.853	1	10
373.195	1	1
373.537	1	0
373.879	1	3
374.220	1	-2
374.562	1	-3
374.904	1	-3
375.246	1	-7
375.588	1	-9
375.929	1	4
376.271	1	0
376.613	1	5
376.955	1	-9
377.296	1	10
377.638	1	-4
377.980	1	1
378.321	1	2
378.663	1	-9
379.005	1	8
379.347	1	1
379.688	1	-1
380.030	1	-8
380.372	1	-4
380.714	1	3
381.055	1	-1
381.397	1	-1
381.739	1	3
382.080	1	-19
382.422	1	10
382.764	1	0
383.105	1	2
383.447	1	11
383.789	1	4
384.130	1	-13
384.472	1	-10
384.814	1	-3
385.156	1	5
385.497	1	-6
385.839	1	3
386.180	1	5
386.522	1	-1
386.864	1	-9
387.205	1	-6
387.547	1	-5
387.889	1	13
388.230	1	-2
388.572	1	0
388.914	1	7
389.255	1	9
389.597	1	3
389.939	1	12
390.280	1	7
390.622	1	1
390.963	1	12
391.305	1	-2
391.647	1	-1
391.988	1	-6
392.330	1	4
392.671	1	7
393.013	1	10
393.355	1	4
393.696	1	-2
394.038	1	-9
394.379	1	-1
394.721	1	5
395.062	1	-5
395.404	1	5
395.746	1	-5
396.087	1	-4
396.429	1	-5
396.770	1	-7
397.112	1	-6
397.453	1	-7
397.795	1	1
398.136	1	7
398.478	1	3
398.819	1	10
399.161	1	-1
399.503	1	-13
399.844	1	-5
400.186	1	6
400.527	1	4
400.869	1	13
401.210	1	-17
401.552	1	11
401.893	1	1
402.235	1	8
402.576	1	3
402.918	1	-5
403.259	1	-6
403.601	1	-10
403.942	1	10
404.284	1	-1
404.625	1	1
404.967	1	4
405.308	1	-2
405.649	1	1
405.991	1	-1
406.332	1	0
406.674	1	-6
407.015	1	-9
407.357	1	-4
407.698	1	-6
408.040	1	-7
408.381	1	0
408.722	1	-7
409.064	1	3
409.405	1	4
409.747	1	-9
410.088	1	-1
410.430	1	1
410.771	1	7
411.112	1	4
411.454	1	-1
411.795	1	-7
412.137	1	3
412.478	1	-3
412.819	1	-6
413.161	1	-12
413.502	1	-7
413.844	1	3
414.185	1	0
414.526	1	4
414.868	1	3
415.209	1	-8
415.550	1	-2
415.892	1	0
416.233	1	8
416.575	1	-4
416.916	1	-12
417.257	1	7
417.599	1	1
417.940	1	0
418.281	1	-5
418.623	1	0
418.964	1	-3
419.305	1	-1
419.647	1	6
419.988	1	-8
420.329	1	-2
420.671	1	-3
421.012	1	13
421.353	1	7
421.695	1	8
422.036	1	-6
422.377	1	10
422.718	1	-10
423.060	1	-1
423.401	1	-10
423.742	1	-3
424.084	1	-2
424.425	1	-3
424.766	1	10
425.107	1	-1
425.449	1	3
425.790	1	1
426.131	1	0
426.472	1	-10
426.814	1	11
427.155	1	-3
427.496	1	6
427.837	1	-6
428.179	1	-6
428.520	1	-4
428.861	1	-5
429.202	1	3
429.544	1	-1
429.885	1	-1
430.226	1	-3
430.567	1	7
430.909	1	-4
431.250	1	-8
431.591	1	5
431.932	1	-2
432.273	1	0
432.615	1	-1
432.956	1	-3
433.297	1	4
433.638	1	-6
433.979	1	-7
434.320	1	-5
434.662	1	4
435.003	1	4
435.344	1	4
435.685	1	3
436.026	1	2
436.368	1	-2
436.709	1	-1
437.050	1	3
437.391	1	1
437.732	1	-3
438.073	1	7
438.414	1	5
438.756	1	0
439.097	1	-1
439.438	1	3
439.779	1	0
440.120	1	-7
440.461	1	-6
440.802	1	2
441.143	1	9
441.485	1	-5
441.826	1	-4
442.167	1	2
442.508	1	-6
442.849	1	3
443.190	1	-9
443.531	1	-1
443.872	1	5
444.213	1	-10
444.554	1	3
444.895	1	-3
445.237	1	2
445.578	1	7
445.919	1	3
446.260	1	3
446.601	1	3
446.942	1	-8
447.283	1	0
447.624	1	9
447.965	1	-9
448.306	1	-1
448.647	1	1
448.988	1	-3
449.329	1	-4
449.670	1	8
450.011	1	-3
450.352	1	7
450.693	1	7
451.034	1	0
451.375	1	5
451.716	1	8
452.057	1	2
452.398	1	7
452.739	1	-6
453.080	1	16
453.421	1	-1
453.762	1	10
454.103	1	3
454.444	1	2
454.785	1	-8
455.126	1	0
455.467	1	7
455.808	1	-1
456.149	1	-3
456.490	1	2
456.831	1	13
457.172	1	-5
457.513	1	5
457.854	1	2
458.195	1	-8
458.536	1	7
458.877	1	4
459.218	1	-1
459.559	1	4
459.899	1	7
460.240	1	2
460.581	1	-5
460.922	1	2
461.263	1	-4
461.604	1	-8
461.945	1	7
462.286	1	12
462.627	1	-4
462.968	1	-10
463.309	1	-4
463.649	1	7
463.990	1	0
464.331	1	1
464.672	1	-9
465.013	1	-10
465.354	1	-3
465.695	1	4
466.036	1	6
466.376	1	-6
466.717	1	-2
467.058	1	17
467.399	1	2
467.740	1	-5
468.081	1	4
468.422	1	0
468.762	1	-6
469.103	1	0
469.444	1	-10
469.785	1	10
470.126	1	7
470.467	1	-3
470.807	1	0
471.148	1	4
471.489	1	-7
471.830	1	3
472.171	1	5
472.511	1	11
472.852	1	-3
473.193	1	-8
473.534	1	-2
473.875	1	5
474.215	1	-9
474.556	1	-11
474.897	1	6
475.238	1	1
475.578	1	0
475.919	1	2
476.260	1	-4
476.601	1	6
476.942	1	-11
477.282	1	-12
477.623	1	9
477.964	1	9
478.305	1	3
478.645	1	-7
478.986	1	-5
479.327	1	-9
479.667	1	5
480.008	1	5
480.349	1	-3
480.690	1	-4
481.030	1	-1
481.371	1	0
481.712	1	3
482.053	1	7
482.393	1	-13
482.734	1	4
483.075	1	4
483.415	1	5
483.756	1	1
484.097	1	-8
484.437	1	-12
484.778	1	-5
485.119	1	1
485.459	1	7
485.800	1	-1
486.141	1	-16
486.481	1	0
486.822	1	13
487.163	1	-7
487.503	1	-9
487.844	1	-1
488.185	1	-3
488.525	1	-6
488.866	1	2
489.207	1	5
489.547	1	-8
489.888	1	0
490.228	1	-6
490.569	1	1
490.910	1	-6
491.250	1	5
491.591	1	-9
491.932	1	5
492.272	1	1
492.613	1	-5
492.953	1	1
493.294	1	5
493.635	1	-6
493.975	1	-1
494.316	1	3
494.656	1	0
494.997	1	-3
495.337	1	-7
495.678	1	8
496.019	1	-7
496.359	1	-4
496.700	1	2
497.040	1	2
497.381	1	-9
497.721	1	0
498.062	1	-10
498.403	1	7
498.743	1	12
499.084	1	-8
499.424	1	4
499.765	1	-6
500.105	1	6
500.446	1	12
500.786	1	6
501.127	1	6
501.467	1	-8
501.808	1	-12
502.148	1	-2
502.489	1	8
502.829	1	-1
503.170	1	9
503.510	1	0
503.851	1	-14
504.191	1	1
504.532	1	-9
504.872	1	-1
505.213	1	2
505.553	1	8
505.894	1	-5
506.234	1	-1
506.575	1	-2
506.915	1	-2
507.256	1	-5
507.596	1	-3
507.936	1	4
508.277	1	-15
508.617	1	1
508.958	1	9
509.298	1	13
509.639	1	7
509.979	1	3
510.319	1	-8
510.660	1	6
511.000	1	8
511.341	1	-3
511.681	1	0
512.022	1	-5
512.362	1	-5
512.702	1	-17
513.043	1	10
513.383	1	-2
513.724	1	6
514.064	1	3
514.404	1	0
514.745	1	-2
515.085	1	-7
515.425	1	-9
515.766	1	2
516.106	1	-1
516.447	1	6
516.787	1	-7
517.127	1	5
517.468	1	-8
517.808	1	3
518.148	1	-4
518.489	1	-5
518.829	1	-8
519.169	1	6
519.510	1	2
519.850	1	-2
520.190	1	2
520.531	1	5
520.871	1	-9
521.211	1	0
521.552	1	13
521.892	1	-11
522.232	1	-11
522.573	1	0
522.913	1	2
523.253	1	6
523.593	1	-10
523.934	1	-3
524.274	1	-9
524.614	1	2
524.955	1	1
525.295	1	-6
525.635	1	9
525.975	1	0
526.316	1	-6
526.656	1	8
526.996	1	9
527.337	1	-7
527.677	1	10
528.017	1	-3
528.357	1	14
528.698	1	-4
529.038	1	4
529.378	1	5
529.718	1	10
530.058	1	-2
530.399	1	3
530.739	1	-2
531.079	1	-3
531.419	1	4
531.760	1	7
532.100	1	4
532.440	1	4
532.780	1	5
533.120	1	-9
533.461	1	7
533.801	1	9
534.141	1	5
534.481	1	7
534.821	1	6
535.162	1	-1
535.502	1	7
535.842	1	-4
536.182	1	-5
536.522	1	7
536.862	1	-2
537.203	1	-1
537.543	1	2
537.883	1	4
538.223	1	6
538.563	1	-4
538.903	1	-10
539.243	1	-2
539.584	1	4
539.924	1	4
540.264	1	3
540.604	1	6
540.944	1	1
541.284	1	-9
541.624	1	2
541.964	1	3
542.305	1	-11
542.645	1	-9
542.985	1	-7
543.325	1	2
543.665	1	-1
544.005	1	-4
544.345	1	-13
544.685	1	11
545.025	1	-8
545.365	1	-4
545.705	1	4
546.045	1	8
546.386	1	-1
546.726	1	-3
547.066	1	4
547.406	1	9
547.746	1	15
548.086	1	-2
548.426	1	-10
548.766	1	-3
549.106	1	2
549.446	1	0
549.786	1	9
550.126	1	3
550.466	1	-8
550.806	1	8
551.146	1	-11
551.486	1	3
551.826	1	11
552.166	1	3
552.506	1	-4
552.846	1	2
553.186	1	6
553.526	1	-5
553.866	1	-3
554.206	1	3
554.546	1	-16
554.886	1	-1
555.226	1	-9
555.566	1	-7
555.906	1	6
556.246	1	-9
556.586	1	5
556.926	1	8
557.266	1	10
557.606	1	-7
557.946	1	5
558.286	1	3
558.626	1	10
558.966	1	-2
559.306	1	0
559.646	1	-10
559.986	1	-13
560.325	1	-10
560.665	1	4
561.005	1	-5
561.345	1	-4
561.685	1	2
562.025	1	1
562.365	1	2
562.705	1	4
563.045	1	7
563.385	1	-6
563.725	1	-1
564.064	1	10
564.404	1	-4
564.744	1	3
565.084	1	-9
565.424	1	-1
565.764	1	16
566.104	1	0
566.444	1	4
566.783	1	5
567.123	1	12
567.463	1	2
567.803	1	-4
568.143	1	-12
568.483	1	0
568.823	1	7
569.162	1	-6
569.502	1	-8
569.842	1	-1
570.182	1	-5
570.522	1	9
570.862	1	2
571.201	1	1
571.541	1	-8
571.881	1	2
572.221	1	5
572.561	1	-6
572.900	1	5
573.240	1	-1
573.580	1	-1
573.920	1	-4
574.260	1	-1
574.599	1	-2
574.939	1	-15
575.279	1	11
575.619	1	2
575.959	1	-12
576.298	1	-12
576.638	1	0
576.978	1	-3
577.318	1	6
577.657	1	-16
577.997	1	-8
578.337	1	-3
578.677	1	0
579.016	1	13
579.356	1	0
579.696	1	-2
580.036	1	7
580.375	1	-8
580.715	1	3
581.055	1	0
581.394	1	-4
581.734	1	-2
582.074	1	-9
582.414	1	6
582.753	1	-2
583.093	1	-4
583.433	1	-10
583.772	1	0
584.112	1	7
584.452	1	2
584.791	1	-9
585.131	1	-6
585.471	1	-2
585.811	1	-6
586.150	1	-1
586.490	1	-4
586.830	1	-6
587.169	1	-1
587.509	1	5
587.849	1	0
588.188	1	-4
588.528	1	9
588.867	1	0
589.207	1	-9
589.547	1	-9
589.886	1	-14
590.226	1	6
590.566	1	2
590.905	1	2
591.245	1	-6
591.585	1	-9
591.924	1	6
592.264	1	-4
592.603	1	-14
592.943	1	-7
593.283	1	9
593.622	1	9
593.962	1	6
594.301	1	17
594.641	1	-11
594.981	1	0
595.320	1	5
595.660	1	-2
595.999	1	-1
596.339	1	0
596.678	1	6
597.018	1	5
597.358	1	-3
597.697	1	5
598.037	1	8
598.376	1	9
598.716	1	-15
599.055	1	-2
599.395	1	11
599.734	1	1
600.074	1	-6
600.413	1	-1
600.753	1	-1
601.092	1	-10
601.432	1	-10
601.771	1	2
602.111	1	-12
602.451	1	-7
602.790	1	-3
603.130	1	2
603.469	1	-7
603.809	1	6
604.148	1	7
604.487	1	0
604.827	1	-11
605.166	1	-6
605.506	1	0
605.845	1	-2
606.185	1	1
606.524	1	3
606.864	1	0
607.203	1	7
607.543	1	-2
607.882	1	-3
608.222	1	6
608.561	1	3
608.901	1	5
609.240	1	-10
609.579	1	-10
609.919	1	0
610.258	1	12
610.598	1	-2
610.937	1	3
611.277	1	0
611.616	1	-5
611.955	1	15
612.295	1	-4
612.634	1	-2
612.974	1	5
613.313	1	2
613.652	1	-5
613.992	1	1
614.331	1	5
614.671	1	1
615.010	1	1
615.349	1	1
615.689	1	-4
616.028	1	1
616.368	1	1
616.707	1	-5
617.046	1	-4
617.386	1	-7
617.725	1	9
618.064	1	5
618.404	1	3
618.743	1	-1
619.082	1	4
619.422	1	-3
619.761	1	-7
620.100	1	4
620.440	1	1
620.779	1	-3
621.118	1	6
621.458	1	1
621.797	1	3
622.136	1	8
622.476	1	0
622.815	1	-4
623.154	1	5
623.494	1	1
623.833	1	0
624.172	1	17
624.511	1	0
624.851	1	-12
625.190	1	-1
625.529	1	-1
625.869	1	3
626.208	1	-1
626.547	1	0
626.886	1	-15
627.226	1	-1
627.565	1	9
627.904	1	-1
628.243	1	-11
628.583	1	-1
628.922	1	0
629.261	1	9
629.600	1	-10
629.940	1	9
630.279	1	-8
630.618	1	-12
630.957	1	-1
631.297	1	-4
631.636	1	-6
631.975	1	-2
632.314	1	7
632.653	1	-10
632.993	1	-2
633.332	1	7
633.671	1	3
634.010	1	4
634.349	1	-2
634.689	1	5
635.028	1	1
635.367	1	5
635.706	1	-11
636.045	1	-1
636.384	1	1
636.724	1	1
637.063	1	0
637.402	1	14
637.741	1	3
638.080	1	-2
638.419	1	4
638.759	1	-1
639.098	1	0
639.437	1	-1
639.776	1	-4
640.115	1	-2
640.454	1	3
640.793	1	7
641.132	1	6
641.472	1	-3
641.811	1	0
642.150	1	-6
642.489	1	1
642.828	1	-3
643.167	1	5
643.506	1	6
643.845	1	-5
644.184	1	4
644.524	1	-4
644.863	1	-8
645.202	1	7
645.541	1	-7
645.880	1	5
646.219	1	-7
646.558	1	-1
646.897	1	-9
647.236	1	5
647.575	1	0
647.914	1	-9
648.253	1	2
648.592	1	5
648.931	1	4
649.270	1	9
649.610	1	9
649.949	1	2
650.288	1	-2
650.627	1	-8
650.966	1	-2
651.305	1	-5
651.644	1	-2
651.983	1	3
652.322	1	5
652.661	1	1
653.000	1	-2
653.339	1	8
653.678	1	-6
654.017	1	-1
654.356	1	2
654.695	1	3
655.034	1	2
655.373	1	-6
655.712	1	-11
656.051	1	6
656.390	1	1
656.729	1	6
657.068	1	2
657.406	1	14
657.745	1	-3
658.084	1	6
658.423	1	-8
658.762	1	1
659.101	1	-8
659.440	1	2
659.779	1	-5
660.118	1	6
660.457	1	-2
660.796	1	-6
661.135	1	-1
661.474	1	1
661.813	1	-1
662.152	1	-3
662.491	1	-8
662.829	1	-4
663.168	1	-8
663.507	1	-5
663.846	1	8
664.185	1	-1
664.524	1	-9
664.863	1	1
665.202	1	-11
665.541	1	3
665.879	1	-2
666.218	1	-15
666.557	1	0
666.896	1	-6
667.235	1	1
667.574	1	6
667.913	1	-3
668.251	1	-4
668.590	1	0
668.929	1	7
669.268	1	-2
669.607	1	-4
669.946	1	2
670.285	1	9
670.623	1	-5
670.962	1	-2
671.301	1	-3
671.640	1	-17
671.979	1	14
672.317	1	-6
672.656	1	4
672.995	1	3
673.334	1	8
673.673	1	15
674.011	1	3
674.350	1	-2
674.689	1	-11
675.028	1	8
675.367	1	2
675.705	1	-10
676.044	1	-6
676.383	1	-6
676.722	1	0
677.060	1	0
677.399	1	9
677.738	1	-8
678.077	1	2
678.416	1	4
678.754	1	1
679.093	1	7
679.432	1	-9
679.771	1	-12
680.109	1	5
680.448	1	-1
680.787	1	-1
681.125	1	-5
681.464	1	2
681.803	1	-6
682.142	1	7
682.480	1	2
682.819	1	-1
683.158	1	-3
683.496	1	-2
683.835	1	3
684.174	1	4
684.512	1	2
684.851	1	-3
685.190	1	2
685.529	1	0
685.867	1	-4
686.206	1	5
686.545	1	3
686.883	1	-9
687.222	1	-3
687.561	1	3
687.899	1	0
688.238	1	-1
688.577	1	-12
688.746	1	2