File: Analysis/GaN_68K_200ms/GaN_sample E_spot4_UVVIS_68 K_200um_200 ms 2x2mm1_403.txt
340.368	1	3
340.710	1	-6
341.052	1	3
341.394	1	-11
341.737	1	2
342.079	1	-8
342.421	1	-1
342.763	1	0
343.105	1	10
343.447	1	-5
343.789	1	3
344.131	1	-2
344.473	1	1
344.815	1	8
345.157	1	3
345.499	1	8
345.841	1	6
346.183	1	-6
346.526	1	11
346.868	1	4
347.210	1	-2
347.552	1	0
347.894	1	1
348.236	1	0
348.578	1	-2
348.920	1	6
349.262	1	8
349.604	1	10
349.946	1	5
350.288	1	-1
350.630	1	-10
350.972	1	-1
351.314	1	-1
351.656	1	0
351.998	1	-5
352.340	1	1
352.682	1	-1
353.024	1	-5
353.366	1	-6
353.708	1	-1
354.050	1	6
354.392	1	7
354.734	1	-7
355.076	1	-1
355.418	1	3
355.760	1	4
356.102	1	-10
356.444	1	-3
356.785	1	7
357.127	1	7
357.469	1	0
357.811	1	13
358.153	1	4
358.495	1	2
358.837	1	6
359.179	1	2
359.521	1	-3
359.863	1	-2
360.205	1	5
360.547	1	2
360.889	1	15
361.231	1	5
361.572	1	-2
361.914	1	-1
362.256	1	8
362.598	1	5
362.940	1	3
363.282	1	8
363.624	1	8
363.966	1	4
364.308	1	3
364.649	1	3
364.991	1	6
365.333	1	13
365.675	1	-1
366.017	1	16
366.359	1	1
366.701	1	7
367.042	1	17
367.384	1	9
367.726	1	12
368.068	1	3
368.410	1	-4
368.752	1	-4
369.093	1	-3
369.435	1	4
369.777	1	1
370.119	1	3
370.461	1	-3
370.803	1	-2
371.144	1	6
371.486	1	8
371.828	1	10
372.170	1	4
372.512	1	3
372.853	1	4
373.195	1	-17
373.537	1	10
373.879	1	2
374.220	1	1
374.562	1	-2
374.904	1	0
375.246	1	3
375.588	1	6
375.929	1	0
376.271	1	-7
376.613	1	1
376.955	1	-4
377.296	1	13
377.638	1	5
377.980	1	5
378.321	1	2
378.663	1	-7
379.005	1	7
379.347	1	11
379.688	1	-3
380.030	1	-12
380.372	1	2
380.714	1	17
381.055	1	0
381.397	1	0
381.739	1	11
382.080	1	-2
382.422	1	8
382.764	1	1
383.105	1	2
383.447	1	5
383.789	1	4
384.130	1	-2
384.472	1	0
384.814	1	2
385.156	1	14
385.497	1	12
385.839	1	8
386.180	1	13
386.522	1	5
386.864	1	9
387.205	1	3
387.547	1	2
387.889	1	14
388.230	1	-2
388.572	1	4
388.914	1	9
389.255	1	10
389.597	1	-5
389.939	1	12
390.280	1	12
390.622	1	2
390.963	1	11
391.305	1	4
391.647	1	9
391.988	1	-8
392.330	1	12
392.671	1	13
393.013	1	15
393.355	1	12
393.696	1	10
394.038	1	8
394.379	1	2
394.721	1	5
395.062	1	-17
395.404	1	5
395.746	1	-3
396.087	1	1
396.429	1	-1
396.770	1	8
397.112	1	1
397.453	1	-8
397.795	1	12
398.136	1	6
398.478	1	3
398.819	1	11
399.161	1	8
399.503	1	10
399.844	1	5
400.186	1	8
400.527	1	14
400.869	1	4
401.210	1	1
401.552	1	20
401.893	1	8
402.235	1	5
402.576	1	9
402.918	1	-3
403.259	1	-6
403.601	1	2
403.942	1	6
404.284	1	4
404.625	1	2
404.967	1	6
405.308	1	6
405.649	1	6
405.991	1	6
406.332	1	1
406.674	1	1
407.015	1	-3
407.357	1	3
407.698	1	-3
408.040	1	-6
408.381	1	8
408.722	1	-4
409.064	1	3
409.405	1	8
409.747	1	-3
410.088	1	13
410.430	1	4
410.771	1	7
411.112	1	1
411.454	1	13
411.795	1	2
412.137	1	17
412.478	1	9
412.819	1	-1
413.161	1	1
413.502	1	3
413.844	1	4
414.185	1	2
414.526	1	6
414.868	1	12
415.209	1	-1
415.550	1	-10
415.892	1	-7
416.233	1	10
416.575	1	-6
416.916	1	5
417.257	1	7
417.599	1	11
417.940	1	2
418.281	1	1
418.623	1	5
418.964	1	4
419.305	1	-3
419.647	1	4
419.988	1	6
420.329	1	3
420.671	1	8
421.012	1	9
421.353	1	10
421.695	1	2
422.036	1	9
422.377	1	3
422.718	1	-4
423.060	1	6
423.401	1	14
423.742	1	3
424.084	1	7
424.425	1	-7
424.766	1	6
425.107	1	1
425.449	1	6
425.790	1	-9
426.131	1	5
426.472	1	-6
426.814	1	14
427.155	1	3
427.496	1	17
427.837	1	1
428.179	1	-7
428.520	1	-6
428.861	1	4
429.202	1	3
429.544	1	2
429.885	1	6
430.226	1	-7
430.567	1	11
430.909	1	-12
431.250	1	-6
431.591	1	9
431.932	1	7
432.273	1	-5
432.615	1	4
432.956	1	4
433.297	1	12
433.638	1	2
433.979	1	6
434.320	1	-7
434.662	1	-2
435.003	1	1
435.344	1	4
435.685	1	13
436.026	1	-1
436.368	1	7
436.709	1	-3
437.050	1	6
437.391	1	5
437.732	1	3
438.073	1	4
438.414	1	0
438.756	1	8
439.097	1	11
439.438	1	4
439.779	1	-8
440.120	1	-6
440.461	1	-1
440.802	1	6
441.143	1	5
441.485	1	-12
441.826	1	-10
442.167	1	0
442.508	1	9
442.849	1	5
443.190	1	-7
443.531	1	6
443.872	1	5
444.213	1	0
444.554	1	-2
444.895	1	1
445.237	1	-2
445.578	1	7
445.919	1	-3
446.260	1	9
446.601	1	-6
446.942	1	1
447.283	1	-5
447.624	1	4
447.965	1	-10
448.306	1	0
448.647	1	13
448.988	1	2
449.329	1	-4
449.670	1	5
450.011	1	4
450.352	1	6
450.693	1	-5
451.034	1	8
451.375	1	2
451.716	1	8
452.057	1	9
452.398	1	10
452.739	1	-3
453.080	1	17
453.421	1	7
453.762	1	7
454.103	1	2
454.444	1	7
454.785	1	-4
455.126	1	4
455.467	1	8
455.808	1	-8
456.149	1	-4
456.490	1	2
456.831	1	8
457.172	1	4
457.513	1	14
457.854	1	6
458.195	1	-3
458.536	1	10
458.877	1	-2
459.218	1	7
459.559	1	1
459.899	1	9
460.240	1	5
460.581	1	11
460.922	1	2
461.263	1	4
461.604	1	7
461.945	1	12
462.286	1	15
462.627	1	-10
462.968	1	2
463.309	1	2
463.649	1	9
463.990	1	4
464.331	1	3
464.672	1	1
465.013	1	-9
465.354	1	4
465.695	1	2
466.036	1	0
466.376	1	1
466.717	1	-5
467.058	1	9
467.399	1	5
467.740	1	2
468.081	1	1
468.422	1	7
468.762	1	-5
469.103	1	-5
469.444	1	-1
469.785	1	12
470.126	1	5
470.467	1	-5
470.807	1	3
471.148	1	0
471.489	1	3
471.830	1	24
472.171	1	5
472.511	1	-4
472.852	1	-15
473.193	1	-10
473.534	1	-10
473.875	1	6
474.215	1	-5
474.556	1	-10
474.897	1	-1
475.238	1	5
475.578	1	-10
475.919	1	2
476.260	1	1
476.601	1	4
476.942	1	0
477.282	1	-6
477.623	1	8
477.964	1	3
478.305	1	3
478.645	1	-1
478.986	1	-3
479.327	1	1
479.667	1	6
480.008	1	7
480.349	1	1
480.690	1	6
481.030	1	-5
481.371	1	2
481.712	1	6
482.053	1	5
482.393	1	-8
482.734	1	6
483.075	1	13
483.415	1	6
483.756	1	8
484.097	1	-12
484.437	1	-16
484.778	1	9
485.119	1	8
485.459	1	10
485.800	1	-7
486.141	1	-2
486.481	1	4
486.822	1	-2
487.163	1	-8
487.503	1	-10
487.844	1	9
488.185	1	-5
488.525	1	-1
488.866	1	7
489.207	1	8
489.547	1	-3
489.888	1	-3
490.228	1	-8
490.569	1	16
490.910	1	4
491.250	1	3
491.591	1	-3
491.932	1	-4
492.272	1	0
492.613	1	1
492.953	1	1
493.294	1	2
493.635	1	-10
493.975	1	-1
494.316	1	8
494.656	1	4
494.997	1	-7
495.337	1	8
495.678	1	6
496.019	1	-6
496.359	1	8
496.700	1	5
497.040	1	-2
497.381	1	-11
497.721	1	2
498.062	1	1
498.403	1	-2
498.743	1	4
499.084	1	-8
499.424	1	12
499.765	1	-1
500.105	1	5
500.446	1	3
500.786	1	7
501.127	1	6
501.467	1	4
501.808	1	-4
502.148	1	8
502.489	1	10
502.829	1	-6
503.170	1	10
503.510	1	5
503.851	1	-7
504.191	1	0
504.532	1	-4
504.872	1	2
505.213	1	3
505.553	1	7
505.894	1	6
506.234	1	7
506.575	1	-3
506.915	1	4
507.256	1	0
507.596	1	7
507.936	1	-1
508.277	1	0
508.617	1	9
508.958	1	8
509.298	1	18
509.639	1	13
509.979	1	-1
510.319	1	-7
510.660	1	5
511.000	1	9
511.341	1	-10
511.681	1	4
512.022	1	-2
512.362	1	4
512.702	1	-4
513.043	1	0
513.383	1	0
513.724	1	13
514.064	1	14
514.404	1	3
514.745	1	-3
515.085	1	2
515.425	1	-7
515.766	1	11
516.106	1	2
516.447	1	-1
516.787	1	3
517.127	1	7
517.468	1	5
517.808	1	-2
518.148	1	1
518.489	1	12
518.829	1	0
519.169	1	9
519.510	1	3
519.850	1	1
520.190	1	-4
520.531	1	-2
520.871	1	-1
521.211	1	4
521.552	1	6
521.892	1	-7
522.232	1	-4
522.573	1	-1
522.913	1	3
523.253	1	-2
523.593	1	-13
523.934	1	12
524.274	1	6
524.614	1	5
524.955	1	6
525.295	1	-3
525.635	1	11
525.975	1	-3
526.316	1	-1
526.656	1	20
526.996	1	6
527.337	1	1
527.677	1	19
528.017	1	-6
528.357	1	6
528.698	1	-1
529.038	1	-5
529.378	1	5
529.718	1	-4
530.058	1	-2
530.399	1	6
530.739	1	-4
531.079	1	5
531.419	1	11
531.760	1	2
532.100	1	6
532.440	1	0
532.780	1	-1
533.120	1	-6
533.461	1	13
533.801	1	14
534.141	1	15
534.481	1	4
534.821	1	9
535.162	1	11
535.502	1	9
535.842	1	-1
536.182	1	-3
536.522	1	5
536.862	1	9
537.203	1	7
537.543	1	10
537.883	1	8
538.223	1	2
538.563	1	-1
538.903	1	5
539.243	1	-2
539.584	1	-1
539.924	1	5
540.264	1	7
540.604	1	7
540.944	1	3
541.284	1	2
541.624	1	-3
541.964	1	5
542.305	1	-5
542.645	1	12
542.985	1	-7
543.325	1	1
543.665	1	8
544.005	1	7
544.345	1	-9
544.685	1	1
545.025	1	-9
545.365	1	8
545.705	1	12
546.045	1	10
546.386	1	12
546.726	1	2
547.066	1	1
547.406	1	23
547.746	1	12
548.086	1	2
548.426	1	-6
548.766	1	12
549.106	1	17
549.446	1	9
549.786	1	7
550.126	1	-2
550.466	1	1
550.806	1	9
551.146	1	-3
551.486	1	-1
551.826	1	12
552.166	1	6
552.506	1	-8
552.846	1	11
553.186	1	-2
553.526	1	2
553.866	1	1
554.206	1	7
554.546	1	-9
554.886	1	7
555.226	1	-2
555.566	1	8
555.906	1	4
556.246	1	-8
556.586	1	7
556.926	1	8
557.266	1	14
557.606	1	-2
557.946	1	14
558.286	1	6
558.626	1	10
558.966	1	4
559.306	1	1
559.646	1	-1
559.986	1	-8
560.325	1	-3
560.665	1	4
561.005	1	6
561.345	1	17
561.685	1	-1
562.025	1	-13
562.365	1	7
562.705	1	3
563.045	1	4
563.385	1	-3
563.725	1	2
564.064	1	17
564.404	1	2
564.744	1	8
565.084	1	-6
565.424	1	-8
565.764	1	13
566.104	1	-2
566.444	1	8
566.783	1	-4
567.123	1	15
567.463	1	3
567.803	1	-4
568.143	1	-11
568.483	1	-9
568.823	1	5
569.162	1	14
569.502	1	1
569.842	1	3
570.182	1	-4
570.522	1	2
570.862	1	3
571.201	1	15
571.541	1	0
571.881	1	3
572.221	1	1
572.561	1	-8
572.900	1	16
573.240	1	-4
573.580	1	6
573.920	1	-8
574.260	1	-7
574.599	1	3
574.939	1	-8
575.279	1	8
575.619	1	0
575.959	1	-2
576.298	1	-1
576.638	1	3
576.978	1	4
577.318	1	7
577.657	1	-5
577.997	1	-13
578.337	1	-2
578.677	1	-1
579.016	1	11
579.356	1	8
579.696	1	11
580.036	1	-1
580.375	1	-5
580.715	1	13
581.055	1	6
581.394	1	-5
581.734	1	9
582.074	1	-1
582.414	1	-4
582.753	1	16
583.093	1	5
583.433	1	-1
583.772	1	0
584.112	1	4
584.452	1	0
584.791	1	4
585.131	1	3
585.471	1	-1
585.811	1	4
586.150	1	-3
586.490	1	-3
586.830	1	4
587.169	1	0
587.509	1	9
587.849	1	17
588.188	1	-6
588.528	1	6
588.867	1	6
589.207	1	-10
589.547	1	-2
589.886	1	-12
590.226	1	6
590.566	1	2
590.905	1	12
591.245	1	-1
591.585	1	1
591.924	1	-4
592.264	1	8
592.603	1	-5
592.943	1	-6
593.283	1	2
593.622	1	-4
593.962	1	2
594.301	1	10
594.641	1	-7
594.981	1	-2
595.320	1	3
595.660	1	-5
595.999	1	1
596.339	1	9
596.678	1	-1
597.018	1	-1
597.358	1	-3
597.697	1	-2
598.037	1	-4
598.376	1	8
598.716	1	-4
599.055	1	3
599.395	1	4
599.734	1	1
600.074	1	3
600.413	1	3
600.753	1	2
601.092	1	-11
601.432	1	-4
601.771	1	6
602.111	1	-5
602.451	1	5
602.790	1	-6
603.130	1	5
603.469	1	0
603.809	1	12
604.148	1	8
604.487	1	7
604.827	1	-8
605.166	1	-8
605.506	1	7
605.845	1	1
606.185	1	-9
606.524	1	-7
606.864	1	-6
607.203	1	17
607.543	1	-5
607.882	1	-5
608.222	1	14
608.561	1	7
608.901	1	-2
609.240	1	-6
609.579	1	1
609.919	1	5
610.258	1	13
610.598	1	4
610.937	1	-2
611.277	1	9
611.616	1	-8
611.955	1	5
612.295	1	-1
612.634	1	-3
612.974	1	3
613.313	1	11
613.652	1	5
613.992	1	4
614.331	1	11
614.671	1	2
615.010	1	1
615.349	1	0
615.689	1	-2
616.028	1	5
616.368	1	-12
616.707	1	1
617.046	1	2
617.386	1	0
617.725	1	15
618.064	1	4
618.404	1	5
618.743	1	8
619.082	1	5
619.422	1	4
619.761	1	1
620.100	1	-1
620.440	1	9
620.779	1	0
621.118	1	-2
621.458	1	0
621.797	1	0
622.136	1	4
622.476	1	4
622.815	1	-3
623.154	1	1
623.494	1	2
623.833	1	5
624.172	1	14
624.511	1	-5
624.851	1	-5
625.190	1	-1
625.529	1	0
625.869	1	12
626.208	1	0
626.547	1	4
626.886	1	-2
627.226	1	10
627.565	1	18
627.904	1	-2
628.243	1	-5
628.583	1	0
628.922	1	3
629.261	1	4
629.600	1	7
629.940	1	5
630.279	1	-8
630.618	1	2
630.957	1	-1
631.297	1	-7
631.636	1	5
631.975	1	1
632.314	1	17
632.653	1	1
632.993	1	6
633.332	1	10
633.671	1	0
634.010	1	-4
634.349	1	3
634.689	1	5
635.028	1	0
635.367	1	-2
635.706	1	2
636.045	1	8
636.384	1	3
636.724	1	0
637.063	1	3
637.402	1	5
637.741	1	11
638.080	1	9
638.419	1	2
638.759	1	6
639.098	1	1
639.437	1	0
639.776	1	-1
640.115	1	-6
640.454	1	14
640.793	1	10
641.132	1	13
641.472	1	-5
641.811	1	3
642.150	1	4
642.489	1	-11
642.828	1	-5
643.167	1	8
643.506	1	-5
643.845	1	7
644.184	1	2
644.524	1	-6
644.863	1	-9
645.202	1	11
645.541	1	-11
645.880	1	7
646.219	1	-9
646.558	1	-5
646.897	1	-4
647.236	1	8
647.575	1	1
647.914	1	1
648.253	1	7
648.592	1	-2
648.931	1	3
649.270	1	14
649.610	1	17
649.949	1	-3
650.288	1	-9
650.627	1	-10
650.966	1	-3
651.305	1	3
651.644	1	7
651.983	1	6
652.322	1	1
652.661	1	4
653.000	1	-2
653.339	1	11
653.678	1	5
654.017	1	4
654.356	1	1
654.695	1	-3
655.034	1	2
655.373	1	-2
655.712	1	-13
656.051	1	11
656.390	1	1
656.729	1	2
657.068	1	-4
657.406	1	4
657.745	1	-5
658.084	1	10
658.423	1	-13
658.762	1	-6
659.101	1	-2
659.440	1	20
659.779	1	-4
660.118	1	-1
660.457	1	-2
660.796	1	-2
661.135	1	0
661.474	1	4
661.813	1	8
662.152	1	0
662.491	1	3
662.829	1	-1
663.168	1	-8
663.507	1	-2
663.846	1	7
664.185	1	2
664.524	1	-10
664.863	1	-2
665.202	1	-2
665.541	1	-3
665.879	1	-6
666.218	1	-11
666.557	1	-1
666.896	1	-7
667.235	1	-5
667.574	1	10
667.913	1	5
668.251	1	-2
668.590	1	1
668.929	1	1
669.268	1	8
669.607	1	2
669.946	1	11
670.285	1	4
670.623	1	3
670.962	1	3
671.301	1	-7
671.640	1	-13
671.979	1	7
672.317	1	10
672.656	1	2
672.995	1	4
673.334	1	6
673.673	1	17
674.011	1	9
674.350	1	0
674.689	1	1
675.028	1	-4
675.367	1	-1
675.705	1	-6
676.044	1	2
676.383	1	2
676.722	1	-3
677.060	1	2
677.399	1	3
677.738	1	-6
678.077	1	9
678.416	1	4
678.754	1	-9
679.093	1	-3
679.432	1	-2
679.771	1	-8
680.109	1	3
680.448	1	5
680.787	1	3
681.125	1	7
681.464	1	3
681.803	1	-17
682.142	1	15
682.480	1	-2
682.819	1	6
683.158	1	1
683.496	1	-9
683.835	1	8
684.174	1	-2
684.512	1	2
684.851	1	-6
685.190	1	5
685.529	1	4
685.867	1	5
686.206	1	1
686.545	1	1
686.883	1	-13
687.222	1	3
687.561	1	-2
687.899	1	4
688.238	1	0
688.577	1	-1
688.746	1	7