File: Analysis/GaN_68K_200ms/GaN_sample E_spot4_UVVIS_68 K_200um_200 ms 2x2mm1_702.txt
340.368	1	5
340.710	1	-1
341.052	1	4
341.394	1	-6
341.737	1	5
342.079	1	-5
342.421	1	-4
342.763	1	-1
343.105	1	10
343.447	1	3
343.789	1	-2
344.131	1	-7
344.473	1	6
344.815	1	-3
345.157	1	-1
345.499	1	0
345.841	1	3
346.183	1	-4
346.526	1	5
346.868	1	4
347.210	1	2
347.552	1	-7
347.894	1	2
348.236	1	2
348.578	1	2
348.920	1	10
349.262	1	-6
349.604	1	15
349.946	1	1
350.288	1	-4
350.630	1	-5
350.972	1	-2
351.314	1	-7
351.656	1	4
351.998	1	-2
352.340	1	5
352.682	1	-1
353.024	1	-8
353.366	1	3
353.708	1	0
354.050	1	11
354.392	1	-4
354.734	1	12
355.076	1	8
355.418	1	0
355.760	1	3
356.102	1	-7
356.444	1	3
356.785	1	2
357.127	1	-3
357.469	1	2
357.811	1	3
358.153	1	-1
358.495	1	15
358.837	1	4
359.179	1	1
359.521	1	-2
359.863	1	-7
360.205	1	-5
360.547	1	-3
360.889	1	5
361.231	1	5
361.572	1	-2
361.914	1	-4
362.256	1	3
362.598	1	4
362.940	1	-4
363.282	1	11
363.624	1	4
363.966	1	5
364.308	1	1
364.649	1	1
364.991	1	1
365.333	1	11
365.675	1	-2
366.017	1	-2
366.359	1	5
366.701	1	-11
367.042	1	4
367.384	1	-2
367.726	1	10
368.068	1	-10
368.410	1	-1
368.752	1	-8
369.093	1	4
369.435	1	-1
369.777	1	-2
370.119	1	3
370.461	1	1
370.803	1	-5
371.144	1	7
371.486	1	6
371.828	1	4
372.170	1	9
372.512	1	-8
372.853	1	7
373.195	1	-6
373.537	1	-2
373.879	1	10
374.220	1	2
374.562	1	3
374.904	1	0
375.246	1	6
375.588	1	1
375.929	1	0
376.271	1	0
376.613	1	-1
376.955	1	-8
377.296	1	9
377.638	1	0
377.980	1	6
378.321	1	-5
378.663	1	-1
379.005	1	15
379.347	1	-1
379.688	1	-4
380.030	1	-3
380.372	1	0
380.714	1	-1
381.055	1	-5
381.397	1	-3
381.739	1	5
382.080	1	-11
382.422	1	1
382.764	1	-1
383.105	1	-1
383.447	1	9
383.789	1	-2
384.130	1	-4
384.472	1	-5
384.814	1	0
385.156	1	2
385.497	1	3
385.839	1	3
386.180	1	9
386.522	1	0
386.864	1	-5
387.205	1	-12
387.547	1	-8
387.889	1	11
388.230	1	1
388.572	1	-2
388.914	1	7
389.255	1	-1
389.597	1	-1
389.939	1	8
390.280	1	6
390.622	1	-5
390.963	1	3
391.305	1	12
391.647	1	2
391.988	1	-4
392.330	1	13
392.671	1	3
393.013	1	12
393.355	1	11
393.696	1	-8
394.038	1	2
394.379	1	-1
394.721	1	-2
395.062	1	-9
395.404	1	5
395.746	1	-1
396.087	1	1
396.429	1	-2
396.770	1	1
397.112	1	-3
397.453	1	-7
397.795	1	5
398.136	1	-5
398.478	1	2
398.819	1	11
399.161	1	2
399.503	1	-2
399.844	1	-1
400.186	1	9
400.527	1	-1
400.869	1	13
401.210	1	-2
401.552	1	9
401.893	1	3
402.235	1	12
402.576	1	6
402.918	1	-6
403.259	1	-5
403.601	1	-7
403.942	1	2
404.284	1	6
404.625	1	-1
404.967	1	-6
405.308	1	0
405.649	1	2
405.991	1	7
406.332	1	-4
406.674	1	2
407.015	1	-7
407.357	1	0
407.698	1	-3
408.040	1	-8
408.381	1	0
408.722	1	-9
409.064	1	-6
409.405	1	3
409.747	1	3
410.088	1	0
410.430	1	4
410.771	1	-3
411.112	1	6
411.454	1	12
411.795	1	-2
412.137	1	-1
412.478	1	0
412.819	1	-8
413.161	1	-2
413.502	1	-3
413.844	1	-4
414.185	1	7
414.526	1	8
414.868	1	3
415.209	1	2
415.550	1	-6
415.892	1	1
416.233	1	1
416.575	1	-5
416.916	1	2
417.257	1	5
417.599	1	1
417.940	1	-1
418.281	1	-5
418.623	1	-2
418.964	1	1
419.305	1	-3
419.647	1	11
419.988	1	-2
420.329	1	1
420.671	1	-4
421.012	1	8
421.353	1	-3
421.695	1	-3
422.036	1	5
422.377	1	2
422.718	1	-1
423.060	1	-4
423.401	1	-3
423.742	1	-3
424.084	1	2
424.425	1	6
424.766	1	2
425.107	1	11
425.449	1	0
425.790	1	-12
426.131	1	-1
426.472	1	-1
426.814	1	18
427.155	1	-2
427.496	1	4
427.837	1	0
428.179	1	-13
428.520	1	-9
428.861	1	0
429.202	1	9
429.544	1	-1
429.885	1	-9
430.226	1	-4
430.567	1	11
430.909	1	-14
431.250	1	-2
431.591	1	11
431.932	1	2
432.273	1	-9
432.615	1	-1
432.956	1	-6
433.297	1	6
433.638	1	1
433.979	1	8
434.320	1	0
434.662	1	-5
435.003	1	-1
435.344	1	7
435.685	1	0
436.026	1	8
436.368	1	-4
436.709	1	-7
437.050	1	9
437.391	1	4
437.732	1	0
438.073	1	3
438.414	1	-2
438.756	1	4
439.097	1	5
439.438	1	9
439.779	1	-12
440.120	1	-3
440.461	1	4
440.802	1	4
441.143	1	17
441.485	1	0
441.826	1	-6
442.167	1	2
442.508	1	-2
442.849	1	3
443.190	1	-3
443.531	1	-6
443.872	1	-3
444.213	1	-2
444.554	1	2
444.895	1	7
445.237	1	2
445.578	1	4
445.919	1	-1
446.260	1	4
446.601	1	-1
446.942	1	-3
447.283	1	-6
447.624	1	8
447.965	1	-12
448.306	1	-4
448.647	1	5
448.988	1	-9
449.329	1	1
449.670	1	4
450.011	1	2
450.352	1	-5
450.693	1	8
451.034	1	10
451.375	1	8
451.716	1	2
452.057	1	7
452.398	1	-4
452.739	1	-3
453.080	1	3
453.421	1	6
453.762	1	10
454.103	1	1
454.444	1	13
454.785	1	-6
455.126	1	2
455.467	1	5
455.808	1	7
456.149	1	-2
456.490	1	4
456.831	1	5
457.172	1	-2
457.513	1	10
457.854	1	1
458.195	1	-5
458.536	1	1
458.877	1	4
459.218	1	7
459.559	1	-3
459.899	1	3
460.240	1	2
460.581	1	0
460.922	1	1
461.263	1	-2
461.604	1	4
461.945	1	-1
462.286	1	3
462.627	1	1
462.968	1	-14
463.309	1	-3
463.649	1	4
463.990	1	-4
464.331	1	-2
464.672	1	-1
465.013	1	-8
465.354	1	4
465.695	1	6
466.036	1	-1
466.376	1	0
466.717	1	-4
467.058	1	1
467.399	1	8
467.740	1	1
468.081	1	-6
468.422	1	6
468.762	1	-10
469.103	1	-6
469.444	1	2
469.785	1	8
470.126	1	3
470.467	1	-5
470.807	1	-4
471.148	1	-14
471.489	1	-4
471.830	1	13
472.171	1	-3
472.511	1	6
472.852	1	-6
473.193	1	2
473.534	1	4
473.875	1	7
474.215	1	-2
474.556	1	-19
474.897	1	2
475.238	1	2
475.578	1	0
475.919	1	4
476.260	1	-2
476.601	1	4
476.942	1	1
477.282	1	-9
477.623	1	2
477.964	1	7
478.305	1	3
478.645	1	-4
478.986	1	8
479.327	1	-6
479.667	1	3
480.008	1	1
480.349	1	1
480.690	1	-1
481.030	1	-2
481.371	1	2
481.712	1	15
482.053	1	4
482.393	1	-12
482.734	1	-1
483.075	1	3
483.415	1	12
483.756	1	7
484.097	1	-1
484.437	1	-12
484.778	1	-4
485.119	1	8
485.459	1	4
485.800	1	1
486.141	1	-1
486.481	1	-2
486.822	1	11
487.163	1	-2
487.503	1	-5
487.844	1	8
488.185	1	-14
488.525	1	0
488.866	1	0
489.207	1	15
489.547	1	2
489.888	1	-7
490.228	1	-7
490.569	1	6
490.910	1	-11
491.250	1	12
491.591	1	-5
491.932	1	-1
492.272	1	6
492.613	1	-2
492.953	1	1
493.294	1	0
493.635	1	-2
493.975	1	0
494.316	1	13
494.656	1	4
494.997	1	-4
495.337	1	3
495.678	1	5
496.019	1	1
496.359	1	-3
496.700	1	2
497.040	1	-3
497.381	1	-12
497.721	1	-1
498.062	1	-9
498.403	1	2
498.743	1	1
499.084	1	-7
499.424	1	10
499.765	1	3
500.105	1	6
500.446	1	6
500.786	1	3
501.127	1	2
501.467	1	1
501.808	1	-13
502.148	1	-3
502.489	1	7
502.829	1	1
503.170	1	3
503.510	1	-1
503.851	1	-18
504.191	1	-3
504.532	1	-6
504.872	1	-4
505.213	1	-5
505.553	1	5
505.894	1	7
506.234	1	9
506.575	1	-4
506.915	1	1
507.256	1	-1
507.596	1	9
507.936	1	2
508.277	1	-3
508.617	1	8
508.958	1	11
509.298	1	3
509.639	1	12
509.979	1	12
510.319	1	0
510.660	1	13
511.000	1	4
511.341	1	-9
511.681	1	-3
512.022	1	-5
512.362	1	-3
512.702	1	-10
513.043	1	-5
513.383	1	-6
513.724	1	7
514.064	1	2
514.404	1	-3
514.745	1	-1
515.085	1	1
515.425	1	-2
515.766	1	3
516.106	1	1
516.447	1	-3
516.787	1	-1
517.127	1	5
517.468	1	-7
517.808	1	-1
518.148	1	-3
518.489	1	3
518.829	1	8
519.169	1	13
519.510	1	-5
519.850	1	-6
520.190	1	6
520.531	1	1
520.871	1	-7
521.211	1	6
521.552	1	7
521.892	1	-6
522.232	1	-7
522.573	1	4
522.913	1	-2
523.253	1	0
523.593	1	-4
523.934	1	11
524.274	1	-9
524.614	1	6
524.955	1	-8
525.295	1	-2
525.635	1	9
525.975	1	-11
526.316	1	-7
526.656	1	5
526.996	1	10
527.337	1	0
527.677	1	7
528.017	1	-6
528.357	1	8
528.698	1	-8
529.038	1	10
529.378	1	-5
529.718	1	5
530.058	1	-2
530.399	1	3
530.739	1	1
531.079	1	13
531.419	1	12
531.760	1	-1
532.100	1	3
532.440	1	-5
532.780	1	5
533.120	1	3
533.461	1	10
533.801	1	9
534.141	1	5
534.481	1	8
534.821	1	-4
535.162	1	3
535.502	1	7
535.842	1	6
536.182	1	-4
536.522	1	6
536.862	1	5
537.203	1	5
537.543	1	8
537.883	1	1
538.223	1	6
538.563	1	2
538.903	1	-7
539.243	1	1
539.584	1	1
539.924	1	7
540.264	1	7
540.604	1	1
540.944	1	-4
541.284	1	-8
541.624	1	4
541.964	1	7
542.305	1	-1
542.645	1	-3
542.985	1	-3
543.325	1	-3
543.665	1	4
544.005	1	-1
544.345	1	-9
544.685	1	3
545.025	1	0
545.365	1	0
545.705	1	10
546.045	1	10
546.386	1	-1
546.726	1	-1
547.066	1	-5
547.406	1	9
547.746	1	3
548.086	1	6
548.426	1	-6
548.766	1	5
549.106	1	1
549.446	1	11
549.786	1	-1
550.126	1	-6
550.466	1	-1
550.806	1	9
551.146	1	-5
551.486	1	-1
551.826	1	-1
552.166	1	8
552.506	1	-8
552.846	1	1
553.186	1	-7
553.526	1	0
553.866	1	4
554.206	1	5
554.546	1	-12
554.886	1	1
555.226	1	-9
555.566	1	6
555.906	1	1
556.246	1	-5
556.586	1	-1
556.926	1	3
557.266	1	10
557.606	1	-13
557.946	1	6
558.286	1	10
558.626	1	1
558.966	1	11
559.306	1	-2
559.646	1	6
559.986	1	1
560.325	1	-17
560.665	1	9
561.005	1	4
561.345	1	0
561.685	1	4
562.025	1	-3
562.365	1	1
562.705	1	5
563.045	1	9
563.385	1	-8
563.725	1	1
564.064	1	1
564.404	1	-7
564.744	1	5
565.084	1	-4
565.424	1	-3
565.764	1	10
566.104	1	-3
566.444	1	5
566.783	1	0
567.123	1	17
567.463	1	1
567.803	1	-10
568.143	1	-7
568.483	1	-13
568.823	1	0
569.162	1	0
569.502	1	0
569.842	1	0
570.182	1	-4
570.522	1	0
570.862	1	-1
571.201	1	1
571.541	1	-4
571.881	1	3
572.221	1	8
572.561	1	-2
572.900	1	15
573.240	1	-2
573.580	1	0
573.920	1	-4
574.260	1	2
574.599	1	-10
574.939	1	2
575.279	1	9
575.619	1	6
575.959	1	1
576.298	1	0
576.638	1	5
576.978	1	4
577.318	1	4
577.657	1	-19
577.997	1	-4
578.337	1	-4
578.677	1	-1
579.016	1	19
579.356	1	-8
579.696	1	8
580.036	1	-3
580.375	1	-2
580.715	1	9
581.055	1	8
581.394	1	-1
581.734	1	0
582.074	1	-6
582.414	1	-3
582.753	1	-2
583.093	1	-3
583.433	1	-3
583.772	1	-11
584.112	1	5
584.452	1	0
584.791	1	-5
585.131	1	0
585.471	1	-1
585.811	1	-3
586.150	1	3
586.490	1	-12
586.830	1	-8
587.169	1	3
587.509	1	3
587.849	1	5
588.188	1	-3
588.528	1	5
588.867	1	5
589.207	1	-10
589.547	1	-4
589.886	1	-7
590.226	1	0
590.566	1	5
590.905	1	0
591.245	1	-5
591.585	1	-7
591.924	1	-4
592.264	1	4
592.603	1	-9
592.943	1	-4
593.283	1	6
593.622	1	1
593.962	1	4
594.301	1	8
594.641	1	-7
594.981	1	5
595.320	1	5
595.660	1	2
595.999	1	3
596.339	1	3
596.678	1	0
597.018	1	2
597.358	1	8
597.697	1	-7
598.037	1	2
598.376	1	1
598.716	1	-11
599.055	1	9
599.395	1	6
599.734	1	0
600.074	1	-8
600.413	1	3
600.753	1	0
601.092	1	-8
601.432	1	1
601.771	1	3
602.111	1	-8
602.451	1	0
602.790	1	5
603.130	1	10
603.469	1	-4
603.809	1	10
604.148	1	-2
604.487	1	2
604.827	1	-15
605.166	1	-2
605.506	1	-1
605.845	1	-9
606.185	1	-2
606.524	1	-4
606.864	1	-6
607.203	1	17
607.543	1	-9
607.882	1	-7
608.222	1	-10
608.561	1	5
608.901	1	10
609.240	1	0
609.579	1	-1
609.919	1	-5
610.258	1	14
610.598	1	9
610.937	1	1
611.277	1	3
611.616	1	-9
611.955	1	3
612.295	1	-5
612.634	1	-1
612.974	1	3
613.313	1	5
613.652	1	-10
613.992	1	2
614.331	1	1
614.671	1	4
615.010	1	2
615.349	1	-2
615.689	1	2
616.028	1	1
616.368	1	-5
616.707	1	-8
617.046	1	1
617.386	1	-6
617.725	1	4
618.064	1	-2
618.404	1	6
618.743	1	-4
619.082	1	-2
619.422	1	4
619.761	1	5
620.100	1	1
620.440	1	6
620.779	1	-4
621.118	1	3
621.458	1	-4
621.797	1	4
622.136	1	7
622.476	1	-6
622.815	1	-1
623.154	1	0
623.494	1	-3
623.833	1	5
624.172	1	12
624.511	1	6
624.851	1	-4
625.190	1	-2
625.529	1	7
625.869	1	2
626.208	1	-5
626.547	1	8
626.886	1	-2
627.226	1	-9
627.565	1	5
627.904	1	7
628.243	1	-11
628.583	1	-1
628.922	1	-5
629.261	1	0
629.600	1	-1
629.940	1	2
630.279	1	-13
630.618	1	-2
630.957	1	-15
631.297	1	-2
631.636	1	-8
631.975	1	4
632.314	1	9
632.653	1	-6
632.993	1	7
633.332	1	4
633.671	1	-3
634.010	1	7
634.349	1	4
634.689	1	6
635.028	1	-5
635.367	1	-1
635.706	1	-4
636.045	1	13
636.384	1	-3
636.724	1	1
637.063	1	-4
637.402	1	6
637.741	1	3
638.080	1	3
638.419	1	-1
638.759	1	-1
639.098	1	3
639.437	1	-13
639.776	1	3
640.115	1	-8
640.454	1	11
640.793	1	9
641.132	1	7
641.472	1	-9
641.811	1	-4
642.150	1	7
642.489	1	-5
642.828	1	1
643.167	1	2
643.506	1	-1
643.845	1	1
644.184	1	7
644.524	1	-12
644.863	1	-9
645.202	1	8
645.541	1	-5
645.880	1	-4
646.219	1	4
646.558	1	0
646.897	1	-6
647.236	1	8
647.575	1	7
647.914	1	-8
648.253	1	4
648.592	1	0
648.931	1	3
649.270	1	7
649.610	1	12
649.949	1	-7
650.288	1	3
650.627	1	6
650.966	1	-8
651.305	1	-2
651.644	1	-10
651.983	1	8
652.322	1	-1
652.661	1	-10
653.000	1	-6
653.339	1	3
653.678	1	1
654.017	1	-4
654.356	1	5
654.695	1	3
655.034	1	1
655.373	1	-2
655.712	1	-6
656.051	1	11
656.390	1	-6
656.729	1	3
657.068	1	1
657.406	1	4
657.745	1	-10
658.084	1	3
658.423	1	-9
658.762	1	0
659.101	1	7
659.440	1	5
659.779	1	-9
660.118	1	5
660.457	1	-4
660.796	1	1
661.135	1	-2
661.474	1	-3
661.813	1	0
662.152	1	-10
662.491	1	-6
662.829	1	3
663.168	1	-4
663.507	1	6
663.846	1	8
664.185	1	-2
664.524	1	-15
664.863	1	-3
665.202	1	-9
665.541	1	-8
665.879	1	-8
666.218	1	-2
666.557	1	6
666.896	1	-7
667.235	1	4
667.574	1	-2
667.913	1	1
668.251	1	2
668.590	1	-8
668.929	1	0
669.268	1	0
669.607	1	-13
669.946	1	5
670.285	1	-1
670.623	1	6
670.962	1	0
671.301	1	-3
671.640	1	-7
671.979	1	16
672.317	1	5
672.656	1	0
672.995	1	0
673.334	1	11
673.673	1	11
674.011	1	5
674.350	1	-6
674.689	1	-5
675.028	1	6
675.367	1	3
675.705	1	-6
676.044	1	-7
676.383	1	-4
676.722	1	5
677.060	1	2
677.399	1	-4
677.738	1	-5
678.077	1	-4
678.416	1	2
678.754	1	-5
679.093	1	5
679.432	1	-11
679.771	1	2
680.109	1	5
680.448	1	-2
680.787	1	8
681.125	1	2
681.464	1	-4
681.803	1	-11
682.142	1	19
682.480	1	-11
682.819	1	6
683.158	1	5
683.496	1	1
683.835	1	7
684.174	1	0
684.512	1	5
684.851	1	0
685.190	1	0
685.529	1	-4
685.867	1	2
686.206	1	-6
686.545	1	6
686.883	1	-10
687.222	1	-12
687.561	1	3
687.899	1	-5
688.238	1	3
688.577	1	-5
688.746	1	5