File: Analysis/GaN_68K_200ms/GaN_sample E_spot4_UVVIS_68 K_200um_200 ms 2x2mm1_752.txt
340.368	1	-7
340.710	1	-16
341.052	1	-2
341.394	1	-4
341.737	1	9
342.079	1	-9
342.421	1	-11
342.763	1	-8
343.105	1	12
343.447	1	-5
343.789	1	0
344.131	1	-2
344.473	1	-1
344.815	1	7
345.157	1	6
345.499	1	-1
345.841	1	0
346.183	1	-1
346.526	1	-2
346.868	1	6
347.210	1	1
347.552	1	1
347.894	1	-3
348.236	1	4
348.578	1	3
348.920	1	8
349.262	1	-1
349.604	1	12
349.946	1	-1
350.288	1	5
350.630	1	-6
350.972	1	-6
351.314	1	1
351.656	1	-2
351.998	1	-4
352.340	1	-2
352.682	1	-7
353.024	1	-8
353.366	1	1
353.708	1	-1
354.050	1	2
354.392	1	-1
354.734	1	-2
355.076	1	-2
355.418	1	-3
355.760	1	2
356.102	1	-9
356.444	1	2
356.785	1	3
357.127	1	8
357.469	1	-6
357.811	1	8
358.153	1	8
358.495	1	12
358.837	1	5
359.179	1	-9
359.521	1	-3
359.863	1	-5
360.205	1	6
360.547	1	0
360.889	1	2
361.231	1	-11
361.572	1	4
361.914	1	-2
362.256	1	8
362.598	1	6
362.940	1	-4
363.282	1	2
363.624	1	15
363.966	1	1
364.308	1	-3
364.649	1	0
364.991	1	5
365.333	1	3
365.675	1	-4
366.017	1	7
366.359	1	3
366.701	1	-14
367.042	1	6
367.384	1	7
367.726	1	11
368.068	1	-4
368.410	1	1
368.752	1	1
369.093	1	7
369.435	1	-8
369.777	1	-7
370.119	1	3
370.461	1	8
370.803	1	-2
371.144	1	9
371.486	1	7
371.828	1	5
372.170	1	8
372.512	1	-6
372.853	1	0
373.195	1	-6
373.537	1	2
373.879	1	6
374.220	1	3
374.562	1	0
374.904	1	3
375.246	1	-1
375.588	1	-6
375.929	1	3
376.271	1	-4
376.613	1	-8
376.955	1	-12
377.296	1	7
377.638	1	-4
377.980	1	2
378.321	1	5
378.663	1	-1
379.005	1	12
379.347	1	-2
379.688	1	0
380.030	1	-1
380.372	1	4
380.714	1	2
381.055	1	-5
381.397	1	3
381.739	1	7
382.080	1	-11
382.422	1	8
382.764	1	1
383.105	1	-1
383.447	1	9
383.789	1	2
384.130	1	-12
384.472	1	-11
384.814	1	-3
385.156	1	14
385.497	1	6
385.839	1	3
386.180	1	-1
386.522	1	10
386.864	1	2
387.205	1	1
387.547	1	-6
387.889	1	-2
388.230	1	0
388.572	1	4
388.914	1	9
389.255	1	11
389.597	1	-5
389.939	1	5
390.280	1	5
390.622	1	-2
390.963	1	1
391.305	1	3
391.647	1	10
391.988	1	-6
392.330	1	7
392.671	1	10
393.013	1	7
393.355	1	13
393.696	1	-2
394.038	1	-11
394.379	1	-6
394.721	1	-1
395.062	1	-2
395.404	1	2
395.746	1	-10
396.087	1	-6
396.429	1	11
396.770	1	8
397.112	1	0
397.453	1	4
397.795	1	6
398.136	1	5
398.478	1	-6
398.819	1	4
399.161	1	4
399.503	1	3
399.844	1	2
400.186	1	11
400.527	1	5
400.869	1	14
401.210	1	-12
401.552	1	9
401.893	1	1
402.235	1	5
402.576	1	9
402.918	1	-11
403.259	1	-9
403.601	1	-8
403.942	1	6
404.284	1	-2
404.625	1	-1
404.967	1	5
405.308	1	-9
405.649	1	2
405.991	1	8
406.332	1	5
406.674	1	9
407.015	1	-8
407.357	1	6
407.698	1	-1
408.040	1	-10
408.381	1	-3
408.722	1	-7
409.064	1	3
409.405	1	4
409.747	1	-4
410.088	1	6
410.430	1	7
410.771	1	-2
411.112	1	6
411.454	1	14
411.795	1	7
412.137	1	18
412.478	1	8
412.819	1	-4
413.161	1	-1
413.502	1	7
413.844	1	-2
414.185	1	-2
414.526	1	1
414.868	1	1
415.209	1	6
415.550	1	-9
415.892	1	-2
416.233	1	-6
416.575	1	-7
416.916	1	-5
417.257	1	9
417.599	1	-1
417.940	1	4
418.281	1	-3
418.623	1	-7
418.964	1	-1
419.305	1	-5
419.647	1	11
419.988	1	-3
420.329	1	6
420.671	1	4
421.012	1	3
421.353	1	2
421.695	1	-7
422.036	1	-4
422.377	1	-2
422.718	1	0
423.060	1	5
423.401	1	-3
423.742	1	-6
424.084	1	3
424.425	1	3
424.766	1	2
425.107	1	4
425.449	1	5
425.790	1	-2
426.131	1	6
426.472	1	-16
426.814	1	7
427.155	1	-4
427.496	1	6
427.837	1	-5
428.179	1	-6
428.520	1	0
428.861	1	9
429.202	1	4
429.544	1	-1
429.885	1	-2
430.226	1	-8
430.567	1	6
430.909	1	-4
431.250	1	-8
431.591	1	6
431.932	1	1
432.273	1	-7
432.615	1	0
432.956	1	0
433.297	1	6
433.638	1	-2
433.979	1	-7
434.320	1	-4
434.662	1	-6
435.003	1	-2
435.344	1	1
435.685	1	-1
436.026	1	-4
436.368	1	-18
436.709	1	-3
437.050	1	8
437.391	1	4
437.732	1	5
438.073	1	-2
438.414	1	5
438.756	1	5
439.097	1	2
439.438	1	11
439.779	1	-3
440.120	1	-6
440.461	1	-3
440.802	1	2
441.143	1	7
441.485	1	-5
441.826	1	-9
442.167	1	-8
442.508	1	-1
442.849	1	-1
443.190	1	-1
443.531	1	-1
443.872	1	-1
444.213	1	-4
444.554	1	1
444.895	1	-4
445.237	1	-5
445.578	1	2
445.919	1	0
446.260	1	5
446.601	1	3
446.942	1	5
447.283	1	3
447.624	1	4
447.965	1	-15
448.306	1	2
448.647	1	10
448.988	1	-13
449.329	1	3
449.670	1	4
450.011	1	-2
450.352	1	9
450.693	1	15
451.034	1	9
451.375	1	7
451.716	1	4
452.057	1	5
452.398	1	-2
452.739	1	-6
453.080	1	18
453.421	1	5
453.762	1	5
454.103	1	2
454.444	1	8
454.785	1	-2
455.126	1	5
455.467	1	7
455.808	1	12
456.149	1	-3
456.490	1	3
456.831	1	2
457.172	1	3
457.513	1	0
457.854	1	-12
458.195	1	-9
458.536	1	7
458.877	1	-2
459.218	1	3
459.559	1	-2
459.899	1	15
460.240	1	3
460.581	1	7
460.922	1	-5
461.263	1	10
461.604	1	-7
461.945	1	12
462.286	1	13
462.627	1	0
462.968	1	-1
463.309	1	-5
463.649	1	-3
463.990	1	-1
464.331	1	-3
464.672	1	-4
465.013	1	-8
465.354	1	0
465.695	1	7
466.036	1	3
466.376	1	0
466.717	1	-7
467.058	1	16
467.399	1	7
467.740	1	-6
468.081	1	-6
468.422	1	3
468.762	1	-8
469.103	1	0
469.444	1	-4
469.785	1	11
470.126	1	6
470.467	1	-6
470.807	1	-2
471.148	1	-4
471.489	1	5
471.830	1	12
472.171	1	4
472.511	1	6
472.852	1	-6
473.193	1	-4
473.534	1	-6
473.875	1	5
474.215	1	-2
474.556	1	-7
474.897	1	2
475.238	1	4
475.578	1	0
475.919	1	1
476.260	1	-1
476.601	1	-9
476.942	1	-2
477.282	1	-9
477.623	1	1
477.964	1	6
478.305	1	4
478.645	1	-2
478.986	1	-5
479.327	1	-10
479.667	1	4
480.008	1	-2
480.349	1	0
480.690	1	0
481.030	1	-6
481.371	1	0
481.712	1	-3
482.053	1	8
482.393	1	-18
482.734	1	3
483.075	1	2
483.415	1	17
483.756	1	2
484.097	1	-2
484.437	1	-6
484.778	1	1
485.119	1	3
485.459	1	3
485.800	1	0
486.141	1	-7
486.481	1	-1
486.822	1	-2
487.163	1	-5
487.503	1	-2
487.844	1	4
488.185	1	1
488.525	1	-8
488.866	1	0
489.207	1	6
489.547	1	2
489.888	1	-7
490.228	1	-10
490.569	1	6
490.910	1	-7
491.250	1	-1
491.591	1	-9
491.932	1	11
492.272	1	9
492.613	1	8
492.953	1	5
493.294	1	9
493.635	1	-8
493.975	1	-3
494.316	1	5
494.656	1	0
494.997	1	-10
495.337	1	6
495.678	1	7
496.019	1	-8
496.359	1	5
496.700	1	0
497.040	1	-5
497.381	1	-16
497.721	1	3
498.062	1	1
498.403	1	9
498.743	1	7
499.084	1	-19
499.424	1	8
499.765	1	0
500.105	1	8
500.446	1	1
500.786	1	4
501.127	1	5
501.467	1	8
501.808	1	-3
502.148	1	7
502.489	1	3
502.829	1	8
503.170	1	6
503.510	1	3
503.851	1	-14
504.191	1	12
504.532	1	-3
504.872	1	-2
505.213	1	2
505.553	1	10
505.894	1	1
506.234	1	7
506.575	1	-2
506.915	1	-2
507.256	1	3
507.596	1	7
507.936	1	0
508.277	1	-15
508.617	1	5
508.958	1	13
509.298	1	12
509.639	1	2
509.979	1	2
510.319	1	-7
510.660	1	2
511.000	1	3
511.341	1	-5
511.681	1	0
512.022	1	-2
512.362	1	-6
512.702	1	-15
513.043	1	2
513.383	1	-2
513.724	1	9
514.064	1	9
514.404	1	-1
514.745	1	-5
515.085	1	-6
515.425	1	-1
515.766	1	-4
516.106	1	0
516.447	1	3
516.787	1	-8
517.127	1	6
517.468	1	6
517.808	1	-5
518.148	1	1
518.489	1	7
518.829	1	-6
519.169	1	-1
519.510	1	1
519.850	1	-9
520.190	1	0
520.531	1	-1
520.871	1	-11
521.211	1	5
521.552	1	-7
521.892	1	-10
522.232	1	-13
522.573	1	0
522.913	1	8
523.253	1	-10
523.593	1	-13
523.934	1	7
524.274	1	0
524.614	1	-4
524.955	1	-7
525.295	1	-6
525.635	1	6
525.975	1	-10
526.316	1	4
526.656	1	12
526.996	1	9
527.337	1	-2
527.677	1	13
528.017	1	-12
528.357	1	9
528.698	1	1
529.038	1	3
529.378	1	1
529.718	1	5
530.058	1	-4
530.399	1	6
530.739	1	0
531.079	1	5
531.419	1	4
531.760	1	6
532.100	1	-1
532.440	1	-1
532.780	1	-10
533.120	1	-2
533.461	1	14
533.801	1	-1
534.141	1	8
534.481	1	8
534.821	1	-4
535.162	1	5
535.502	1	5
535.842	1	-4
536.182	1	0
536.522	1	7
536.862	1	5
537.203	1	-4
537.543	1	3
537.883	1	2
538.223	1	8
538.563	1	3
538.903	1	-7
539.243	1	7
539.584	1	-7
539.924	1	-5
540.264	1	2
540.604	1	9
540.944	1	0
541.284	1	-2
541.624	1	6
541.964	1	-7
542.305	1	-4
542.645	1	0
542.985	1	-6
543.325	1	-13
543.665	1	12
544.005	1	4
544.345	1	0
544.685	1	6
545.025	1	-1
545.365	1	13
545.705	1	1
546.045	1	5
546.386	1	8
546.726	1	1
547.066	1	-12
547.406	1	11
547.746	1	9
548.086	1	1
548.426	1	-12
548.766	1	6
549.106	1	2
549.446	1	-6
549.786	1	-2
550.126	1	-3
550.466	1	0
550.806	1	9
551.146	1	-5
551.486	1	11
551.826	1	11
552.166	1	-6
552.506	1	-12
552.846	1	3
553.186	1	5
553.526	1	-9
553.866	1	3
554.206	1	-6
554.546	1	-9
554.886	1	6
555.226	1	-5
555.566	1	1
555.906	1	-1
556.246	1	-1
556.586	1	9
556.926	1	8
557.266	1	9
557.606	1	-11
557.946	1	10
558.286	1	8
558.626	1	7
558.966	1	-1
559.306	1	-8
559.646	1	-7
559.986	1	0
560.325	1	-6
560.665	1	7
561.005	1	8
561.345	1	-2
561.685	1	1
562.025	1	-11
562.365	1	8
562.705	1	3
563.045	1	7
563.385	1	-7
563.725	1	-1
564.064	1	12
564.404	1	-3
564.744	1	6
565.084	1	-9
565.424	1	5
565.764	1	9
566.104	1	-5
566.444	1	5
566.783	1	-9
567.123	1	8
567.463	1	2
567.803	1	-7
568.143	1	-3
568.483	1	-12
568.823	1	1
569.162	1	0
569.502	1	2
569.842	1	9
570.182	1	-2
570.522	1	1
570.862	1	6
571.201	1	9
571.541	1	-4
571.881	1	3
572.221	1	-3
572.561	1	-11
572.900	1	12
573.240	1	-11
573.580	1	-1
573.920	1	0
574.260	1	-8
574.599	1	2
574.939	1	-3
575.279	1	1
575.619	1	0
575.959	1	-10
576.298	1	-4
576.638	1	1
576.978	1	7
577.318	1	1
577.657	1	-12
577.997	1	-10
578.337	1	8
578.677	1	-8
579.016	1	8
579.356	1	0
579.696	1	7
580.036	1	4
580.375	1	-4
580.715	1	5
581.055	1	7
581.394	1	2
581.734	1	4
582.074	1	2
582.414	1	-7
582.753	1	7
583.093	1	-9
583.433	1	2
583.772	1	4
584.112	1	-1
584.452	1	-3
584.791	1	0
585.131	1	3
585.471	1	-1
585.811	1	-6
586.150	1	2
586.490	1	3
586.830	1	-6
587.169	1	-4
587.509	1	4
587.849	1	12
588.188	1	-2
588.528	1	2
588.867	1	7
589.207	1	-7
589.547	1	-7
589.886	1	-7
590.226	1	4
590.566	1	-9
590.905	1	-4
591.245	1	-2
591.585	1	-4
591.924	1	-9
592.264	1	-4
592.603	1	1
592.943	1	-10
593.283	1	-2
593.622	1	-1
593.962	1	9
594.301	1	9
594.641	1	-5
594.981	1	3
595.320	1	6
595.660	1	-4
595.999	1	2
596.339	1	6
596.678	1	-8
597.018	1	-1
597.358	1	-1
597.697	1	-10
598.037	1	0
598.376	1	9
598.716	1	-5
599.055	1	-1
599.395	1	8
599.734	1	-7
600.074	1	3
600.413	1	-6
600.753	1	3
601.092	1	-8
601.432	1	-2
601.771	1	3
602.111	1	-4
602.451	1	0
602.790	1	-4
603.130	1	3
603.469	1	0
603.809	1	-3
604.148	1	-2
604.487	1	4
604.827	1	-17
605.166	1	-3
605.506	1	8
605.845	1	2
606.185	1	-2
606.524	1	-4
606.864	1	-9
607.203	1	5
607.543	1	-3
607.882	1	-6
608.222	1	8
608.561	1	6
608.901	1	7
609.240	1	-4
609.579	1	6
609.919	1	0
610.258	1	7
610.598	1	4
610.937	1	-3
611.277	1	2
611.616	1	-16
611.955	1	8
612.295	1	1
612.634	1	-6
612.974	1	4
613.313	1	-2
613.652	1	-11
613.992	1	6
614.331	1	4
614.671	1	1
615.010	1	5
615.349	1	-1
615.689	1	-2
616.028	1	2
616.368	1	4
616.707	1	-1
617.046	1	7
617.386	1	-7
617.725	1	7
618.064	1	-3
618.404	1	5
618.743	1	1
619.082	1	-2
619.422	1	-4
619.761	1	1
620.100	1	1
620.440	1	-1
620.779	1	-13
621.118	1	-9
621.458	1	7
621.797	1	-1
622.136	1	5
622.476	1	-2
622.815	1	-6
623.154	1	-2
623.494	1	10
623.833	1	-1
624.172	1	12
624.511	1	3
624.851	1	-4
625.190	1	3
625.529	1	13
625.869	1	6
626.208	1	-13
626.547	1	4
626.886	1	-10
627.226	1	4
627.565	1	6
627.904	1	-4
628.243	1	-11
628.583	1	5
628.922	1	3
629.261	1	-8
629.600	1	2
629.940	1	-1
630.279	1	5
630.618	1	0
630.957	1	-3
631.297	1	0
631.636	1	-6
631.975	1	1
632.314	1	7
632.653	1	-6
632.993	1	4
633.332	1	1
633.671	1	-6
634.010	1	5
634.349	1	3
634.689	1	4
635.028	1	8
635.367	1	-1
635.706	1	-9
636.045	1	-11
636.384	1	4
636.724	1	9
637.063	1	15
637.402	1	3
637.741	1	5
638.080	1	0
638.419	1	9
638.759	1	-5
639.098	1	-4
639.437	1	-7
639.776	1	-2
640.115	1	-1
640.454	1	15
640.793	1	5
641.132	1	4
641.472	1	-6
641.811	1	-1
642.150	1	-3
642.489	1	-1
642.828	1	1
643.167	1	11
643.506	1	-4
643.845	1	-3
644.184	1	10
644.524	1	0
644.863	1	-6
645.202	1	3
645.541	1	-9
645.880	1	2
646.219	1	-2
646.558	1	2
646.897	1	-8
647.236	1	3
647.575	1	0
647.914	1	-6
648.253	1	-1
648.592	1	1
648.931	1	8
649.270	1	7
649.610	1	12
649.949	1	-5
650.288	1	-4
650.627	1	2
650.966	1	-2
651.305	1	-8
651.644	1	-1
651.983	1	-5
652.322	1	9
652.661	1	0
653.000	1	2
653.339	1	1
653.678	1	-5
654.017	1	4
654.356	1	2
654.695	1	6
655.034	1	5
655.373	1	3
655.712	1	-6
656.051	1	2
656.390	1	-4
656.729	1	-7
657.068	1	6
657.406	1	-3
657.745	1	-4
658.084	1	1
658.423	1	-5
658.762	1	-1
659.101	1	-9
659.440	1	7
659.779	1	-3
660.118	1	2
660.457	1	-2
660.796	1	-2
661.135	1	-5
661.474	1	-3
661.813	1	2
662.152	1	-1
662.491	1	2
662.829	1	-2
663.168	1	-7
663.507	1	-2
663.846	1	8
664.185	1	2
664.524	1	-15
664.863	1	-2
665.202	1	-7
665.541	1	-1
665.879	1	-1
666.218	1	0
666.557	1	3
666.896	1	-9
667.235	1	-1
667.574	1	-2
667.913	1	2
668.251	1	0
668.590	1	-9
668.929	1	0
669.268	1	-1
669.607	1	-3
669.946	1	8
670.285	1	5
670.623	1	-2
670.962	1	1
671.301	1	-1
671.640	1	-20
671.979	1	18
672.317	1	-5
672.656	1	2
672.995	1	7
673.334	1	1
673.673	1	7
674.011	1	8
674.350	1	-4
674.689	1	2
675.028	1	3
675.367	1	2
675.705	1	-12
676.044	1	-10
676.383	1	-1
676.722	1	3
677.060	1	1
677.399	1	-7
677.738	1	-6
678.077	1	1
678.416	1	2
678.754	1	1
679.093	1	2
679.432	1	-7
679.771	1	-6
680.109	1	3
680.448	1	-6
680.787	1	3
681.125	1	1
681.464	1	-1
681.803	1	-17
682.142	1	13
682.480	1	-2
682.819	1	-3
683.158	1	-7
683.496	1	0
683.835	1	-5
684.174	1	-6
684.512	1	-5
684.851	1	0
685.190	1	1
685.529	1	-1
685.867	1	-4
686.206	1	4
686.545	1	-2
686.883	1	-3
687.222	1	-11
687.561	1	1
687.899	1	2
688.238	1	-1
688.577	1	-13
688.746	1	3