File: Analysis/GaN_68K_200ms/GaN_sample E_spot4_UVVIS_68 K_200um_200 ms 2x2mm1_12.txt
340.368	1	-6
340.710	1	-3
341.052	1	-1
341.394	1	-5
341.737	1	5
342.079	1	6
342.421	1	-9
342.763	1	0
343.105	1	7
343.447	1	10
343.789	1	-2
344.131	1	7
344.473	1	2
344.815	1	-1
345.157	1	5
345.499	1	5
345.841	1	1
346.183	1	-2
346.526	1	6
346.868	1	-2
347.210	1	5
347.552	1	-5
347.894	1	2
348.236	1	-1
348.578	1	-1
348.920	1	11
349.262	1	0
349.604	1	7
349.946	1	5
350.288	1	3
350.630	1	-9
350.972	1	1
351.314	1	-6
351.656	1	7
351.998	1	-11
352.340	1	-4
352.682	1	2
353.024	1	2
353.366	1	-2
353.708	1	1
354.050	1	0
354.392	1	5
354.734	1	4
355.076	1	-1
355.418	1	0
355.760	1	-12
356.102	1	-5
356.444	1	2
356.785	1	18
357.127	1	5
357.469	1	0
357.811	1	10
358.153	1	9
358.495	1	8
358.837	1	3
359.179	1	5
359.521	1	9
359.863	1	-4
360.205	1	-4
360.547	1	8
360.889	1	3
361.231	1	3
361.572	1	-9
361.914	1	-5
362.256	1	8
362.598	1	2
362.940	1	-4
363.282	1	-3
363.624	1	3
363.966	1	4
364.308	1	-6
364.649	1	6
364.991	1	7
365.333	1	9
365.675	1	-3
366.017	1	-3
366.359	1	2
366.701	1	-14
367.042	1	15
367.384	1	-1
367.726	1	6
368.068	1	-6
368.410	1	4
368.752	1	-2
369.093	1	2
369.435	1	-5
369.777	1	-8
370.119	1	-1
370.461	1	0
370.803	1	0
371.144	1	16
371.486	1	0
371.828	1	0
372.170	1	8
372.512	1	-1
372.853	1	-2
373.195	1	-13
373.537	1	8
373.879	1	9
374.220	1	10
374.562	1	-3
374.904	1	2
375.246	1	-5
375.588	1	3
375.929	1	4
376.271	1	-3
376.613	1	7
376.955	1	-6
377.296	1	13
377.638	1	2
377.980	1	12
378.321	1	2
378.663	1	-1
379.005	1	17
379.347	1	1
379.688	1	-1
380.030	1	-1
380.372	1	0
380.714	1	8
381.055	1	-4
381.397	1	0
381.739	1	8
382.080	1	-9
382.422	1	10
382.764	1	-3
383.105	1	8
383.447	1	6
383.789	1	1
384.130	1	-9
384.472	1	1
384.814	1	4
385.156	1	3
385.497	1	12
385.839	1	6
386.180	1	-6
386.522	1	12
386.864	1	-11
387.205	1	-2
387.547	1	-10
387.889	1	12
388.230	1	6
388.572	1	2
388.914	1	8
389.255	1	2
389.597	1	1
389.939	1	10
390.280	1	9
390.622	1	-2
390.963	1	10
391.305	1	2
391.647	1	18
391.988	1	1
392.330	1	3
392.671	1	12
393.013	1	8
393.355	1	5
393.696	1	2
394.038	1	-6
394.379	1	-9
394.721	1	0
395.062	1	-9
395.404	1	7
395.746	1	4
396.087	1	-4
396.429	1	-2
396.770	1	8
397.112	1	-8
397.453	1	-5
397.795	1	5
398.136	1	4
398.478	1	6
398.819	1	11
399.161	1	-2
399.503	1	0
399.844	1	2
400.186	1	11
400.527	1	1
400.869	1	6
401.210	1	-10
401.552	1	15
401.893	1	0
402.235	1	4
402.576	1	6
402.918	1	-11
403.259	1	-3
403.601	1	-10
403.942	1	6
404.284	1	3
404.625	1	0
404.967	1	1
405.308	1	6
405.649	1	7
405.991	1	7
406.332	1	-4
406.674	1	4
407.015	1	0
407.357	1	4
407.698	1	-3
408.040	1	-3
408.381	1	-6
408.722	1	-7
409.064	1	2
409.405	1	-7
409.747	1	-3
410.088	1	9
410.430	1	0
410.771	1	2
411.112	1	8
411.454	1	8
411.795	1	1
412.137	1	4
412.478	1	7
412.819	1	-8
413.161	1	-5
413.502	1	-9
413.844	1	-1
414.185	1	0
414.526	1	0
414.868	1	4
415.209	1	-2
415.550	1	-7
415.892	1	-5
416.233	1	6
416.575	1	-4
416.916	1	-1
417.257	1	0
417.599	1	2
417.940	1	-2
418.281	1	-1
418.623	1	9
418.964	1	0
419.305	1	0
419.647	1	3
419.988	1	-3
420.329	1	4
420.671	1	4
421.012	1	11
421.353	1	14
421.695	1	-3
422.036	1	3
422.377	1	4
422.718	1	2
423.060	1	-1
423.401	1	0
423.742	1	-1
424.084	1	3
424.425	1	-4
424.766	1	0
425.107	1	-5
425.449	1	2
425.790	1	1
426.131	1	10
426.472	1	4
426.814	1	8
427.155	1	3
427.496	1	8
427.837	1	0
428.179	1	-6
428.520	1	-1
428.861	1	4
429.202	1	4
429.544	1	12
429.885	1	5
430.226	1	-5
430.567	1	10
430.909	1	-4
431.250	1	-11
431.591	1	3
431.932	1	4
432.273	1	7
432.615	1	1
432.956	1	9
433.297	1	5
433.638	1	5
433.979	1	2
434.320	1	-1
434.662	1	-13
435.003	1	8
435.344	1	1
435.685	1	13
436.026	1	5
436.368	1	2
436.709	1	-4
437.050	1	6
437.391	1	1
437.732	1	1
438.073	1	5
438.414	1	-1
438.756	1	9
439.097	1	6
439.438	1	10
439.779	1	5
440.120	1	-2
440.461	1	-3
440.802	1	5
441.143	1	3
441.485	1	3
441.826	1	-5
442.167	1	-3
442.508	1	-1
442.849	1	7
443.190	1	-3
443.531	1	-6
443.872	1	4
444.213	1	-2
444.554	1	4
444.895	1	1
445.237	1	2
445.578	1	7
445.919	1	7
446.260	1	11
446.601	1	-6
446.942	1	3
447.283	1	2
447.624	1	12
447.965	1	-8
448.306	1	1
448.647	1	8
448.988	1	-8
449.329	1	-6
449.670	1	8
450.011	1	-2
450.352	1	-3
450.693	1	6
451.034	1	4
451.375	1	9
451.716	1	5
452.057	1	10
452.398	1	-1
452.739	1	4
453.080	1	13
453.421	1	2
453.762	1	2
454.103	1	5
454.444	1	7
454.785	1	-3
455.126	1	2
455.467	1	8
455.808	1	-2
456.149	1	-2
456.490	1	2
456.831	1	8
457.172	1	1
457.513	1	1
457.854	1	6
458.195	1	-7
458.536	1	13
458.877	1	6
459.218	1	9
459.559	1	3
459.899	1	1
460.240	1	4
460.581	1	5
460.922	1	3
461.263	1	7
461.604	1	-5
461.945	1	12
462.286	1	3
462.627	1	-3
462.968	1	2
463.309	1	8
463.649	1	10
463.990	1	-1
464.331	1	4
464.672	1	6
465.013	1	-7
465.354	1	3
465.695	1	9
466.036	1	8
466.376	1	-11
466.717	1	-8
467.058	1	2
467.399	1	0
467.740	1	1
468.081	1	-6
468.422	1	10
468.762	1	-7
469.103	1	-5
469.444	1	5
469.785	1	10
470.126	1	1
470.467	1	1
470.807	1	4
471.148	1	1
471.489	1	-3
471.830	1	15
472.171	1	9
472.511	1	13
472.852	1	-8
473.193	1	3
473.534	1	6
473.875	1	10
474.215	1	-2
474.556	1	-14
474.897	1	4
475.238	1	4
475.578	1	-4
475.919	1	-4
476.260	1	6
476.601	1	5
476.942	1	-5
477.282	1	-7
477.623	1	-7
477.964	1	9
478.305	1	-1
478.645	1	-7
478.986	1	3
479.327	1	2
479.667	1	6
480.008	1	4
480.349	1	5
480.690	1	-2
481.030	1	1
481.371	1	13
481.712	1	9
482.053	1	10
482.393	1	-9
482.734	1	1
483.075	1	7
483.415	1	9
483.756	1	2
484.097	1	-2
484.437	1	-8
484.778	1	-2
485.119	1	2
485.459	1	7
485.800	1	0
486.141	1	-3
486.481	1	3
486.822	1	11
487.163	1	-3
487.503	1	-6
487.844	1	2
488.185	1	0
488.525	1	0
488.866	1	7
489.207	1	5
489.547	1	1
489.888	1	0
490.228	1	-1
490.569	1	1
490.910	1	-3
491.250	1	9
491.591	1	-3
491.932	1	8
492.272	1	4
492.613	1	6
492.953	1	8
493.294	1	14
493.635	1	-3
493.975	1	10
494.316	1	8
494.656	1	9
494.997	1	-2
495.337	1	1
495.678	1	3
496.019	1	-4
496.359	1	7
496.700	1	-4
497.040	1	4
497.381	1	-14
497.721	1	-3
498.062	1	2
498.403	1	9
498.743	1	1
499.084	1	1
499.424	1	12
499.765	1	-4
500.105	1	6
500.446	1	2
500.786	1	8
501.127	1	14
501.467	1	9
501.808	1	-7
502.148	1	6
502.489	1	2
502.829	1	5
503.170	1	-3
503.510	1	-3
503.851	1	-6
504.191	1	5
504.532	1	-9
504.872	1	-9
505.213	1	4
505.553	1	3
505.894	1	12
506.234	1	6
506.575	1	-2
506.915	1	-3
507.256	1	9
507.596	1	3
507.936	1	6
508.277	1	-4
508.617	1	10
508.958	1	13
509.298	1	6
509.639	1	10
509.979	1	-5
510.319	1	-6
510.660	1	5
511.000	1	10
511.341	1	-2
511.681	1	8
512.022	1	-5
512.362	1	-4
512.702	1	-6
513.043	1	7
513.383	1	-8
513.724	1	6
514.064	1	1
514.404	1	0
514.745	1	-5
515.085	1	5
515.425	1	0
515.766	1	5
516.106	1	8
516.447	1	7
516.787	1	0
517.127	1	2
517.468	1	-6
517.808	1	5
518.148	1	3
518.489	1	2
518.829	1	1
519.169	1	10
519.510	1	-6
519.850	1	-9
520.190	1	5
520.531	1	1
520.871	1	-4
521.211	1	0
521.552	1	2
521.892	1	-4
522.232	1	-8
522.573	1	4
522.913	1	3
523.253	1	3
523.593	1	-4
523.934	1	-6
524.274	1	-15
524.614	1	0
524.955	1	9
525.295	1	-5
525.635	1	11
525.975	1	-7
526.316	1	-2
526.656	1	7
526.996	1	11
527.337	1	-9
527.677	1	16
528.017	1	-11
528.357	1	10
528.698	1	-3
529.038	1	7
529.378	1	3
529.718	1	0
530.058	1	5
530.399	1	4
530.739	1	0
531.079	1	2
531.419	1	1
531.760	1	9
532.100	1	5
532.440	1	0
532.780	1	-4
533.120	1	-6
533.461	1	8
533.801	1	0
534.141	1	8
534.481	1	-6
534.821	1	8
535.162	1	-4
535.502	1	-5
535.842	1	-2
536.182	1	3
536.522	1	1
536.862	1	1
537.203	1	1
537.543	1	7
537.883	1	3
538.223	1	-2
538.563	1	0
538.903	1	-5
539.243	1	-2
539.584	1	1
539.924	1	1
540.264	1	2
540.604	1	6
540.944	1	-5
541.284	1	1
541.624	1	9
541.964	1	2
542.305	1	-3
542.645	1	3
542.985	1	1
543.325	1	-14
543.665	1	16
544.005	1	0
544.345	1	-4
544.685	1	1
545.025	1	-5
545.365	1	-2
545.705	1	4
546.045	1	6
546.386	1	11
546.726	1	-2
547.066	1	-7
547.406	1	11
547.746	1	5
548.086	1	3
548.426	1	1
548.766	1	11
549.106	1	1
549.446	1	4
549.786	1	2
550.126	1	-7
550.466	1	-3
550.806	1	13
551.146	1	-4
551.486	1	4
551.826	1	11
552.166	1	-1
552.506	1	-10
552.846	1	5
553.186	1	-4
553.526	1	-8
553.866	1	14
554.206	1	-1
554.546	1	-4
554.886	1	3
555.226	1	0
555.566	1	8
555.906	1	9
556.246	1	-2
556.586	1	5
556.926	1	3
557.266	1	11
557.606	1	-7
557.946	1	5
558.286	1	3
558.626	1	4
558.966	1	1
559.306	1	-2
559.646	1	0
559.986	1	-3
560.325	1	-2
560.665	1	7
561.005	1	5
561.345	1	-2
561.685	1	2
562.025	1	0
562.365	1	-2
562.705	1	0
563.045	1	14
563.385	1	-3
563.725	1	-2
564.064	1	7
564.404	1	-3
564.744	1	5
565.084	1	-11
565.424	1	-1
565.764	1	12
566.104	1	3
566.444	1	5
566.783	1	-3
567.123	1	16
567.463	1	-1
567.803	1	0
568.143	1	-6
568.483	1	-5
568.823	1	9
569.162	1	4
569.502	1	3
569.842	1	-11
570.182	1	-5
570.522	1	13
570.862	1	8
571.201	1	7
571.541	1	-8
571.881	1	1
572.221	1	-4
572.561	1	-5
572.900	1	4
573.240	1	-1
573.580	1	8
573.920	1	5
574.260	1	-2
574.599	1	-5
574.939	1	-2
575.279	1	4
575.619	1	3
575.959	1	-2
576.298	1	-12
576.638	1	6
576.978	1	1
577.318	1	2
577.657	1	-21
577.997	1	-4
578.337	1	5
578.677	1	-10
579.016	1	10
579.356	1	1
579.696	1	4
580.036	1	-4
580.375	1	5
580.715	1	9
581.055	1	-1
581.394	1	-3
581.734	1	0
582.074	1	-5
582.414	1	4
582.753	1	6
583.093	1	-1
583.433	1	2
583.772	1	-4
584.112	1	9
584.452	1	0
584.791	1	2
585.131	1	-4
585.471	1	-4
585.811	1	-6
586.150	1	1
586.490	1	-3
586.830	1	-1
587.169	1	-2
587.509	1	6
587.849	1	7
588.188	1	-6
588.528	1	-6
588.867	1	6
589.207	1	-12
589.547	1	-3
589.886	1	-10
590.226	1	10
590.566	1	1
590.905	1	0
591.245	1	4
591.585	1	-4
591.924	1	1
592.264	1	2
592.603	1	2
592.943	1	-5
593.283	1	5
593.622	1	0
593.962	1	3
594.301	1	3
594.641	1	-4
594.981	1	-2
595.320	1	9
595.660	1	-13
595.999	1	8
596.339	1	0
596.678	1	4
597.018	1	5
597.358	1	9
597.697	1	-6
598.037	1	9
598.376	1	12
598.716	1	-2
599.055	1	-6
599.395	1	11
599.734	1	6
600.074	1	-11
600.413	1	7
600.753	1	6
601.092	1	-14
601.432	1	-2
601.771	1	11
602.111	1	-13
602.451	1	2
602.790	1	7
603.130	1	4
603.469	1	7
603.809	1	8
604.148	1	0
604.487	1	0
604.827	1	-16
605.166	1	-6
605.506	1	3
605.845	1	-1
606.185	1	-1
606.524	1	-1
606.864	1	0
607.203	1	9
607.543	1	-8
607.882	1	-4
608.222	1	13
608.561	1	11
608.901	1	-1
609.240	1	-4
609.579	1	13
609.919	1	-4
610.258	1	0
610.598	1	8
610.937	1	-1
611.277	1	10
611.616	1	-10
611.955	1	2
612.295	1	2
612.634	1	-11
612.974	1	12
613.313	1	-1
613.652	1	-3
613.992	1	8
614.331	1	7
614.671	1	0
615.010	1	3
615.349	1	3
615.689	1	9
616.028	1	-7
616.368	1	-6
616.707	1	3
617.046	1	5
617.386	1	-3
617.725	1	6
618.064	1	7
618.404	1	4
618.743	1	7
619.082	1	9
619.422	1	2
619.761	1	7
620.100	1	0
620.440	1	-6
620.779	1	4
621.118	1	-5
621.458	1	9
621.797	1	-3
622.136	1	4
622.476	1	7
622.815	1	5
623.154	1	5
623.494	1	0
623.833	1	-13
624.172	1	10
624.511	1	-2
624.851	1	-4
625.190	1	-1
625.529	1	2
625.869	1	-2
626.208	1	1
626.547	1	-2
626.886	1	-6
627.226	1	12
627.565	1	13
627.904	1	-4
628.243	1	-12
628.583	1	2
628.922	1	10
629.261	1	9
629.600	1	6
629.940	1	-3
630.279	1	-10
630.618	1	-4
630.957	1	-8
631.297	1	1
631.636	1	2
631.975	1	7
632.314	1	15
632.653	1	-7
632.993	1	4
633.332	1	8
633.671	1	-4
634.010	1	13
634.349	1	-3
634.689	1	8
635.028	1	4
635.367	1	6
635.706	1	-12
636.045	1	1
636.384	1	2
636.724	1	11
637.063	1	-1
637.402	1	1
637.741	1	8
638.080	1	-2
638.419	1	9
638.759	1	7
639.098	1	-6
639.437	1	-14
639.776	1	-3
640.115	1	2
640.454	1	10
640.793	1	7
641.132	1	10
641.472	1	-12
641.811	1	-3
642.150	1	2
642.489	1	4
642.828	1	9
643.167	1	10
643.506	1	1
643.845	1	-1
644.184	1	7
644.524	1	-1
644.863	1	-8
645.202	1	-8
645.541	1	-6
645.880	1	3
646.219	1	4
646.558	1	-11
646.897	1	1
647.236	1	6
647.575	1	3
647.914	1	-4
648.253	1	4
648.592	1	-1
648.931	1	6
649.270	1	13
649.610	1	3
649.949	1	4
650.288	1	6
650.627	1	2
650.966	1	-2
651.305	1	-2
651.644	1	-7
651.983	1	1
652.322	1	5
652.661	1	5
653.000	1	-5
653.339	1	2
653.678	1	3
654.017	1	8
654.356	1	10
654.695	1	0
655.034	1	-4
655.373	1	-3
655.712	1	-5
656.051	1	2
656.390	1	-1
656.729	1	6
657.068	1	8
657.406	1	4
657.745	1	-5
658.084	1	13
658.423	1	-6
658.762	1	1
659.101	1	0
659.440	1	2
659.779	1	3
660.118	1	13
660.457	1	-1
660.796	1	-4
661.135	1	7
661.474	1	6
661.813	1	6
662.152	1	4
662.491	1	1
662.829	1	-4
663.168	1	1
663.507	1	1
663.846	1	0
664.185	1	-3
664.524	1	-8
664.863	1	5
665.202	1	-4
665.541	1	3
665.879	1	-9
666.218	1	-10
666.557	1	7
666.896	1	-5
667.235	1	-3
667.574	1	-4
667.913	1	3
668.251	1	9
668.590	1	0
668.929	1	8
669.268	1	5
669.607	1	-14
669.946	1	6
670.285	1	0
670.623	1	3
670.962	1	0
671.301	1	5
671.640	1	-13
671.979	1	7
672.317	1	-2
672.656	1	1
672.995	1	1
673.334	1	7
673.673	1	21
674.011	1	-3
674.350	1	5
674.689	1	5
675.028	1	5
675.367	1	7
675.705	1	-9
676.044	1	0
676.383	1	-10
676.722	1	5
677.060	1	3
677.399	1	2
677.738	1	1
678.077	1	7
678.416	1	2
678.754	1	2
679.093	1	3
679.432	1	-2
679.771	1	-7
680.109	1	6
680.448	1	-1
680.787	1	-1
681.125	1	11
681.464	1	2
681.803	1	-6
682.142	1	5
682.480	1	5
682.819	1	-1
683.158	1	6
683.496	1	-12
683.835	1	-2
684.174	1	-1
684.512	1	4
684.851	1	0
685.190	1	7
685.529	1	8
685.867	1	0
686.206	1	8
686.545	1	-3
686.883	1	-4
687.222	1	0
687.561	1	2
687.899	1	-1
688.238	1	-1
688.577	1	-2
688.746	1	-5