File: Analysis/GaN_68K_200ms/GaN_sample E_spot4_UVVIS_68 K_200um_200 ms 2x2mm1_256.txt
340.368	1	-7
340.710	1	-3
341.052	1	7
341.394	1	4
341.737	1	4
342.079	1	4
342.421	1	-4
342.763	1	0
343.105	1	13
343.447	1	14
343.789	1	-3
344.131	1	-4
344.473	1	2
344.815	1	5
345.157	1	7
345.499	1	11
345.841	1	3
346.183	1	10
346.526	1	11
346.868	1	-8
347.210	1	-1
347.552	1	9
347.894	1	8
348.236	1	9
348.578	1	18
348.920	1	12
349.262	1	-2
349.604	1	13
349.946	1	13
350.288	1	9
350.630	1	-2
350.972	1	-6
351.314	1	-4
351.656	1	3
351.998	1	0
352.340	1	4
352.682	1	-2
353.024	1	-2
353.366	1	9
353.708	1	7
354.050	1	3
354.392	1	14
354.734	1	4
355.076	1	7
355.418	1	0
355.760	1	11
356.102	1	-6
356.444	1	12
356.785	1	14
357.127	1	-1
357.469	1	7
357.811	1	13
358.153	1	13
358.495	1	2
358.837	1	9
359.179	1	6
359.521	1	-3
359.863	1	-9
360.205	1	7
360.547	1	-1
360.889	1	4
361.231	1	1
361.572	1	4
361.914	1	3
362.256	1	10
362.598	1	7
362.940	1	3
363.282	1	4
363.624	1	7
363.966	1	3
364.308	1	0
364.649	1	-1
364.991	1	10
365.333	1	17
365.675	1	4
366.017	1	13
366.359	1	13
366.701	1	6
367.042	1	18
367.384	1	18
367.726	1	19
368.068	1	7
368.410	1	11
368.752	1	8
369.093	1	17
369.435	1	7
369.777	1	2
370.119	1	13
370.461	1	15
370.803	1	8
371.144	1	18
371.486	1	21
371.828	1	6
372.170	1	10
372.512	1	6
372.853	1	17
373.195	1	5
373.537	1	-2
373.879	1	5
374.220	1	14
374.562	1	2
374.904	1	9
375.246	1	7
375.588	1	2
375.929	1	10
376.271	1	2
376.613	1	6
376.955	1	2
377.296	1	8
377.638	1	0
377.980	1	6
378.321	1	10
378.663	1	3
379.005	1	14
379.347	1	5
379.688	1	-3
380.030	1	4
380.372	1	2
380.714	1	9
381.055	1	14
381.397	1	8
381.739	1	12
382.080	1	-9
382.422	1	21
382.764	1	5
383.105	1	16
383.447	1	14
383.789	1	10
384.130	1	8
384.472	1	2
384.814	1	8
385.156	1	16
385.497	1	31
385.839	1	16
386.180	1	6
386.522	1	24
386.864	1	12
387.205	1	16
387.547	1	10
387.889	1	27
388.230	1	6
388.572	1	18
388.914	1	25
389.255	1	14
389.597	1	-4
389.939	1	17
390.280	1	5
390.622	1	13
390.963	1	10
391.305	1	25
391.647	1	2
391.988	1	12
392.330	1	19
392.671	1	19
393.013	1	19
393.355	1	26
393.696	1	6
394.038	1	15
394.379	1	16
394.721	1	6
395.062	1	3
395.404	1	14
395.746	1	12
396.087	1	8
396.429	1	17
396.770	1	16
397.112	1	13
397.453	1	1
397.795	1	18
398.136	1	10
398.478	1	-1
398.819	1	9
399.161	1	17
399.503	1	11
399.844	1	9
400.186	1	20
400.527	1	9
400.869	1	20
401.210	1	4
401.552	1	22
401.893	1	9
402.235	1	28
402.576	1	17
402.918	1	4
403.259	1	-3
403.601	1	-1
403.942	1	17
404.284	1	10
404.625	1	4
404.967	1	7
405.308	1	12
405.649	1	12
405.991	1	13
406.332	1	2
406.674	1	9
407.015	1	7
407.357	1	19
407.698	1	-1
408.040	1	2
408.381	1	14
408.722	1	2
409.064	1	13
409.405	1	4
409.747	1	2
410.088	1	9
410.430	1	9
410.771	1	25
411.112	1	14
411.454	1	21
411.795	1	8
412.137	1	12
412.478	1	15
412.819	1	4
413.161	1	6
413.502	1	6
413.844	1	4
414.185	1	12
414.526	1	19
414.868	1	7
415.209	1	16
415.550	1	4
415.892	1	3
416.233	1	8
416.575	1	16
416.916	1	5
417.257	1	4
417.599	1	10
417.940	1	13
418.281	1	4
418.623	1	1
418.964	1	11
419.305	1	7
419.647	1	12
419.988	1	5
420.329	1	14
420.671	1	6
421.012	1	16
421.353	1	18
421.695	1	1
422.036	1	5
422.377	1	12
422.718	1	7
423.060	1	10
423.401	1	9
423.742	1	18
424.084	1	12
424.425	1	11
424.766	1	1
425.107	1	8
425.449	1	11
425.790	1	4
426.131	1	10
426.472	1	8
426.814	1	11
427.155	1	7
427.496	1	10
427.837	1	2
428.179	1	-4
428.520	1	7
428.861	1	4
429.202	1	8
429.544	1	9
429.885	1	2
430.226	1	3
430.567	1	9
430.909	1	3
431.250	1	-6
431.591	1	14
431.932	1	9
432.273	1	1
432.615	1	9
432.956	1	-4
433.297	1	19
433.638	1	6
433.979	1	10
434.320	1	12
434.662	1	6
435.003	1	6
435.344	1	13
435.685	1	6
436.026	1	5
436.368	1	3
436.709	1	0
437.050	1	9
437.391	1	2
437.732	1	9
438.073	1	16
438.414	1	7
438.756	1	8
439.097	1	12
439.438	1	5
439.779	1	-5
440.120	1	9
440.461	1	2
440.802	1	0
441.143	1	13
441.485	1	1
441.826	1	0
442.167	1	4
442.508	1	0
442.849	1	15
443.190	1	-7
443.531	1	-3
443.872	1	10
444.213	1	-6
444.554	1	-1
444.895	1	3
445.237	1	3
445.578	1	10
445.919	1	9
446.260	1	7
446.601	1	-2
446.942	1	11
447.283	1	0
447.624	1	13
447.965	1	-4
448.306	1	5
448.647	1	3
448.988	1	-2
449.329	1	-2
449.670	1	3
450.011	1	5
450.352	1	11
450.693	1	14
451.034	1	-1
451.375	1	15
451.716	1	7
452.057	1	13
452.398	1	12
452.739	1	2
453.080	1	8
453.421	1	3
453.762	1	8
454.103	1	9
454.444	1	11
454.785	1	-2
455.126	1	1
455.467	1	2
455.808	1	3
456.149	1	-1
456.490	1	-1
456.831	1	13
457.172	1	-1
457.513	1	13
457.854	1	9
458.195	1	7
458.536	1	10
458.877	1	-3
459.218	1	5
459.559	1	-4
459.899	1	5
460.240	1	13
460.581	1	11
460.922	1	-2
461.263	1	7
461.604	1	6
461.945	1	0
462.286	1	14
462.627	1	6
462.968	1	-5
463.309	1	3
463.649	1	5
463.990	1	7
464.331	1	0
464.672	1	-2
465.013	1	-8
465.354	1	14
465.695	1	15
466.036	1	0
466.376	1	7
466.717	1	-4
467.058	1	6
467.399	1	3
467.740	1	3
468.081	1	5
468.422	1	4
468.762	1	7
469.103	1	-4
469.444	1	9
469.785	1	11
470.126	1	9
470.467	1	-3
470.807	1	5
471.148	1	2
471.489	1	4
471.830	1	14
472.171	1	1
472.511	1	7
472.852	1	-3
473.193	1	-4
473.534	1	-4
473.875	1	6
474.215	1	-1
474.556	1	-1
474.897	1	6
475.238	1	6
475.578	1	3
475.919	1	4
476.260	1	-1
476.601	1	7
476.942	1	-1
477.282	1	-10
477.623	1	15
477.964	1	9
478.305	1	12
478.645	1	2
478.986	1	-1
479.327	1	1
479.667	1	0
480.008	1	10
480.349	1	2
480.690	1	10
481.030	1	-1
481.371	1	6
481.712	1	13
482.053	1	12
482.393	1	-13
482.734	1	6
483.075	1	4
483.415	1	17
483.756	1	13
484.097	1	-4
484.437	1	-8
484.778	1	-4
485.119	1	1
485.459	1	6
485.800	1	-1
486.141	1	-4
486.481	1	3
486.822	1	9
487.163	1	4
487.503	1	-8
487.844	1	5
488.185	1	-4
488.525	1	3
488.866	1	10
489.207	1	14
489.547	1	5
489.888	1	5
490.228	1	2
490.569	1	14
490.910	1	3
491.250	1	4
491.591	1	0
491.932	1	9
492.272	1	18
492.613	1	6
492.953	1	4
493.294	1	7
493.635	1	0
493.975	1	6
494.316	1	11
494.656	1	1
494.997	1	3
495.337	1	8
495.678	1	6
496.019	1	1
496.359	1	11
496.700	1	2
497.040	1	-3
497.381	1	-10
497.721	1	1
498.062	1	6
498.403	1	11
498.743	1	6
499.084	1	-3
499.424	1	18
499.765	1	2
500.105	1	4
500.446	1	15
500.786	1	11
501.127	1	17
501.467	1	10
501.808	1	-4
502.148	1	6
502.489	1	9
502.829	1	4
503.170	1	6
503.510	1	3
503.851	1	-9
504.191	1	1
504.532	1	1
504.872	1	0
505.213	1	0
505.553	1	9
505.894	1	9
506.234	1	15
506.575	1	6
506.915	1	0
507.256	1	6
507.596	1	9
507.936	1	8
508.277	1	9
508.617	1	9
508.958	1	19
509.298	1	25
509.639	1	11
509.979	1	11
510.319	1	4
510.660	1	11
511.000	1	14
511.341	1	2
511.681	1	5
512.022	1	1
512.362	1	9
512.702	1	-1
513.043	1	1
513.383	1	2
513.724	1	17
514.064	1	5
514.404	1	14
514.745	1	6
515.085	1	7
515.425	1	8
515.766	1	9
516.106	1	5
516.447	1	14
516.787	1	2
517.127	1	13
517.468	1	0
517.808	1	10
518.148	1	1
518.489	1	15
518.829	1	5
519.169	1	19
519.510	1	9
519.850	1	0
520.190	1	4
520.531	1	10
520.871	1	0
521.211	1	9
521.552	1	12
521.892	1	9
522.232	1	2
522.573	1	8
522.913	1	10
523.253	1	2
523.593	1	-2
523.934	1	7
524.274	1	-5
524.614	1	5
524.955	1	1
525.295	1	5
525.635	1	12
525.975	1	1
526.316	1	14
526.656	1	14
526.996	1	21
527.337	1	17
527.677	1	16
528.017	1	9
528.357	1	21
528.698	1	-1
529.038	1	12
529.378	1	14
529.718	1	10
530.058	1	9
530.399	1	22
530.739	1	2
531.079	1	6
531.419	1	17
531.760	1	10
532.100	1	17
532.440	1	8
532.780	1	8
533.120	1	3
533.461	1	12
533.801	1	8
534.141	1	11
534.481	1	11
534.821	1	9
535.162	1	12
535.502	1	13
535.842	1	14
536.182	1	6
536.522	1	12
536.862	1	7
537.203	1	4
537.543	1	13
537.883	1	12
538.223	1	10
538.563	1	1
538.903	1	9
539.243	1	-3
539.584	1	9
539.924	1	18
540.264	1	19
540.604	1	10
540.944	1	7
541.284	1	-2
541.624	1	12
541.964	1	1
542.305	1	1
542.645	1	6
542.985	1	9
543.325	1	9
543.665	1	15
544.005	1	6
544.345	1	-6
544.685	1	8
545.025	1	7
545.365	1	13
545.705	1	16
546.045	1	16
546.386	1	10
546.726	1	4
547.066	1	6
547.406	1	12
547.746	1	10
548.086	1	10
548.426	1	-1
548.766	1	15
549.106	1	19
549.446	1	8
549.786	1	9
550.126	1	9
550.466	1	9
550.806	1	12
551.146	1	3
551.486	1	2
551.826	1	16
552.166	1	5
552.506	1	7
552.846	1	9
553.186	1	7
553.526	1	6
553.866	1	12
554.206	1	8
554.546	1	-2
554.886	1	13
555.226	1	-1
555.566	1	19
555.906	1	8
556.246	1	7
556.586	1	9
556.926	1	10
557.266	1	19
557.606	1	1
557.946	1	11
558.286	1	14
558.626	1	8
558.966	1	5
559.306	1	8
559.646	1	9
559.986	1	0
560.325	1	-8
560.665	1	14
561.005	1	14
561.345	1	5
561.685	1	-3
562.025	1	2
562.365	1	7
562.705	1	18
563.045	1	9
563.385	1	-2
563.725	1	9
564.064	1	11
564.404	1	6
564.744	1	12
565.084	1	-2
565.424	1	11
565.764	1	12
566.104	1	-1
566.444	1	13
566.783	1	9
567.123	1	26
567.463	1	3
567.803	1	-1
568.143	1	3
568.483	1	-1
568.823	1	12
569.162	1	18
569.502	1	2
569.842	1	2
570.182	1	6
570.522	1	9
570.862	1	0
571.201	1	4
571.541	1	4
571.881	1	12
572.221	1	3
572.561	1	-6
572.900	1	25
573.240	1	2
573.580	1	6
573.920	1	2
574.260	1	0
574.599	1	2
574.939	1	3
575.279	1	18
575.619	1	2
575.959	1	-9
576.298	1	-3
576.638	1	0
576.978	1	5
577.318	1	7
577.657	1	-1
577.997	1	2
578.337	1	8
578.677	1	-3
579.016	1	21
579.356	1	3
579.696	1	16
580.036	1	4
580.375	1	4
580.715	1	11
581.055	1	7
581.394	1	-4
581.734	1	13
582.074	1	-8
582.414	1	3
582.753	1	-1
583.093	1	-1
583.433	1	0
583.772	1	10
584.112	1	-2
584.452	1	-2
584.791	1	3
585.131	1	-2
585.471	1	5
585.811	1	4
586.150	1	5
586.490	1	-7
586.830	1	-13
587.169	1	7
587.509	1	5
587.849	1	13
588.188	1	11
588.528	1	9
588.867	1	14
589.207	1	-1
589.547	1	9
589.886	1	-1
590.226	1	-1
590.566	1	-2
590.905	1	7
591.245	1	1
591.585	1	1
591.924	1	2
592.264	1	0
592.603	1	2
592.943	1	0
593.283	1	5
593.622	1	5
593.962	1	5
594.301	1	11
594.641	1	10
594.981	1	6
595.320	1	0
595.660	1	0
595.999	1	7
596.339	1	9
596.678	1	5
597.018	1	7
597.358	1	3
597.697	1	7
598.037	1	1
598.376	1	11
598.716	1	-2
599.055	1	1
599.395	1	0
599.734	1	5
600.074	1	3
600.413	1	0
600.753	1	5
601.092	1	-10
601.432	1	1
601.771	1	15
602.111	1	-1
602.451	1	-2
602.790	1	-1
603.130	1	5
603.469	1	-1
603.809	1	6
604.148	1	8
604.487	1	1
604.827	1	-6
605.166	1	-2
605.506	1	4
605.845	1	12
606.185	1	10
606.524	1	-1
606.864	1	-1
607.203	1	3
607.543	1	-3
607.882	1	3
608.222	1	3
608.561	1	14
608.901	1	-1
609.240	1	7
609.579	1	12
609.919	1	1
610.258	1	10
610.598	1	2
610.937	1	2
611.277	1	14
611.616	1	-4
611.955	1	14
612.295	1	6
612.634	1	1
612.974	1	-2
613.313	1	3
613.652	1	0
613.992	1	12
614.331	1	3
614.671	1	10
615.010	1	8
615.349	1	2
615.689	1	9
616.028	1	4
616.368	1	4
616.707	1	1
617.046	1	9
617.386	1	6
617.725	1	9
618.064	1	1
618.404	1	4
618.743	1	4
619.082	1	1
619.422	1	9
619.761	1	10
620.100	1	7
620.440	1	1
620.779	1	0
621.118	1	-4
621.458	1	13
621.797	1	2
622.136	1	10
622.476	1	1
622.815	1	5
623.154	1	7
623.494	1	10
623.833	1	-4
624.172	1	14
624.511	1	7
624.851	1	1
625.190	1	4
625.529	1	14
625.869	1	2
626.208	1	2
626.547	1	2
626.886	1	1
627.226	1	-3
627.565	1	6
627.904	1	9
628.243	1	0
628.583	1	6
628.922	1	0
629.261	1	8
629.600	1	6
629.940	1	2
630.279	1	-7
630.618	1	4
630.957	1	5
631.297	1	2
631.636	1	5
631.975	1	11
632.314	1	12
632.653	1	-8
632.993	1	12
633.332	1	7
633.671	1	-1
634.010	1	-1
634.349	1	4
634.689	1	8
635.028	1	5
635.367	1	-5
635.706	1	-1
636.045	1	5
636.384	1	7
636.724	1	6
637.063	1	9
637.402	1	3
637.741	1	10
638.080	1	7
638.419	1	9
638.759	1	5
639.098	1	-3
639.437	1	-9
639.776	1	-3
640.115	1	4
640.454	1	2
640.793	1	14
641.132	1	13
641.472	1	1
641.811	1	-2
642.150	1	-6
642.489	1	1
642.828	1	11
643.167	1	11
643.506	1	1
643.845	1	5
644.184	1	9
644.524	1	-4
644.863	1	-10
645.202	1	-1
645.541	1	0
645.880	1	0
646.219	1	2
646.558	1	6
646.897	1	6
647.236	1	4
647.575	1	2
647.914	1	2
648.253	1	7
648.592	1	7
648.931	1	12
649.270	1	11
649.610	1	16
649.949	1	0
650.288	1	6
650.627	1	6
650.966	1	-3
651.305	1	2
651.644	1	-5
651.983	1	5
652.322	1	7
652.661	1	2
653.000	1	-4
653.339	1	19
653.678	1	7
654.017	1	4
654.356	1	9
654.695	1	1
655.034	1	8
655.373	1	5
655.712	1	6
656.051	1	5
656.390	1	5
656.729	1	6
657.068	1	-9
657.406	1	1
657.745	1	-3
658.084	1	10
658.423	1	4
658.762	1	-4
659.101	1	-5
659.440	1	15
659.779	1	3
660.118	1	9
660.457	1	-3
660.796	1	1
661.135	1	6
661.474	1	0
661.813	1	7
662.152	1	8
662.491	1	-3
662.829	1	9
663.168	1	-1
663.507	1	-2
663.846	1	7
664.185	1	-5
664.524	1	-13
664.863	1	8
665.202	1	-3
665.541	1	4
665.879	1	-4
666.218	1	2
666.557	1	-1
666.896	1	5
667.235	1	11
667.574	1	8
667.913	1	6
668.251	1	4
668.590	1	-4
668.929	1	10
669.268	1	1
669.607	1	-3
669.946	1	9
670.285	1	11
670.623	1	-2
670.962	1	4
671.301	1	9
671.640	1	-10
671.979	1	9
672.317	1	4
672.656	1	-3
672.995	1	2
673.334	1	14
673.673	1	16
674.011	1	7
674.350	1	-7
674.689	1	-2
675.028	1	9
675.367	1	-2
675.705	1	-10
676.044	1	-2
676.383	1	-8
676.722	1	5
677.060	1	1
677.399	1	5
677.738	1	1
678.077	1	2
678.416	1	3
678.754	1	-6
679.093	1	10
679.432	1	-4
679.771	1	-3
680.109	1	7
680.448	1	9
680.787	1	3
681.125	1	10
681.464	1	-3
681.803	1	-2
682.142	1	10
682.480	1	-6
682.819	1	4
683.158	1	4
683.496	1	1
683.835	1	-2
684.174	1	-3
684.512	1	10
684.851	1	3
685.190	1	13
685.529	1	8
685.867	1	3
686.206	1	1
686.545	1	12
686.883	1	-7
687.222	1	3
687.561	1	2
687.899	1	-4
688.238	1	6
688.577	1	-10
688.746	1	-1