File: Analysis/GaN_68K_200ms/GaN_sample E_spot4_UVVIS_68 K_200um_200 ms 2x2mm1_319.txt
340.368	1	8
340.710	1	1
341.052	1	-3
341.394	1	2
341.737	1	6
342.079	1	-2
342.421	1	1
342.763	1	1
343.105	1	12
343.447	1	3
343.789	1	-7
344.131	1	-6
344.473	1	4
344.815	1	6
345.157	1	5
345.499	1	7
345.841	1	8
346.183	1	0
346.526	1	-1
346.868	1	2
347.210	1	4
347.552	1	1
347.894	1	5
348.236	1	-3
348.578	1	15
348.920	1	8
349.262	1	3
349.604	1	17
349.946	1	18
350.288	1	4
350.630	1	7
350.972	1	-4
351.314	1	1
351.656	1	-3
351.998	1	-1
352.340	1	4
352.682	1	11
353.024	1	1
353.366	1	1
353.708	1	3
354.050	1	8
354.392	1	6
354.734	1	1
355.076	1	3
355.418	1	3
355.760	1	3
356.102	1	-11
356.444	1	-5
356.785	1	13
357.127	1	7
357.469	1	3
357.811	1	6
358.153	1	-1
358.495	1	12
358.837	1	2
359.179	1	4
359.521	1	2
359.863	1	-11
360.205	1	7
360.547	1	6
360.889	1	7
361.231	1	4
361.572	1	-11
361.914	1	3
362.256	1	8
362.598	1	10
362.940	1	1
363.282	1	6
363.624	1	3
363.966	1	1
364.308	1	2
364.649	1	8
364.991	1	16
365.333	1	21
365.675	1	2
366.017	1	9
366.359	1	14
366.701	1	5
367.042	1	12
367.384	1	17
367.726	1	19
368.068	1	7
368.410	1	7
368.752	1	6
369.093	1	4
369.435	1	0
369.777	1	5
370.119	1	4
370.461	1	11
370.803	1	1
371.144	1	7
371.486	1	3
371.828	1	8
372.170	1	17
372.512	1	3
372.853	1	-1
373.195	1	5
373.537	1	11
373.879	1	18
374.220	1	5
374.562	1	7
374.904	1	-6
375.246	1	2
375.588	1	2
375.929	1	7
376.271	1	-3
376.613	1	-2
376.955	1	5
377.296	1	8
377.638	1	7
377.980	1	2
378.321	1	9
378.663	1	0
379.005	1	1
379.347	1	15
379.688	1	8
380.030	1	1
380.372	1	8
380.714	1	4
381.055	1	10
381.397	1	1
381.739	1	9
382.080	1	0
382.422	1	8
382.764	1	1
383.105	1	5
383.447	1	19
383.789	1	16
384.130	1	-6
384.472	1	-4
384.814	1	17
385.156	1	16
385.497	1	14
385.839	1	11
386.180	1	10
386.522	1	15
386.864	1	19
387.205	1	13
387.547	1	11
387.889	1	21
388.230	1	5
388.572	1	11
388.914	1	19
389.255	1	11
389.597	1	-2
389.939	1	8
390.280	1	13
390.622	1	12
390.963	1	5
391.305	1	17
391.647	1	4
391.988	1	7
392.330	1	15
392.671	1	10
393.013	1	22
393.355	1	18
393.696	1	9
394.038	1	-6
394.379	1	1
394.721	1	10
395.062	1	3
395.404	1	4
395.746	1	1
396.087	1	9
396.429	1	8
396.770	1	13
397.112	1	15
397.453	1	-1
397.795	1	12
398.136	1	15
398.478	1	5
398.819	1	9
399.161	1	18
399.503	1	11
399.844	1	8
400.186	1	20
400.527	1	13
400.869	1	13
401.210	1	2
401.552	1	24
401.893	1	15
402.235	1	19
402.576	1	22
402.918	1	5
403.259	1	-4
403.601	1	6
403.942	1	11
404.284	1	-2
404.625	1	11
404.967	1	10
405.308	1	7
405.649	1	10
405.991	1	11
406.332	1	1
406.674	1	4
407.015	1	3
407.357	1	8
407.698	1	-7
408.040	1	0
408.381	1	0
408.722	1	1
409.064	1	11
409.405	1	16
409.747	1	0
410.088	1	1
410.430	1	14
410.771	1	17
411.112	1	12
411.454	1	13
411.795	1	10
412.137	1	10
412.478	1	7
412.819	1	8
413.161	1	5
413.502	1	-2
413.844	1	5
414.185	1	9
414.526	1	7
414.868	1	7
415.209	1	3
415.550	1	9
415.892	1	5
416.233	1	15
416.575	1	16
416.916	1	2
417.257	1	-1
417.599	1	14
417.940	1	6
418.281	1	9
418.623	1	8
418.964	1	-3
419.305	1	5
419.647	1	15
419.988	1	8
420.329	1	5
420.671	1	0
421.012	1	13
421.353	1	13
421.695	1	13
422.036	1	-3
422.377	1	7
422.718	1	8
423.060	1	1
423.401	1	8
423.742	1	1
424.084	1	7
424.425	1	-1
424.766	1	11
425.107	1	3
425.449	1	2
425.790	1	3
426.131	1	9
426.472	1	3
426.814	1	15
427.155	1	1
427.496	1	12
427.837	1	-8
428.179	1	4
428.520	1	-1
428.861	1	-6
429.202	1	10
429.544	1	-1
429.885	1	-5
430.226	1	3
430.567	1	11
430.909	1	-5
431.250	1	-12
431.591	1	6
431.932	1	11
432.273	1	0
432.615	1	8
432.956	1	-1
433.297	1	6
433.638	1	0
433.979	1	14
434.320	1	4
434.662	1	4
435.003	1	0
435.344	1	7
435.685	1	11
436.026	1	5
436.368	1	2
436.709	1	-1
437.050	1	18
437.391	1	6
437.732	1	9
438.073	1	10
438.414	1	3
438.756	1	8
439.097	1	18
439.438	1	14
439.779	1	-1
440.120	1	10
440.461	1	-3
440.802	1	8
441.143	1	16
441.485	1	6
441.826	1	2
442.167	1	-5
442.508	1	10
442.849	1	14
443.190	1	-9
443.531	1	-11
443.872	1	-6
444.213	1	-4
444.554	1	1
444.895	1	1
445.237	1	-5
445.578	1	3
445.919	1	11
446.260	1	9
446.601	1	1
446.942	1	3
447.283	1	-1
447.624	1	8
447.965	1	-3
448.306	1	2
448.647	1	9
448.988	1	-14
449.329	1	5
449.670	1	9
450.011	1	1
450.352	1	13
450.693	1	6
451.034	1	1
451.375	1	18
451.716	1	5
452.057	1	3
452.398	1	8
452.739	1	4
453.080	1	15
453.421	1	-4
453.762	1	1
454.103	1	2
454.444	1	9
454.785	1	-8
455.126	1	-5
455.467	1	5
455.808	1	-1
456.149	1	-11
456.490	1	3
456.831	1	17
457.172	1	2
457.513	1	10
457.854	1	5
458.195	1	-5
458.536	1	9
458.877	1	-2
459.218	1	8
459.559	1	7
459.899	1	4
460.240	1	7
460.581	1	8
460.922	1	4
461.263	1	7
461.604	1	0
461.945	1	18
462.286	1	7
462.627	1	2
462.968	1	-9
463.309	1	-6
463.649	1	5
463.990	1	-2
464.331	1	5
464.672	1	1
465.013	1	-7
465.354	1	2
465.695	1	13
466.036	1	8
466.376	1	3
466.717	1	-10
467.058	1	8
467.399	1	4
467.740	1	10
468.081	1	0
468.422	1	9
468.762	1	-6
469.103	1	-4
469.444	1	-1
469.785	1	2
470.126	1	6
470.467	1	-5
470.807	1	7
471.148	1	-2
471.489	1	1
471.830	1	14
472.171	1	1
472.511	1	13
472.852	1	5
473.193	1	-10
473.534	1	-2
473.875	1	18
474.215	1	4
474.556	1	-10
474.897	1	1
475.238	1	4
475.578	1	1
475.919	1	1
476.260	1	-4
476.601	1	5
476.942	1	0
477.282	1	-5
477.623	1	3
477.964	1	12
478.305	1	4
478.645	1	-6
478.986	1	-4
479.327	1	-3
479.667	1	0
480.008	1	12
480.349	1	6
480.690	1	9
481.030	1	0
481.371	1	7
481.712	1	7
482.053	1	11
482.393	1	-17
482.734	1	7
483.075	1	12
483.415	1	9
483.756	1	7
484.097	1	-16
484.437	1	-9
484.778	1	4
485.119	1	8
485.459	1	4
485.800	1	-3
486.141	1	-7
486.481	1	12
486.822	1	5
487.163	1	-13
487.503	1	-12
487.844	1	1
488.185	1	1
488.525	1	8
488.866	1	13
489.207	1	13
489.547	1	2
489.888	1	3
490.228	1	1
490.569	1	11
490.910	1	-2
491.250	1	0
491.591	1	0
491.932	1	12
492.272	1	15
492.613	1	-1
492.953	1	8
493.294	1	5
493.635	1	2
493.975	1	-2
494.316	1	17
494.656	1	-3
494.997	1	2
495.337	1	3
495.678	1	14
496.019	1	1
496.359	1	4
496.700	1	2
497.040	1	0
497.381	1	-9
497.721	1	0
498.062	1	7
498.403	1	7
498.743	1	-3
499.084	1	-12
499.424	1	10
499.765	1	4
500.105	1	2
500.446	1	4
500.786	1	-3
501.127	1	14
501.467	1	15
501.808	1	-1
502.148	1	6
502.489	1	8
502.829	1	5
503.170	1	3
503.510	1	-1
503.851	1	-3
504.191	1	13
504.532	1	-4
504.872	1	-6
505.213	1	9
505.553	1	5
505.894	1	11
506.234	1	11
506.575	1	11
506.915	1	1
507.256	1	-4
507.596	1	3
507.936	1	7
508.277	1	5
508.617	1	7
508.958	1	19
509.298	1	11
509.639	1	18
509.979	1	4
510.319	1	4
510.660	1	8
511.000	1	8
511.341	1	-7
511.681	1	9
512.022	1	2
512.362	1	8
512.702	1	-4
513.043	1	7
513.383	1	-1
513.724	1	10
514.064	1	8
514.404	1	5
514.745	1	4
515.085	1	6
515.425	1	-1
515.766	1	-2
516.106	1	3
516.447	1	9
516.787	1	4
517.127	1	13
517.468	1	4
517.808	1	7
518.148	1	2
518.489	1	7
518.829	1	2
519.169	1	14
519.510	1	-3
519.850	1	4
520.190	1	10
520.531	1	11
520.871	1	-2
521.211	1	3
521.552	1	0
521.892	1	-9
522.232	1	3
522.573	1	18
522.913	1	16
523.253	1	9
523.593	1	-10
523.934	1	5
524.274	1	6
524.614	1	8
524.955	1	3
525.295	1	-6
525.635	1	18
525.975	1	3
526.316	1	-10
526.656	1	17
526.996	1	14
527.337	1	8
527.677	1	26
528.017	1	-2
528.357	1	15
528.698	1	-3
529.038	1	12
529.378	1	0
529.718	1	2
530.058	1	3
530.399	1	11
530.739	1	7
531.079	1	5
531.419	1	17
531.760	1	13
532.100	1	25
532.440	1	2
532.780	1	3
533.120	1	7
533.461	1	19
533.801	1	6
534.141	1	12
534.481	1	2
534.821	1	9
535.162	1	7
535.502	1	10
535.842	1	3
536.182	1	12
536.522	1	8
536.862	1	11
537.203	1	6
537.543	1	13
537.883	1	9
538.223	1	15
538.563	1	3
538.903	1	7
539.243	1	9
539.584	1	6
539.924	1	7
540.264	1	14
540.604	1	12
540.944	1	9
541.284	1	-1
541.624	1	0
541.964	1	7
542.305	1	-3
542.645	1	10
542.985	1	-2
543.325	1	8
543.665	1	16
544.005	1	9
544.345	1	-10
544.685	1	5
545.025	1	10
545.365	1	10
545.705	1	8
546.045	1	8
546.386	1	6
546.726	1	-5
547.066	1	-9
547.406	1	6
547.746	1	17
548.086	1	14
548.426	1	7
548.766	1	8
549.106	1	18
549.446	1	10
549.786	1	11
550.126	1	5
550.466	1	1
550.806	1	11
551.146	1	6
551.486	1	7
551.826	1	2
552.166	1	1
552.506	1	-5
552.846	1	1
553.186	1	5
553.526	1	3
553.866	1	4
554.206	1	4
554.546	1	-12
554.886	1	6
555.226	1	-3
555.566	1	8
555.906	1	7
556.246	1	-3
556.586	1	13
556.926	1	5
557.266	1	13
557.606	1	-4
557.946	1	19
558.286	1	13
558.626	1	6
558.966	1	9
559.306	1	-1
559.646	1	7
559.986	1	6
560.325	1	-5
560.665	1	9
561.005	1	0
561.345	1	1
561.685	1	10
562.025	1	1
562.365	1	4
562.705	1	10
563.045	1	0
563.385	1	-2
563.725	1	-1
564.064	1	7
564.404	1	8
564.744	1	13
565.084	1	-6
565.424	1	7
565.764	1	17
566.104	1	8
566.444	1	16
566.783	1	2
567.123	1	10
567.463	1	4
567.803	1	-3
568.143	1	-2
568.483	1	-2
568.823	1	10
569.162	1	12
569.502	1	6
569.842	1	4
570.182	1	-3
570.522	1	7
570.862	1	2
571.201	1	11
571.541	1	-3
571.881	1	8
572.221	1	6
572.561	1	-7
572.900	1	22
573.240	1	-5
573.580	1	3
573.920	1	-5
574.260	1	6
574.599	1	7
574.939	1	8
575.279	1	9
575.619	1	0
575.959	1	-5
576.298	1	-4
576.638	1	7
576.978	1	1
577.318	1	5
577.657	1	-8
577.997	1	-3
578.337	1	8
578.677	1	-2
579.016	1	11
579.356	1	6
579.696	1	2
580.036	1	1
580.375	1	-3
580.715	1	11
581.055	1	19
581.394	1	-1
581.734	1	9
582.074	1	-2
582.414	1	3
582.753	1	8
583.093	1	-2
583.433	1	2
583.772	1	7
584.112	1	3
584.452	1	1
584.791	1	-3
585.131	1	-3
585.471	1	-5
585.811	1	-2
586.150	1	7
586.490	1	-1
586.830	1	-2
587.169	1	-1
587.509	1	4
587.849	1	6
588.188	1	4
588.528	1	14
588.867	1	1
589.207	1	0
589.547	1	-5
589.886	1	-14
590.226	1	6
590.566	1	7
590.905	1	11
591.245	1	-5
591.585	1	-4
591.924	1	2
592.264	1	-1
592.603	1	11
592.943	1	-9
593.283	1	11
593.622	1	8
593.962	1	11
594.301	1	6
594.641	1	-12
594.981	1	4
595.320	1	15
595.660	1	-1
595.999	1	7
596.339	1	8
596.678	1	6
597.018	1	1
597.358	1	6
597.697	1	-8
598.037	1	8
598.376	1	8
598.716	1	-2
599.055	1	2
599.395	1	8
599.734	1	-4
600.074	1	-4
600.413	1	2
600.753	1	0
601.092	1	-11
601.432	1	3
601.771	1	13
602.111	1	-9
602.451	1	11
602.790	1	1
603.130	1	10
603.469	1	-4
603.809	1	4
604.148	1	9
604.487	1	-4
604.827	1	-5
605.166	1	0
605.506	1	7
605.845	1	5
606.185	1	-3
606.524	1	-5
606.864	1	-5
607.203	1	14
607.543	1	0
607.882	1	-6
608.222	1	9
608.561	1	11
608.901	1	0
609.240	1	-9
609.579	1	14
609.919	1	-7
610.258	1	15
610.598	1	9
610.937	1	-6
611.277	1	1
611.616	1	4
611.955	1	9
612.295	1	-1
612.634	1	-4
612.974	1	5
613.313	1	2
613.652	1	-1
613.992	1	10
614.331	1	7
614.671	1	2
615.010	1	11
615.349	1	-1
615.689	1	0
616.028	1	2
616.368	1	-5
616.707	1	1
617.046	1	3
617.386	1	-3
617.725	1	13
618.064	1	6
618.404	1	11
618.743	1	4
619.082	1	3
619.422	1	6
619.761	1	10
620.100	1	5
620.440	1	-4
620.779	1	-15
621.118	1	-5
621.458	1	3
621.797	1	3
622.136	1	8
622.476	1	-1
622.815	1	5
623.154	1	6
623.494	1	6
623.833	1	4
624.172	1	9
624.511	1	4
624.851	1	-7
625.190	1	-3
625.529	1	0
625.869	1	5
626.208	1	-6
626.547	1	7
626.886	1	-4
627.226	1	-4
627.565	1	4
627.904	1	1
628.243	1	-9
628.583	1	-1
628.922	1	4
629.261	1	10
629.600	1	9
629.940	1	-1
630.279	1	0
630.618	1	4
630.957	1	-3
631.297	1	7
631.636	1	-3
631.975	1	4
632.314	1	10
632.653	1	0
632.993	1	-1
633.332	1	8
633.671	1	6
634.010	1	4
634.349	1	12
634.689	1	7
635.028	1	7
635.367	1	1
635.706	1	1
636.045	1	-5
636.384	1	13
636.724	1	9
637.063	1	3
637.402	1	13
637.741	1	18
638.080	1	1
638.419	1	4
638.759	1	4
639.098	1	3
639.437	1	-1
639.776	1	9
640.115	1	3
640.454	1	15
640.793	1	3
641.132	1	5
641.472	1	-6
641.811	1	-5
642.150	1	-10
642.489	1	-6
642.828	1	5
643.167	1	1
643.506	1	0
643.845	1	7
644.184	1	3
644.524	1	-12
644.863	1	-10
645.202	1	2
645.541	1	-13
645.880	1	-6
646.219	1	5
646.558	1	0
646.897	1	2
647.236	1	2
647.575	1	9
647.914	1	-4
648.253	1	1
648.592	1	10
648.931	1	-2
649.270	1	17
649.610	1	4
649.949	1	0
650.288	1	-3
650.627	1	2
650.966	1	-3
651.305	1	-3
651.644	1	-2
651.983	1	6
652.322	1	2
652.661	1	11
653.000	1	-7
653.339	1	6
653.678	1	-8
654.017	1	0
654.356	1	7
654.695	1	-6
655.034	1	5
655.373	1	4
655.712	1	-14
656.051	1	9
656.390	1	7
656.729	1	4
657.068	1	8
657.406	1	2
657.745	1	-13
658.084	1	12
658.423	1	-4
658.762	1	-6
659.101	1	-6
659.440	1	7
659.779	1	2
660.118	1	3
660.457	1	-8
660.796	1	-3
661.135	1	-7
661.474	1	6
661.813	1	7
662.152	1	11
662.491	1	6
662.829	1	-12
663.168	1	-6
663.507	1	2
663.846	1	7
664.185	1	-4
664.524	1	-4
664.863	1	-2
665.202	1	4
665.541	1	5
665.879	1	2
666.218	1	-8
666.557	1	-1
666.896	1	-5
667.235	1	8
667.574	1	1
667.913	1	-1
668.251	1	3
668.590	1	-9
668.929	1	-3
669.268	1	6
669.607	1	-11
669.946	1	8
670.285	1	13
670.623	1	6
670.962	1	3
671.301	1	-4
671.640	1	-15
671.979	1	10
672.317	1	-6
672.656	1	5
672.995	1	-5
673.334	1	8
673.673	1	13
674.011	1	8
674.350	1	-6
674.689	1	-1
675.028	1	9
675.367	1	-3
675.705	1	-6
676.044	1	-10
676.383	1	1
676.722	1	5
677.060	1	-4
677.399	1	11
677.738	1	-7
678.077	1	9
678.416	1	-3
678.754	1	0
679.093	1	1
679.432	1	-2
679.771	1	1
680.109	1	7
680.448	1	6
680.787	1	2
681.125	1	5
681.464	1	-1
681.803	1	-9
682.142	1	16
682.480	1	2
682.819	1	-1
683.158	1	7
683.496	1	2
683.835	1	7
684.174	1	7
684.512	1	-1
684.851	1	-2
685.190	1	10
685.529	1	6
685.867	1	0
686.206	1	1
686.545	1	5
686.883	1	-1
687.222	1	5
687.561	1	4
687.899	1	-1
688.238	1	3
688.577	1	-7
688.746	1	7