File: Analysis/GaN_68K_200ms/GaN_sample E_spot4_UVVIS_68 K_200um_200 ms 2x2mm1_518.txt
340.368	1	-7
340.710	1	-9
341.052	1	2
341.394	1	6
341.737	1	2
342.079	1	-9
342.421	1	-2
342.763	1	-7
343.105	1	12
343.447	1	-2
343.789	1	-11
344.131	1	-6
344.473	1	-7
344.815	1	11
345.157	1	3
345.499	1	5
345.841	1	6
346.183	1	4
346.526	1	15
346.868	1	7
347.210	1	-4
347.552	1	6
347.894	1	7
348.236	1	9
348.578	1	6
348.920	1	11
349.262	1	4
349.604	1	4
349.946	1	11
350.288	1	-4
350.630	1	-10
350.972	1	1
351.314	1	2
351.656	1	-5
351.998	1	-5
352.340	1	-6
352.682	1	-4
353.024	1	-6
353.366	1	9
353.708	1	8
354.050	1	4
354.392	1	0
354.734	1	0
355.076	1	3
355.418	1	-5
355.760	1	0
356.102	1	-6
356.444	1	6
356.785	1	13
357.127	1	13
357.469	1	-1
357.811	1	11
358.153	1	-2
358.495	1	12
358.837	1	2
359.179	1	-2
359.521	1	2
359.863	1	-8
360.205	1	2
360.547	1	1
360.889	1	1
361.231	1	4
361.572	1	-5
361.914	1	-8
362.256	1	7
362.598	1	-1
362.940	1	-3
363.282	1	8
363.624	1	3
363.966	1	1
364.308	1	-4
364.649	1	14
364.991	1	1
365.333	1	6
365.675	1	-4
366.017	1	10
366.359	1	2
366.701	1	1
367.042	1	5
367.384	1	6
367.726	1	11
368.068	1	4
368.410	1	-5
368.752	1	-11
369.093	1	2
369.435	1	5
369.777	1	-1
370.119	1	0
370.461	1	-5
370.803	1	-10
371.144	1	9
371.486	1	12
371.828	1	4
372.170	1	6
372.512	1	0
372.853	1	-2
373.195	1	4
373.537	1	-4
373.879	1	14
374.220	1	-6
374.562	1	8
374.904	1	6
375.246	1	-5
375.588	1	-10
375.929	1	4
376.271	1	-2
376.613	1	-6
376.955	1	-2
377.296	1	5
377.638	1	-3
377.980	1	6
378.321	1	10
378.663	1	-4
379.005	1	2
379.347	1	9
379.688	1	-6
380.030	1	12
380.372	1	-6
380.714	1	-2
381.055	1	1
381.397	1	2
381.739	1	24
382.080	1	-10
382.422	1	8
382.764	1	1
383.105	1	0
383.447	1	4
383.789	1	6
384.130	1	1
384.472	1	-4
384.814	1	10
385.156	1	15
385.497	1	12
385.839	1	1
386.180	1	7
386.522	1	14
386.864	1	2
387.205	1	-13
387.547	1	-2
387.889	1	13
388.230	1	1
388.572	1	1
388.914	1	13
389.255	1	10
389.597	1	-1
389.939	1	9
390.280	1	20
390.622	1	12
390.963	1	9
391.305	1	6
391.647	1	1
391.988	1	1
392.330	1	6
392.671	1	10
393.013	1	5
393.355	1	19
393.696	1	11
394.038	1	-2
394.379	1	-13
394.721	1	2
395.062	1	-9
395.404	1	9
395.746	1	-13
396.087	1	5
396.429	1	10
396.770	1	15
397.112	1	0
397.453	1	-7
397.795	1	10
398.136	1	3
398.478	1	-1
398.819	1	12
399.161	1	3
399.503	1	3
399.844	1	-1
400.186	1	12
400.527	1	4
400.869	1	13
401.210	1	-5
401.552	1	15
401.893	1	4
402.235	1	15
402.576	1	10
402.918	1	-9
403.259	1	-13
403.601	1	-8
403.942	1	13
404.284	1	-2
404.625	1	2
404.967	1	1
405.308	1	5
405.649	1	-3
405.991	1	7
406.332	1	3
406.674	1	7
407.015	1	-4
407.357	1	4
407.698	1	-9
408.040	1	4
408.381	1	-3
408.722	1	2
409.064	1	6
409.405	1	-2
409.747	1	-5
410.088	1	0
410.430	1	9
410.771	1	9
411.112	1	11
411.454	1	10
411.795	1	7
412.137	1	5
412.478	1	4
412.819	1	-3
413.161	1	-2
413.502	1	-1
413.844	1	-6
414.185	1	12
414.526	1	-1
414.868	1	7
415.209	1	-3
415.550	1	-7
415.892	1	4
416.233	1	-1
416.575	1	0
416.916	1	-6
417.257	1	4
417.599	1	0
417.940	1	7
418.281	1	6
418.623	1	4
418.964	1	6
419.305	1	0
419.647	1	8
419.988	1	-1
420.329	1	5
420.671	1	1
421.012	1	12
421.353	1	13
421.695	1	7
422.036	1	0
422.377	1	3
422.718	1	7
423.060	1	1
423.401	1	7
423.742	1	4
424.084	1	6
424.425	1	-5
424.766	1	1
425.107	1	-2
425.449	1	6
425.790	1	-2
426.131	1	-4
426.472	1	0
426.814	1	7
427.155	1	-5
427.496	1	9
427.837	1	-3
428.179	1	-8
428.520	1	-4
428.861	1	-1
429.202	1	10
429.544	1	-1
429.885	1	-4
430.226	1	-5
430.567	1	12
430.909	1	-4
431.250	1	-6
431.591	1	1
431.932	1	5
432.273	1	-2
432.615	1	-2
432.956	1	1
433.297	1	13
433.638	1	5
433.979	1	-5
434.320	1	-4
434.662	1	-3
435.003	1	2
435.344	1	8
435.685	1	3
436.026	1	4
436.368	1	2
436.709	1	-1
437.050	1	6
437.391	1	4
437.732	1	4
438.073	1	13
438.414	1	2
438.756	1	0
439.097	1	4
439.438	1	4
439.779	1	-3
440.120	1	-2
440.461	1	-9
440.802	1	8
441.143	1	9
441.485	1	-9
441.826	1	-1
442.167	1	-8
442.508	1	-3
442.849	1	7
443.190	1	-12
443.531	1	1
443.872	1	-5
444.213	1	-1
444.554	1	-3
444.895	1	7
445.237	1	-9
445.578	1	5
445.919	1	-1
446.260	1	9
446.601	1	2
446.942	1	6
447.283	1	-5
447.624	1	3
447.965	1	-15
448.306	1	5
448.647	1	11
448.988	1	-15
449.329	1	2
449.670	1	11
450.011	1	3
450.352	1	6
450.693	1	1
451.034	1	3
451.375	1	7
451.716	1	6
452.057	1	3
452.398	1	-3
452.739	1	3
453.080	1	9
453.421	1	-4
453.762	1	7
454.103	1	-1
454.444	1	8
454.785	1	-4
455.126	1	4
455.467	1	9
455.808	1	0
456.149	1	0
456.490	1	1
456.831	1	13
457.172	1	7
457.513	1	11
457.854	1	2
458.195	1	-6
458.536	1	1
458.877	1	-12
459.218	1	1
459.559	1	5
459.899	1	4
460.240	1	-3
460.581	1	5
460.922	1	-6
461.263	1	4
461.604	1	-6
461.945	1	3
462.286	1	5
462.627	1	-2
462.968	1	-2
463.309	1	-9
463.649	1	-1
463.990	1	1
464.331	1	9
464.672	1	-3
465.013	1	-9
465.354	1	9
465.695	1	6
466.036	1	5
466.376	1	1
466.717	1	-9
467.058	1	20
467.399	1	5
467.740	1	-3
468.081	1	5
468.422	1	10
468.762	1	-3
469.103	1	2
469.444	1	-4
469.785	1	0
470.126	1	6
470.467	1	-6
470.807	1	-9
471.148	1	-2
471.489	1	-16
471.830	1	13
472.171	1	-6
472.511	1	13
472.852	1	-8
473.193	1	-3
473.534	1	5
473.875	1	5
474.215	1	-5
474.556	1	-1
474.897	1	4
475.238	1	-7
475.578	1	-1
475.919	1	-4
476.260	1	4
476.601	1	-5
476.942	1	2
477.282	1	-7
477.623	1	2
477.964	1	7
478.305	1	7
478.645	1	-1
478.986	1	-7
479.327	1	-6
479.667	1	-1
480.008	1	0
480.349	1	1
480.690	1	1
481.030	1	-3
481.371	1	6
481.712	1	-7
482.053	1	0
482.393	1	-9
482.734	1	5
483.075	1	1
483.415	1	3
483.756	1	10
484.097	1	3
484.437	1	2
484.778	1	-4
485.119	1	0
485.459	1	3
485.800	1	-6
486.141	1	-14
486.481	1	-3
486.822	1	4
487.163	1	0
487.503	1	-15
487.844	1	-7
488.185	1	-7
488.525	1	-2
488.866	1	7
489.207	1	15
489.547	1	0
489.888	1	-6
490.228	1	-2
490.569	1	7
490.910	1	-11
491.250	1	1
491.591	1	-4
491.932	1	0
492.272	1	4
492.613	1	3
492.953	1	4
493.294	1	8
493.635	1	-3
493.975	1	-1
494.316	1	16
494.656	1	-5
494.997	1	-9
495.337	1	9
495.678	1	8
496.019	1	1
496.359	1	-2
496.700	1	4
497.040	1	-7
497.381	1	-16
497.721	1	0
498.062	1	-2
498.403	1	13
498.743	1	4
499.084	1	-14
499.424	1	18
499.765	1	2
500.105	1	8
500.446	1	8
500.786	1	4
501.127	1	8
501.467	1	8
501.808	1	2
502.148	1	3
502.489	1	12
502.829	1	4
503.170	1	8
503.510	1	-6
503.851	1	-10
504.191	1	5
504.532	1	-17
504.872	1	-2
505.213	1	-8
505.553	1	12
505.894	1	16
506.234	1	13
506.575	1	4
506.915	1	5
507.256	1	-3
507.596	1	2
507.936	1	-1
508.277	1	3
508.617	1	5
508.958	1	6
509.298	1	11
509.639	1	7
509.979	1	0
510.319	1	-4
510.660	1	2
511.000	1	9
511.341	1	-4
511.681	1	2
512.022	1	-1
512.362	1	-4
512.702	1	-6
513.043	1	-2
513.383	1	-6
513.724	1	8
514.064	1	3
514.404	1	-4
514.745	1	6
515.085	1	-2
515.425	1	3
515.766	1	1
516.106	1	-2
516.447	1	6
516.787	1	-1
517.127	1	2
517.468	1	4
517.808	1	2
518.148	1	-2
518.489	1	10
518.829	1	-3
519.169	1	9
519.510	1	-1
519.850	1	-6
520.190	1	2
520.531	1	0
520.871	1	-12
521.211	1	0
521.552	1	17
521.892	1	-7
522.232	1	-15
522.573	1	0
522.913	1	4
523.253	1	2
523.593	1	-23
523.934	1	12
524.274	1	-14
524.614	1	-3
524.955	1	0
525.295	1	-3
525.635	1	7
525.975	1	-15
526.316	1	3
526.656	1	23
526.996	1	13
527.337	1	12
527.677	1	4
528.017	1	-5
528.357	1	7
528.698	1	-8
529.038	1	14
529.378	1	-4
529.718	1	7
530.058	1	9
530.399	1	9
530.739	1	4
531.079	1	9
531.419	1	4
531.760	1	7
532.100	1	6
532.440	1	0
532.780	1	6
533.120	1	-1
533.461	1	19
533.801	1	-1
534.141	1	5
534.481	1	4
534.821	1	5
535.162	1	7
535.502	1	11
535.842	1	6
536.182	1	4
536.522	1	3
536.862	1	12
537.203	1	12
537.543	1	-2
537.883	1	10
538.223	1	8
538.563	1	3
538.903	1	-3
539.243	1	0
539.584	1	6
539.924	1	9
540.264	1	1
540.604	1	3
540.944	1	-8
541.284	1	-3
541.624	1	-1
541.964	1	9
542.305	1	-2
542.645	1	3
542.985	1	-10
543.325	1	0
543.665	1	11
544.005	1	2
544.345	1	-7
544.685	1	-3
545.025	1	-3
545.365	1	-1
545.705	1	11
546.045	1	8
546.386	1	0
546.726	1	6
547.066	1	-12
547.406	1	4
547.746	1	10
548.086	1	-1
548.426	1	-7
548.766	1	5
549.106	1	9
549.446	1	-10
549.786	1	-4
550.126	1	2
550.466	1	-2
550.806	1	6
551.146	1	-1
551.486	1	7
551.826	1	4
552.166	1	-3
552.506	1	-10
552.846	1	7
553.186	1	1
553.526	1	-3
553.866	1	6
554.206	1	-1
554.546	1	-2
554.886	1	4
555.226	1	-3
555.566	1	2
555.906	1	4
556.246	1	-3
556.586	1	8
556.926	1	3
557.266	1	9
557.606	1	-8
557.946	1	8
558.286	1	-4
558.626	1	3
558.966	1	4
559.306	1	-4
559.646	1	-1
559.986	1	3
560.325	1	-9
560.665	1	11
561.005	1	11
561.345	1	1
561.685	1	4
562.025	1	-4
562.365	1	3
562.705	1	4
563.045	1	11
563.385	1	-7
563.725	1	3
564.064	1	6
564.404	1	-4
564.744	1	-8
565.084	1	-9
565.424	1	-4
565.764	1	10
566.104	1	-4
566.444	1	9
566.783	1	0
567.123	1	12
567.463	1	3
567.803	1	1
568.143	1	-8
568.483	1	-3
568.823	1	10
569.162	1	-1
569.502	1	-1
569.842	1	5
570.182	1	-2
570.522	1	11
570.862	1	2
571.201	1	9
571.541	1	-5
571.881	1	11
572.221	1	-1
572.561	1	-6
572.900	1	5
573.240	1	0
573.580	1	1
573.920	1	-1
574.260	1	-7
574.599	1	-7
574.939	1	2
575.279	1	9
575.619	1	1
575.959	1	-6
576.298	1	-6
576.638	1	8
576.978	1	4
577.318	1	8
577.657	1	-12
577.997	1	1
578.337	1	5
578.677	1	-9
579.016	1	17
579.356	1	-5
579.696	1	10
580.036	1	-6
580.375	1	-3
580.715	1	8
581.055	1	-1
581.394	1	0
581.734	1	1
582.074	1	3
582.414	1	11
582.753	1	10
583.093	1	-12
583.433	1	-8
583.772	1	3
584.112	1	-4
584.452	1	-2
584.791	1	2
585.131	1	-4
585.471	1	-7
585.811	1	-3
586.150	1	9
586.490	1	-6
586.830	1	-5
587.169	1	3
587.509	1	-6
587.849	1	-2
588.188	1	0
588.528	1	1
588.867	1	3
589.207	1	-10
589.547	1	-2
589.886	1	-10
590.226	1	3
590.566	1	-1
590.905	1	10
591.245	1	2
591.585	1	-1
591.924	1	-6
592.264	1	-6
592.603	1	2
592.943	1	-3
593.283	1	2
593.622	1	-10
593.962	1	6
594.301	1	7
594.641	1	3
594.981	1	-6
595.320	1	6
595.660	1	-1
595.999	1	-1
596.339	1	-2
596.678	1	3
597.018	1	9
597.358	1	0
597.697	1	-9
598.037	1	3
598.376	1	-8
598.716	1	-7
599.055	1	8
599.395	1	9
599.734	1	-3
600.074	1	-1
600.413	1	0
600.753	1	5
601.092	1	-14
601.432	1	2
601.771	1	6
602.111	1	1
602.451	1	5
602.790	1	-2
603.130	1	4
603.469	1	-5
603.809	1	10
604.148	1	1
604.487	1	3
604.827	1	-5
605.166	1	-7
605.506	1	8
605.845	1	6
606.185	1	-1
606.524	1	-9
606.864	1	-7
607.203	1	10
607.543	1	-10
607.882	1	2
608.222	1	1
608.561	1	9
608.901	1	0
609.240	1	-6
609.579	1	-6
609.919	1	-3
610.258	1	11
610.598	1	-4
610.937	1	-1
611.277	1	5
611.616	1	-1
611.955	1	5
612.295	1	5
612.634	1	0
612.974	1	1
613.313	1	6
613.652	1	-5
613.992	1	6
614.331	1	0
614.671	1	4
615.010	1	-2
615.349	1	11
615.689	1	5
616.028	1	-1
616.368	1	1
616.707	1	-5
617.046	1	-1
617.386	1	0
617.725	1	2
618.064	1	0
618.404	1	17
618.743	1	-5
619.082	1	5
619.422	1	0
619.761	1	3
620.100	1	5
620.440	1	4
620.779	1	-4
621.118	1	1
621.458	1	14
621.797	1	2
622.136	1	-1
622.476	1	-2
622.815	1	0
623.154	1	-2
623.494	1	8
623.833	1	-2
624.172	1	6
624.511	1	5
624.851	1	0
625.190	1	5
625.529	1	3
625.869	1	4
626.208	1	-10
626.547	1	8
626.886	1	-6
627.226	1	0
627.565	1	14
627.904	1	4
628.243	1	-12
628.583	1	4
628.922	1	-8
629.261	1	-2
629.600	1	6
629.940	1	2
630.279	1	-4
630.618	1	6
630.957	1	-4
631.297	1	1
631.636	1	-2
631.975	1	3
632.314	1	16
632.653	1	-5
632.993	1	5
633.332	1	-2
633.671	1	4
634.010	1	-1
634.349	1	9
634.689	1	10
635.028	1	-7
635.367	1	-4
635.706	1	-9
636.045	1	8
636.384	1	7
636.724	1	-1
637.063	1	13
637.402	1	8
637.741	1	14
638.080	1	-3
638.419	1	13
638.759	1	-2
639.098	1	-1
639.437	1	-13
639.776	1	6
640.115	1	1
640.454	1	12
640.793	1	8
641.132	1	5
641.472	1	0
641.811	1	-2
642.150	1	-8
642.489	1	3
642.828	1	4
643.167	1	7
643.506	1	-1
643.845	1	0
644.184	1	-4
644.524	1	-7
644.863	1	-4
645.202	1	-4
645.541	1	-7
645.880	1	-8
646.219	1	5
646.558	1	-3
646.897	1	0
647.236	1	4
647.575	1	6
647.914	1	-7
648.253	1	6
648.592	1	-2
648.931	1	13
649.270	1	6
649.610	1	14
649.949	1	6
650.288	1	-9
650.627	1	-2
650.966	1	0
651.305	1	0
651.644	1	-1
651.983	1	8
652.322	1	8
652.661	1	-2
653.000	1	4
653.339	1	0
653.678	1	0
654.017	1	1
654.356	1	1
654.695	1	-2
655.034	1	2
655.373	1	0
655.712	1	-1
656.051	1	6
656.390	1	0
656.729	1	4
657.068	1	-4
657.406	1	12
657.745	1	4
658.084	1	8
658.423	1	2
658.762	1	1
659.101	1	-5
659.440	1	18
659.779	1	-3
660.118	1	6
660.457	1	-6
660.796	1	-6
661.135	1	4
661.474	1	-3
661.813	1	-1
662.152	1	-1
662.491	1	3
662.829	1	-1
663.168	1	-5
663.507	1	-1
663.846	1	3
664.185	1	-2
664.524	1	-13
664.863	1	0
665.202	1	-2
665.541	1	-8
665.879	1	-3
666.218	1	-4
666.557	1	4
666.896	1	3
667.235	1	-1
667.574	1	5
667.913	1	4
668.251	1	2
668.590	1	1
668.929	1	-1
669.268	1	12
669.607	1	-7
669.946	1	11
670.285	1	-1
670.623	1	6
670.962	1	-6
671.301	1	-5
671.640	1	-12
671.979	1	9
672.317	1	-10
672.656	1	-2
672.995	1	-1
673.334	1	8
673.673	1	16
674.011	1	1
674.350	1	-6
674.689	1	-2
675.028	1	-1
675.367	1	4
675.705	1	3
676.044	1	-1
676.383	1	4
676.722	1	2
677.060	1	2
677.399	1	-2
677.738	1	0
678.077	1	8
678.416	1	-3
678.754	1	-3
679.093	1	-1
679.432	1	-4
679.771	1	-5
680.109	1	11
680.448	1	-4
680.787	1	4
681.125	1	4
681.464	1	-3
681.803	1	-10
682.142	1	9
682.480	1	6
682.819	1	-4
683.158	1	1
683.496	1	2
683.835	1	2
684.174	1	-5
684.512	1	-6
684.851	1	3
685.190	1	-1
685.529	1	5
685.867	1	-1
686.206	1	3
686.545	1	7
686.883	1	1
687.222	1	-4
687.561	1	-4
687.899	1	-7
688.238	1	1
688.577	1	-11
688.746	1	-2