File: Analysis/GaN_68K_200ms/GaN_sample E_spot4_UVVIS_68 K_200um_200 ms 2x2mm1_737.txt
340.368	1	2
340.710	1	-11
341.052	1	1
341.394	1	-6
341.737	1	3
342.079	1	-8
342.421	1	-1
342.763	1	-2
343.105	1	8
343.447	1	1
343.789	1	-2
344.131	1	-10
344.473	1	-8
344.815	1	8
345.157	1	10
345.499	1	3
345.841	1	2
346.183	1	-1
346.526	1	5
346.868	1	-5
347.210	1	5
347.552	1	-1
347.894	1	-4
348.236	1	-3
348.578	1	3
348.920	1	2
349.262	1	-9
349.604	1	8
349.946	1	6
350.288	1	1
350.630	1	-6
350.972	1	-7
351.314	1	-2
351.656	1	3
351.998	1	-3
352.340	1	-5
352.682	1	-4
353.024	1	-11
353.366	1	1
353.708	1	0
354.050	1	1
354.392	1	6
354.734	1	-11
355.076	1	-5
355.418	1	-10
355.760	1	6
356.102	1	-3
356.444	1	1
356.785	1	13
357.127	1	2
357.469	1	0
357.811	1	15
358.153	1	3
358.495	1	8
358.837	1	-2
359.179	1	3
359.521	1	1
359.863	1	-6
360.205	1	-3
360.547	1	0
360.889	1	4
361.231	1	-2
361.572	1	-10
361.914	1	-8
362.256	1	10
362.598	1	1
362.940	1	10
363.282	1	-1
363.624	1	9
363.966	1	-1
364.308	1	-5
364.649	1	3
364.991	1	3
365.333	1	3
365.675	1	4
366.017	1	4
366.359	1	-4
366.701	1	-4
367.042	1	5
367.384	1	13
367.726	1	10
368.068	1	-10
368.410	1	-8
368.752	1	-10
369.093	1	2
369.435	1	-9
369.777	1	-7
370.119	1	3
370.461	1	-1
370.803	1	1
371.144	1	7
371.486	1	0
371.828	1	7
372.170	1	6
372.512	1	-6
372.853	1	5
373.195	1	-11
373.537	1	-7
373.879	1	7
374.220	1	4
374.562	1	3
374.904	1	5
375.246	1	13
375.588	1	-4
375.929	1	-4
376.271	1	-6
376.613	1	-8
376.955	1	-10
377.296	1	5
377.638	1	-3
377.980	1	4
378.321	1	6
378.663	1	-5
379.005	1	8
379.347	1	4
379.688	1	-8
380.030	1	-5
380.372	1	-7
380.714	1	4
381.055	1	1
381.397	1	-12
381.739	1	4
382.080	1	-14
382.422	1	0
382.764	1	3
383.105	1	-7
383.447	1	6
383.789	1	-4
384.130	1	-5
384.472	1	-6
384.814	1	9
385.156	1	9
385.497	1	8
385.839	1	8
386.180	1	2
386.522	1	0
386.864	1	-1
387.205	1	-8
387.547	1	-7
387.889	1	10
388.230	1	4
388.572	1	3
388.914	1	5
389.255	1	4
389.597	1	-1
389.939	1	9
390.280	1	10
390.622	1	1
390.963	1	7
391.305	1	0
391.647	1	4
391.988	1	-11
392.330	1	10
392.671	1	9
393.013	1	9
393.355	1	14
393.696	1	2
394.038	1	-6
394.379	1	1
394.721	1	1
395.062	1	-8
395.404	1	-5
395.746	1	-7
396.087	1	0
396.429	1	3
396.770	1	11
397.112	1	-6
397.453	1	-4
397.795	1	6
398.136	1	-4
398.478	1	-10
398.819	1	3
399.161	1	7
399.503	1	1
399.844	1	1
400.186	1	5
400.527	1	1
400.869	1	14
401.210	1	-5
401.552	1	19
401.893	1	6
402.235	1	1
402.576	1	9
402.918	1	-11
403.259	1	-3
403.601	1	-14
403.942	1	-2
404.284	1	-3
404.625	1	5
404.967	1	1
405.308	1	5
405.649	1	-5
405.991	1	9
406.332	1	-8
406.674	1	0
407.015	1	-2
407.357	1	-1
407.698	1	-12
408.040	1	-11
408.381	1	-1
408.722	1	-3
409.064	1	1
409.405	1	7
409.747	1	2
410.088	1	0
410.430	1	11
410.771	1	3
411.112	1	-1
411.454	1	14
411.795	1	6
412.137	1	8
412.478	1	8
412.819	1	-2
413.161	1	3
413.502	1	0
413.844	1	-6
414.185	1	1
414.526	1	0
414.868	1	-4
415.209	1	-3
415.550	1	1
415.892	1	2
416.233	1	1
416.575	1	-8
416.916	1	-6
417.257	1	5
417.599	1	-7
417.940	1	-5
418.281	1	0
418.623	1	9
418.964	1	11
419.305	1	-6
419.647	1	6
419.988	1	-3
420.329	1	10
420.671	1	6
421.012	1	3
421.353	1	3
421.695	1	10
422.036	1	0
422.377	1	4
422.718	1	-5
423.060	1	-10
423.401	1	3
423.742	1	5
424.084	1	4
424.425	1	3
424.766	1	9
425.107	1	3
425.449	1	0
425.790	1	-2
426.131	1	1
426.472	1	-2
426.814	1	8
427.155	1	-2
427.496	1	8
427.837	1	-7
428.179	1	-11
428.520	1	-3
428.861	1	-8
429.202	1	-1
429.544	1	3
429.885	1	-2
430.226	1	-1
430.567	1	6
430.909	1	-10
431.250	1	-4
431.591	1	-3
431.932	1	4
432.273	1	-6
432.615	1	-1
432.956	1	-5
433.297	1	8
433.638	1	-4
433.979	1	-2
434.320	1	-1
434.662	1	-15
435.003	1	3
435.344	1	3
435.685	1	4
436.026	1	6
436.368	1	0
436.709	1	-10
437.050	1	15
437.391	1	2
437.732	1	1
438.073	1	12
438.414	1	0
438.756	1	8
439.097	1	9
439.438	1	5
439.779	1	-7
440.120	1	4
440.461	1	-4
440.802	1	8
441.143	1	2
441.485	1	-9
441.826	1	-6
442.167	1	-3
442.508	1	10
442.849	1	-1
443.190	1	-8
443.531	1	-2
443.872	1	-2
444.213	1	-8
444.554	1	-8
444.895	1	-8
445.237	1	-4
445.578	1	11
445.919	1	0
446.260	1	3
446.601	1	-12
446.942	1	2
447.283	1	6
447.624	1	3
447.965	1	-2
448.306	1	-2
448.647	1	3
448.988	1	-10
449.329	1	8
449.670	1	10
450.011	1	-1
450.352	1	6
450.693	1	4
451.034	1	-8
451.375	1	14
451.716	1	13
452.057	1	8
452.398	1	6
452.739	1	2
453.080	1	11
453.421	1	3
453.762	1	5
454.103	1	5
454.444	1	15
454.785	1	-8
455.126	1	-3
455.467	1	3
455.808	1	2
456.149	1	-8
456.490	1	7
456.831	1	10
457.172	1	-5
457.513	1	6
457.854	1	6
458.195	1	-7
458.536	1	-1
458.877	1	-2
459.218	1	11
459.559	1	6
459.899	1	1
460.240	1	-4
460.581	1	10
460.922	1	-3
461.263	1	6
461.604	1	2
461.945	1	7
462.286	1	2
462.627	1	-5
462.968	1	2
463.309	1	0
463.649	1	-1
463.990	1	-5
464.331	1	3
464.672	1	-4
465.013	1	-7
465.354	1	0
465.695	1	5
466.036	1	-1
466.376	1	-2
466.717	1	-6
467.058	1	6
467.399	1	-5
467.740	1	-9
468.081	1	-8
468.422	1	8
468.762	1	0
469.103	1	-4
469.444	1	-1
469.785	1	7
470.126	1	7
470.467	1	-5
470.807	1	-6
471.148	1	-8
471.489	1	0
471.830	1	16
472.171	1	-1
472.511	1	0
472.852	1	-4
473.193	1	-7
473.534	1	1
473.875	1	5
474.215	1	-2
474.556	1	-4
474.897	1	3
475.238	1	0
475.578	1	-1
475.919	1	7
476.260	1	3
476.601	1	-7
476.942	1	-11
477.282	1	-12
477.623	1	6
477.964	1	11
478.305	1	0
478.645	1	-3
478.986	1	0
479.327	1	-4
479.667	1	7
480.008	1	6
480.349	1	-1
480.690	1	0
481.030	1	-9
481.371	1	7
481.712	1	-2
482.053	1	10
482.393	1	-2
482.734	1	-3
483.075	1	8
483.415	1	2
483.756	1	14
484.097	1	-7
484.437	1	-14
484.778	1	4
485.119	1	1
485.459	1	-5
485.800	1	-4
486.141	1	-9
486.481	1	3
486.822	1	9
487.163	1	-8
487.503	1	-13
487.844	1	8
488.185	1	-7
488.525	1	4
488.866	1	-1
489.207	1	4
489.547	1	-1
489.888	1	1
490.228	1	-10
490.569	1	4
490.910	1	-2
491.250	1	0
491.591	1	-3
491.932	1	-6
492.272	1	12
492.613	1	-6
492.953	1	13
493.294	1	9
493.635	1	-6
493.975	1	3
494.316	1	11
494.656	1	-1
494.997	1	-2
495.337	1	7
495.678	1	7
496.019	1	-7
496.359	1	-5
496.700	1	-1
497.040	1	-6
497.381	1	-15
497.721	1	-4
498.062	1	-1
498.403	1	5
498.743	1	2
499.084	1	-8
499.424	1	9
499.765	1	-1
500.105	1	14
500.446	1	2
500.786	1	-1
501.127	1	4
501.467	1	-3
501.808	1	-7
502.148	1	3
502.489	1	2
502.829	1	-2
503.170	1	3
503.510	1	1
503.851	1	-15
504.191	1	4
504.532	1	-2
504.872	1	-3
505.213	1	3
505.553	1	13
505.894	1	-1
506.234	1	5
506.575	1	-6
506.915	1	-5
507.256	1	-1
507.596	1	2
507.936	1	6
508.277	1	-7
508.617	1	17
508.958	1	4
509.298	1	9
509.639	1	3
509.979	1	-11
510.319	1	-2
510.660	1	8
511.000	1	4
511.341	1	-8
511.681	1	-2
512.022	1	-9
512.362	1	-1
512.702	1	-11
513.043	1	-3
513.383	1	-2
513.724	1	6
514.064	1	0
514.404	1	-7
514.745	1	2
515.085	1	-6
515.425	1	-10
515.766	1	-6
516.106	1	0
516.447	1	2
516.787	1	-10
517.127	1	-4
517.468	1	-3
517.808	1	-10
518.148	1	2
518.489	1	8
518.829	1	-3
519.169	1	6
519.510	1	-6
519.850	1	-4
520.190	1	4
520.531	1	-2
520.871	1	-5
521.211	1	13
521.552	1	8
521.892	1	-12
522.232	1	-1
522.573	1	3
522.913	1	4
523.253	1	-1
523.593	1	-6
523.934	1	10
524.274	1	-4
524.614	1	-5
524.955	1	-5
525.295	1	-5
525.635	1	10
525.975	1	-8
526.316	1	-2
526.656	1	17
526.996	1	11
527.337	1	5
527.677	1	14
528.017	1	-15
528.357	1	9
528.698	1	-6
529.038	1	9
529.378	1	6
529.718	1	2
530.058	1	-9
530.399	1	4
530.739	1	-5
531.079	1	5
531.419	1	8
531.760	1	5
532.100	1	-5
532.440	1	-9
532.780	1	0
533.120	1	-3
533.461	1	5
533.801	1	-11
534.141	1	-3
534.481	1	10
534.821	1	0
535.162	1	-1
535.502	1	4
535.842	1	-4
536.182	1	5
536.522	1	4
536.862	1	13
537.203	1	3
537.543	1	1
537.883	1	-1
538.223	1	1
538.563	1	4
538.903	1	-3
539.243	1	2
539.584	1	0
539.924	1	9
540.264	1	9
540.604	1	-4
540.944	1	-5
541.284	1	1
541.624	1	-1
541.964	1	5
542.305	1	-8
542.645	1	2
542.985	1	0
543.325	1	9
543.665	1	5
544.005	1	-2
544.345	1	-2
544.685	1	10
545.025	1	-7
545.365	1	-4
545.705	1	8
546.045	1	5
546.386	1	3
546.726	1	-5
547.066	1	-17
547.406	1	11
547.746	1	5
548.086	1	3
548.426	1	-4
548.766	1	6
549.106	1	1
549.446	1	1
549.786	1	-4
550.126	1	-2
550.466	1	-4
550.806	1	8
551.146	1	1
551.486	1	0
551.826	1	-2
552.166	1	4
552.506	1	-5
552.846	1	7
553.186	1	1
553.526	1	4
553.866	1	-4
554.206	1	-4
554.546	1	-1
554.886	1	-2
555.226	1	-7
555.566	1	6
555.906	1	8
556.246	1	1
556.586	1	-2
556.926	1	7
557.266	1	5
557.606	1	-7
557.946	1	-4
558.286	1	-1
558.626	1	3
558.966	1	-4
559.306	1	2
559.646	1	2
559.986	1	-3
560.325	1	-16
560.665	1	2
561.005	1	-4
561.345	1	2
561.685	1	-5
562.025	1	-3
562.365	1	1
562.705	1	6
563.045	1	17
563.385	1	-1
563.725	1	-2
564.064	1	11
564.404	1	-5
564.744	1	11
565.084	1	-3
565.424	1	1
565.764	1	9
566.104	1	-2
566.444	1	6
566.783	1	-1
567.123	1	12
567.463	1	-3
567.803	1	-10
568.143	1	-9
568.483	1	-5
568.823	1	12
569.162	1	3
569.502	1	-3
569.842	1	-5
570.182	1	-2
570.522	1	5
570.862	1	-1
571.201	1	10
571.541	1	-6
571.881	1	4
572.221	1	6
572.561	1	-3
572.900	1	10
573.240	1	-10
573.580	1	1
573.920	1	-6
574.260	1	-6
574.599	1	-9
574.939	1	-6
575.279	1	-4
575.619	1	2
575.959	1	-2
576.298	1	-11
576.638	1	-1
576.978	1	2
577.318	1	6
577.657	1	-12
577.997	1	1
578.337	1	-4
578.677	1	3
579.016	1	13
579.356	1	-4
579.696	1	3
580.036	1	-1
580.375	1	4
580.715	1	6
581.055	1	4
581.394	1	-8
581.734	1	-4
582.074	1	-10
582.414	1	13
582.753	1	6
583.093	1	-5
583.433	1	-11
583.772	1	-4
584.112	1	3
584.452	1	-2
584.791	1	-6
585.131	1	-4
585.471	1	-6
585.811	1	-3
586.150	1	3
586.490	1	-12
586.830	1	-14
587.169	1	-11
587.509	1	-5
587.849	1	-4
588.188	1	-8
588.528	1	-1
588.867	1	10
589.207	1	-11
589.547	1	0
589.886	1	-10
590.226	1	6
590.566	1	0
590.905	1	5
591.245	1	2
591.585	1	-6
591.924	1	-10
592.264	1	-3
592.603	1	3
592.943	1	0
593.283	1	1
593.622	1	-3
593.962	1	14
594.301	1	4
594.641	1	-8
594.981	1	1
595.320	1	0
595.660	1	-8
595.999	1	8
596.339	1	7
596.678	1	-5
597.018	1	-4
597.358	1	5
597.697	1	-7
598.037	1	3
598.376	1	5
598.716	1	-7
599.055	1	0
599.395	1	14
599.734	1	-5
600.074	1	-1
600.413	1	0
600.753	1	4
601.092	1	-5
601.432	1	-6
601.771	1	3
602.111	1	-1
602.451	1	3
602.790	1	3
603.130	1	1
603.469	1	-7
603.809	1	11
604.148	1	-1
604.487	1	1
604.827	1	-8
605.166	1	1
605.506	1	-4
605.845	1	-5
606.185	1	-2
606.524	1	-4
606.864	1	-6
607.203	1	13
607.543	1	-14
607.882	1	-3
608.222	1	-6
608.561	1	-2
608.901	1	4
609.240	1	-2
609.579	1	10
609.919	1	3
610.258	1	6
610.598	1	-2
610.937	1	-8
611.277	1	6
611.616	1	-16
611.955	1	3
612.295	1	1
612.634	1	0
612.974	1	1
613.313	1	4
613.652	1	-6
613.992	1	6
614.331	1	0
614.671	1	1
615.010	1	-1
615.349	1	4
615.689	1	8
616.028	1	-5
616.368	1	-5
616.707	1	0
617.046	1	-7
617.386	1	3
617.725	1	7
618.064	1	-1
618.404	1	9
618.743	1	0
619.082	1	9
619.422	1	3
619.761	1	-10
620.100	1	-7
620.440	1	11
620.779	1	-13
621.118	1	-4
621.458	1	-3
621.797	1	2
622.136	1	4
622.476	1	2
622.815	1	2
623.154	1	5
623.494	1	0
623.833	1	0
624.172	1	9
624.511	1	-10
624.851	1	-6
625.190	1	-7
625.529	1	3
625.869	1	3
626.208	1	-10
626.547	1	1
626.886	1	-8
627.226	1	3
627.565	1	4
627.904	1	2
628.243	1	-1
628.583	1	6
628.922	1	0
629.261	1	0
629.600	1	8
629.940	1	4
630.279	1	-7
630.618	1	1
630.957	1	-2
631.297	1	-1
631.636	1	0
631.975	1	2
632.314	1	5
632.653	1	-12
632.993	1	-1
633.332	1	3
633.671	1	6
634.010	1	-4
634.349	1	5
634.689	1	6
635.028	1	4
635.367	1	-3
635.706	1	-1
636.045	1	0
636.384	1	-1
636.724	1	3
637.063	1	-3
637.402	1	1
637.741	1	-1
638.080	1	-2
638.419	1	9
638.759	1	0
639.098	1	1
639.437	1	-14
639.776	1	-4
640.115	1	5
640.454	1	17
640.793	1	6
641.132	1	7
641.472	1	-6
641.811	1	3
642.150	1	0
642.489	1	-4
642.828	1	4
643.167	1	1
643.506	1	-13
643.845	1	-6
644.184	1	8
644.524	1	-14
644.863	1	-6
645.202	1	2
645.541	1	-4
645.880	1	-6
646.219	1	-5
646.558	1	-4
646.897	1	-4
647.236	1	0
647.575	1	-2
647.914	1	-1
648.253	1	2
648.592	1	-1
648.931	1	9
649.270	1	2
649.610	1	12
649.949	1	3
650.288	1	2
650.627	1	2
650.966	1	-4
651.305	1	-5
651.644	1	0
651.983	1	-1
652.322	1	5
652.661	1	0
653.000	1	-6
653.339	1	-3
653.678	1	6
654.017	1	4
654.356	1	3
654.695	1	8
655.034	1	-6
655.373	1	4
655.712	1	-11
656.051	1	11
656.390	1	-8
656.729	1	5
657.068	1	-4
657.406	1	3
657.745	1	-4
658.084	1	4
658.423	1	-1
658.762	1	-8
659.101	1	0
659.440	1	7
659.779	1	-2
660.118	1	6
660.457	1	-3
660.796	1	-5
661.135	1	2
661.474	1	-7
661.813	1	-3
662.152	1	4
662.491	1	-4
662.829	1	-11
663.168	1	0
663.507	1	5
663.846	1	12
664.185	1	-10
664.524	1	-5
664.863	1	4
665.202	1	-8
665.541	1	-4
665.879	1	-5
666.218	1	-3
666.557	1	1
666.896	1	-1
667.235	1	1
667.574	1	-2
667.913	1	4
668.251	1	-2
668.590	1	-4
668.929	1	6
669.268	1	5
669.607	1	-8
669.946	1	1
670.285	1	2
670.623	1	3
670.962	1	-4
671.301	1	-5
671.640	1	-9
671.979	1	11
672.317	1	-9
672.656	1	7
672.995	1	3
673.334	1	-1
673.673	1	16
674.011	1	6
674.350	1	5
674.689	1	-6
675.028	1	-1
675.367	1	5
675.705	1	-8
676.044	1	-2
676.383	1	1
676.722	1	-8
677.060	1	-1
677.399	1	0
677.738	1	-8
678.077	1	4
678.416	1	-4
678.754	1	-2
679.093	1	8
679.432	1	-5
679.771	1	2
680.109	1	5
680.448	1	4
680.787	1	4
681.125	1	4
681.464	1	-7
681.803	1	-10
682.142	1	-1
682.480	1	2
682.819	1	1
683.158	1	-1
683.496	1	-2
683.835	1	-5
684.174	1	-1
684.512	1	2
684.851	1	-5
685.190	1	6
685.529	1	-1
685.867	1	1
686.206	1	4
686.545	1	4
686.883	1	-6
687.222	1	-2
687.561	1	-6
687.899	1	2
688.238	1	2
688.577	1	-7
688.746	1	1