File: Analysis/GaN_68K_200ms/GaN_sample E_spot4_UVVIS_68 K_200um_200 ms 2x2mm1_599.txt
340.368	1	3
340.710	1	-8
341.052	1	4
341.394	1	3
341.737	1	2
342.079	1	1
342.421	1	1
342.763	1	-7
343.105	1	19
343.447	1	-5
343.789	1	4
344.131	1	1
344.473	1	-3
344.815	1	-6
345.157	1	3
345.499	1	-1
345.841	1	3
346.183	1	-5
346.526	1	0
346.868	1	1
347.210	1	-4
347.552	1	6
347.894	1	10
348.236	1	-6
348.578	1	1
348.920	1	-1
349.262	1	-5
349.604	1	8
349.946	1	6
350.288	1	8
350.630	1	-1
350.972	1	-2
351.314	1	-6
351.656	1	5
351.998	1	-1
352.340	1	8
352.682	1	-6
353.024	1	0
353.366	1	12
353.708	1	-3
354.050	1	9
354.392	1	8
354.734	1	0
355.076	1	3
355.418	1	-4
355.760	1	1
356.102	1	8
356.444	1	2
356.785	1	14
357.127	1	-4
357.469	1	1
357.811	1	8
358.153	1	5
358.495	1	14
358.837	1	-6
359.179	1	2
359.521	1	-10
359.863	1	-5
360.205	1	-1
360.547	1	13
360.889	1	-1
361.231	1	-2
361.572	1	-10
361.914	1	2
362.256	1	8
362.598	1	-2
362.940	1	-6
363.282	1	3
363.624	1	-5
363.966	1	-3
364.308	1	1
364.649	1	2
364.991	1	3
365.333	1	6
365.675	1	1
366.017	1	1
366.359	1	1
366.701	1	-4
367.042	1	6
367.384	1	1
367.726	1	6
368.068	1	5
368.410	1	1
368.752	1	-13
369.093	1	-4
369.435	1	-6
369.777	1	7
370.119	1	1
370.461	1	4
370.803	1	-4
371.144	1	7
371.486	1	2
371.828	1	2
372.170	1	5
372.512	1	-1
372.853	1	6
373.195	1	-14
373.537	1	3
373.879	1	15
374.220	1	2
374.562	1	0
374.904	1	-4
375.246	1	2
375.588	1	0
375.929	1	10
376.271	1	-12
376.613	1	-2
376.955	1	-6
377.296	1	4
377.638	1	-5
377.980	1	7
378.321	1	10
378.663	1	-7
379.005	1	-1
379.347	1	4
379.688	1	-4
380.030	1	-2
380.372	1	1
380.714	1	0
381.055	1	-1
381.397	1	-3
381.739	1	9
382.080	1	-14
382.422	1	6
382.764	1	0
383.105	1	-3
383.447	1	3
383.789	1	6
384.130	1	-3
384.472	1	-14
384.814	1	9
385.156	1	5
385.497	1	8
385.839	1	13
386.180	1	4
386.522	1	9
386.864	1	4
387.205	1	-1
387.547	1	-1
387.889	1	15
388.230	1	5
388.572	1	10
388.914	1	9
389.255	1	3
389.597	1	-12
389.939	1	8
390.280	1	16
390.622	1	-2
390.963	1	8
391.305	1	2
391.647	1	-1
391.988	1	-2
392.330	1	2
392.671	1	16
393.013	1	7
393.355	1	8
393.696	1	3
394.038	1	-6
394.379	1	2
394.721	1	10
395.062	1	-13
395.404	1	6
395.746	1	3
396.087	1	1
396.429	1	5
396.770	1	3
397.112	1	-1
397.453	1	-13
397.795	1	10
398.136	1	7
398.478	1	-1
398.819	1	8
399.161	1	8
399.503	1	7
399.844	1	11
400.186	1	5
400.527	1	0
400.869	1	10
401.210	1	1
401.552	1	8
401.893	1	-2
402.235	1	8
402.576	1	10
402.918	1	0
403.259	1	-7
403.601	1	-5
403.942	1	8
404.284	1	5
404.625	1	13
404.967	1	9
405.308	1	-2
405.649	1	0
405.991	1	14
406.332	1	-7
406.674	1	-1
407.015	1	-9
407.357	1	1
407.698	1	-3
408.040	1	-2
408.381	1	2
408.722	1	-2
409.064	1	2
409.405	1	10
409.747	1	-9
410.088	1	11
410.430	1	14
410.771	1	0
411.112	1	7
411.454	1	3
411.795	1	0
412.137	1	6
412.478	1	6
412.819	1	-5
413.161	1	1
413.502	1	-5
413.844	1	3
414.185	1	0
414.526	1	8
414.868	1	11
415.209	1	-4
415.550	1	-3
415.892	1	7
416.233	1	-1
416.575	1	1
416.916	1	-4
417.257	1	-5
417.599	1	2
417.940	1	1
418.281	1	5
418.623	1	-9
418.964	1	1
419.305	1	-4
419.647	1	5
419.988	1	0
420.329	1	-9
420.671	1	9
421.012	1	9
421.353	1	5
421.695	1	2
422.036	1	6
422.377	1	2
422.718	1	5
423.060	1	-3
423.401	1	-12
423.742	1	1
424.084	1	7
424.425	1	-10
424.766	1	3
425.107	1	7
425.449	1	3
425.790	1	4
426.131	1	11
426.472	1	-3
426.814	1	16
427.155	1	-4
427.496	1	7
427.837	1	-1
428.179	1	-4
428.520	1	-2
428.861	1	0
429.202	1	4
429.544	1	-2
429.885	1	-1
430.226	1	-2
430.567	1	11
430.909	1	-13
431.250	1	-17
431.591	1	1
431.932	1	2
432.273	1	-1
432.615	1	-4
432.956	1	-4
433.297	1	5
433.638	1	-1
433.979	1	2
434.320	1	0
434.662	1	-4
435.003	1	-3
435.344	1	-1
435.685	1	4
436.026	1	5
436.368	1	-1
436.709	1	-11
437.050	1	-7
437.391	1	7
437.732	1	-3
438.073	1	-3
438.414	1	8
438.756	1	-2
439.097	1	4
439.438	1	8
439.779	1	-2
440.120	1	-1
440.461	1	-5
440.802	1	5
441.143	1	5
441.485	1	-6
441.826	1	1
442.167	1	1
442.508	1	0
442.849	1	2
443.190	1	-3
443.531	1	-6
443.872	1	1
444.213	1	-1
444.554	1	-5
444.895	1	-11
445.237	1	-5
445.578	1	10
445.919	1	-1
446.260	1	5
446.601	1	-3
446.942	1	3
447.283	1	-10
447.624	1	5
447.965	1	-9
448.306	1	5
448.647	1	5
448.988	1	-8
449.329	1	-3
449.670	1	1
450.011	1	-2
450.352	1	8
450.693	1	1
451.034	1	2
451.375	1	8
451.716	1	14
452.057	1	16
452.398	1	6
452.739	1	-4
453.080	1	7
453.421	1	1
453.762	1	14
454.103	1	1
454.444	1	7
454.785	1	2
455.126	1	5
455.467	1	2
455.808	1	-1
456.149	1	-6
456.490	1	-2
456.831	1	11
457.172	1	-1
457.513	1	6
457.854	1	4
458.195	1	11
458.536	1	-3
458.877	1	3
459.218	1	5
459.559	1	3
459.899	1	6
460.240	1	-4
460.581	1	0
460.922	1	1
461.263	1	-2
461.604	1	-1
461.945	1	6
462.286	1	5
462.627	1	0
462.968	1	-8
463.309	1	-5
463.649	1	13
463.990	1	7
464.331	1	-2
464.672	1	2
465.013	1	2
465.354	1	5
465.695	1	5
466.036	1	4
466.376	1	-5
466.717	1	-7
467.058	1	8
467.399	1	3
467.740	1	4
468.081	1	-2
468.422	1	11
468.762	1	-8
469.103	1	-2
469.444	1	-9
469.785	1	6
470.126	1	6
470.467	1	2
470.807	1	6
471.148	1	-3
471.489	1	-2
471.830	1	4
472.171	1	1
472.511	1	9
472.852	1	-4
473.193	1	-6
473.534	1	-1
473.875	1	3
474.215	1	-12
474.556	1	-12
474.897	1	2
475.238	1	-8
475.578	1	5
475.919	1	1
476.260	1	-1
476.601	1	0
476.942	1	0
477.282	1	-7
477.623	1	3
477.964	1	5
478.305	1	1
478.645	1	-1
478.986	1	-8
479.327	1	-5
479.667	1	4
480.008	1	8
480.349	1	5
480.690	1	-3
481.030	1	-5
481.371	1	-6
481.712	1	6
482.053	1	7
482.393	1	-6
482.734	1	10
483.075	1	2
483.415	1	0
483.756	1	-1
484.097	1	-2
484.437	1	-7
484.778	1	2
485.119	1	6
485.459	1	6
485.800	1	-5
486.141	1	-11
486.481	1	5
486.822	1	5
487.163	1	-6
487.503	1	-11
487.844	1	1
488.185	1	-4
488.525	1	12
488.866	1	6
489.207	1	8
489.547	1	-7
489.888	1	2
490.228	1	-13
490.569	1	11
490.910	1	-3
491.250	1	6
491.591	1	-6
491.932	1	4
492.272	1	13
492.613	1	-1
492.953	1	-3
493.294	1	3
493.635	1	3
493.975	1	-1
494.316	1	11
494.656	1	2
494.997	1	0
495.337	1	5
495.678	1	5
496.019	1	-7
496.359	1	9
496.700	1	1
497.040	1	-1
497.381	1	-19
497.721	1	-3
498.062	1	-1
498.403	1	1
498.743	1	8
499.084	1	-11
499.424	1	13
499.765	1	-4
500.105	1	10
500.446	1	6
500.786	1	3
501.127	1	4
501.467	1	9
501.808	1	-6
502.148	1	0
502.489	1	2
502.829	1	0
503.170	1	5
503.510	1	-3
503.851	1	-14
504.191	1	7
504.532	1	-6
504.872	1	-6
505.213	1	10
505.553	1	3
505.894	1	4
506.234	1	12
506.575	1	-4
506.915	1	3
507.256	1	-3
507.596	1	0
507.936	1	3
508.277	1	-9
508.617	1	0
508.958	1	11
509.298	1	11
509.639	1	12
509.979	1	-1
510.319	1	-3
510.660	1	3
511.000	1	6
511.341	1	-3
511.681	1	-7
512.022	1	0
512.362	1	8
512.702	1	-10
513.043	1	5
513.383	1	-7
513.724	1	10
514.064	1	1
514.404	1	-3
514.745	1	-4
515.085	1	6
515.425	1	-1
515.766	1	0
516.106	1	12
516.447	1	14
516.787	1	-8
517.127	1	-3
517.468	1	1
517.808	1	-5
518.148	1	1
518.489	1	-2
518.829	1	-8
519.169	1	13
519.510	1	0
519.850	1	-6
520.190	1	2
520.531	1	4
520.871	1	-1
521.211	1	3
521.552	1	7
521.892	1	-16
522.232	1	-3
522.573	1	0
522.913	1	5
523.253	1	-2
523.593	1	-10
523.934	1	7
524.274	1	-3
524.614	1	7
524.955	1	-2
525.295	1	-5
525.635	1	14
525.975	1	-10
526.316	1	-2
526.656	1	20
526.996	1	10
527.337	1	6
527.677	1	16
528.017	1	-9
528.357	1	1
528.698	1	-2
529.038	1	5
529.378	1	0
529.718	1	2
530.058	1	2
530.399	1	10
530.739	1	-5
531.079	1	12
531.419	1	11
531.760	1	7
532.100	1	-1
532.440	1	0
532.780	1	-2
533.120	1	3
533.461	1	1
533.801	1	1
534.141	1	9
534.481	1	6
534.821	1	14
535.162	1	-2
535.502	1	11
535.842	1	5
536.182	1	0
536.522	1	0
536.862	1	3
537.203	1	0
537.543	1	11
537.883	1	1
538.223	1	15
538.563	1	8
538.903	1	-3
539.243	1	-3
539.584	1	2
539.924	1	7
540.264	1	7
540.604	1	8
540.944	1	-7
541.284	1	-3
541.624	1	0
541.964	1	2
542.305	1	-1
542.645	1	-4
542.985	1	-3
543.325	1	-2
543.665	1	13
544.005	1	-3
544.345	1	-10
544.685	1	5
545.025	1	-10
545.365	1	1
545.705	1	14
546.045	1	8
546.386	1	2
546.726	1	-4
547.066	1	-2
547.406	1	8
547.746	1	4
548.086	1	-8
548.426	1	1
548.766	1	1
549.106	1	12
549.446	1	3
549.786	1	4
550.126	1	-2
550.466	1	-7
550.806	1	11
551.146	1	-2
551.486	1	6
551.826	1	1
552.166	1	1
552.506	1	-9
552.846	1	4
553.186	1	2
553.526	1	-6
553.866	1	5
554.206	1	3
554.546	1	-4
554.886	1	1
555.226	1	3
555.566	1	13
555.906	1	5
556.246	1	4
556.586	1	4
556.926	1	8
557.266	1	13
557.606	1	-5
557.946	1	1
558.286	1	-4
558.626	1	10
558.966	1	2
559.306	1	-1
559.646	1	-5
559.986	1	-5
560.325	1	-7
560.665	1	11
561.005	1	-5
561.345	1	1
561.685	1	-3
562.025	1	-7
562.365	1	4
562.705	1	7
563.045	1	10
563.385	1	7
563.725	1	2
564.064	1	11
564.404	1	-1
564.744	1	0
565.084	1	-13
565.424	1	-3
565.764	1	6
566.104	1	-4
566.444	1	7
566.783	1	-1
567.123	1	9
567.463	1	0
567.803	1	-13
568.143	1	-8
568.483	1	-4
568.823	1	11
569.162	1	1
569.502	1	7
569.842	1	-8
570.182	1	4
570.522	1	11
570.862	1	11
571.201	1	2
571.541	1	-1
571.881	1	5
572.221	1	2
572.561	1	-13
572.900	1	4
573.240	1	0
573.580	1	7
573.920	1	5
574.260	1	-13
574.599	1	-5
574.939	1	4
575.279	1	10
575.619	1	-1
575.959	1	-11
576.298	1	-11
576.638	1	-1
576.978	1	8
577.318	1	4
577.657	1	-15
577.997	1	-12
578.337	1	-17
578.677	1	1
579.016	1	4
579.356	1	-8
579.696	1	1
580.036	1	-1
580.375	1	12
580.715	1	10
581.055	1	4
581.394	1	-8
581.734	1	2
582.074	1	-6
582.414	1	5
582.753	1	2
583.093	1	-8
583.433	1	-7
583.772	1	-3
584.112	1	-6
584.452	1	-3
584.791	1	-6
585.131	1	1
585.471	1	-5
585.811	1	2
586.150	1	-1
586.490	1	-6
586.830	1	-1
587.169	1	-8
587.509	1	6
587.849	1	6
588.188	1	-5
588.528	1	8
588.867	1	-4
589.207	1	-2
589.547	1	-7
589.886	1	-16
590.226	1	7
590.566	1	0
590.905	1	8
591.245	1	7
591.585	1	3
591.924	1	0
592.264	1	2
592.603	1	2
592.943	1	-8
593.283	1	11
593.622	1	-10
593.962	1	3
594.301	1	9
594.641	1	5
594.981	1	4
595.320	1	14
595.660	1	-11
595.999	1	8
596.339	1	-1
596.678	1	-3
597.018	1	1
597.358	1	-4
597.697	1	-4
598.037	1	-4
598.376	1	12
598.716	1	-10
599.055	1	7
599.395	1	-2
599.734	1	3
600.074	1	-3
600.413	1	3
600.753	1	5
601.092	1	-11
601.432	1	-7
601.771	1	10
602.111	1	-1
602.451	1	-1
602.790	1	5
603.130	1	1
603.469	1	-2
603.809	1	12
604.148	1	1
604.487	1	1
604.827	1	-11
605.166	1	-3
605.506	1	5
605.845	1	1
606.185	1	-5
606.524	1	-2
606.864	1	0
607.203	1	10
607.543	1	-5
607.882	1	-13
608.222	1	3
608.561	1	4
608.901	1	4
609.240	1	8
609.579	1	0
609.919	1	-7
610.258	1	9
610.598	1	4
610.937	1	-8
611.277	1	3
611.616	1	-8
611.955	1	6
612.295	1	-5
612.634	1	-6
612.974	1	5
613.313	1	-5
613.652	1	-8
613.992	1	5
614.331	1	8
614.671	1	4
615.010	1	2
615.349	1	3
615.689	1	7
616.028	1	4
616.368	1	-8
616.707	1	-2
617.046	1	3
617.386	1	4
617.725	1	6
618.064	1	9
618.404	1	12
618.743	1	-1
619.082	1	1
619.422	1	2
619.761	1	1
620.100	1	-1
620.440	1	1
620.779	1	-8
621.118	1	0
621.458	1	4
621.797	1	-5
622.136	1	3
622.476	1	7
622.815	1	1
623.154	1	5
623.494	1	-5
623.833	1	1
624.172	1	11
624.511	1	-3
624.851	1	-10
625.190	1	4
625.529	1	9
625.869	1	-3
626.208	1	4
626.547	1	-1
626.886	1	-8
627.226	1	-3
627.565	1	14
627.904	1	2
628.243	1	0
628.583	1	0
628.922	1	-1
629.261	1	-2
629.600	1	12
629.940	1	11
630.279	1	0
630.618	1	-5
630.957	1	-4
631.297	1	-3
631.636	1	-6
631.975	1	2
632.314	1	8
632.653	1	-3
632.993	1	2
633.332	1	3
633.671	1	-3
634.010	1	-7
634.349	1	5
634.689	1	6
635.028	1	8
635.367	1	4
635.706	1	-10
636.045	1	-4
636.384	1	1
636.724	1	0
637.063	1	10
637.402	1	5
637.741	1	8
638.080	1	3
638.419	1	8
638.759	1	5
639.098	1	1
639.437	1	-5
639.776	1	0
640.115	1	-7
640.454	1	12
640.793	1	7
641.132	1	10
641.472	1	-7
641.811	1	-3
642.150	1	3
642.489	1	-5
642.828	1	2
643.167	1	7
643.506	1	-5
643.845	1	5
644.184	1	1
644.524	1	-4
644.863	1	-11
645.202	1	14
645.541	1	-5
645.880	1	10
646.219	1	8
646.558	1	-1
646.897	1	-4
647.236	1	8
647.575	1	5
647.914	1	-7
648.253	1	9
648.592	1	0
648.931	1	6
649.270	1	9
649.610	1	14
649.949	1	-5
650.288	1	-3
650.627	1	3
650.966	1	-5
651.305	1	-9
651.644	1	-3
651.983	1	5
652.322	1	10
652.661	1	5
653.000	1	-7
653.339	1	9
653.678	1	-10
654.017	1	-1
654.356	1	4
654.695	1	7
655.034	1	9
655.373	1	7
655.712	1	2
656.051	1	4
656.390	1	0
656.729	1	5
657.068	1	-3
657.406	1	7
657.745	1	-3
658.084	1	11
658.423	1	-9
658.762	1	-1
659.101	1	5
659.440	1	4
659.779	1	-11
660.118	1	3
660.457	1	-7
660.796	1	4
661.135	1	6
661.474	1	0
661.813	1	1
662.152	1	7
662.491	1	-4
662.829	1	-8
663.168	1	-1
663.507	1	3
663.846	1	5
664.185	1	3
664.524	1	-21
664.863	1	0
665.202	1	-9
665.541	1	-6
665.879	1	-1
666.218	1	-8
666.557	1	1
666.896	1	8
667.235	1	5
667.574	1	6
667.913	1	-5
668.251	1	5
668.590	1	-1
668.929	1	1
669.268	1	-3
669.607	1	-8
669.946	1	6
670.285	1	1
670.623	1	-6
670.962	1	-3
671.301	1	0
671.640	1	-15
671.979	1	19
672.317	1	-4
672.656	1	0
672.995	1	4
673.334	1	3
673.673	1	5
674.011	1	0
674.350	1	-8
674.689	1	-10
675.028	1	6
675.367	1	-1
675.705	1	-10
676.044	1	-2
676.383	1	5
676.722	1	-6
677.060	1	-2
677.399	1	-4
677.738	1	-6
678.077	1	7
678.416	1	1
678.754	1	-4
679.093	1	7
679.432	1	-9
679.771	1	-2
680.109	1	4
680.448	1	-4
680.787	1	-7
681.125	1	12
681.464	1	2
681.803	1	-12
682.142	1	5
682.480	1	-5
682.819	1	3
683.158	1	3
683.496	1	-9
683.835	1	2
684.174	1	1
684.512	1	-2
684.851	1	4
685.190	1	11
685.529	1	4
685.867	1	-12
686.206	1	2
686.545	1	-1
686.883	1	-9
687.222	1	-3
687.561	1	5
687.899	1	-5
688.238	1	-1
688.577	1	-2
688.746	1	3