File: Analysis/GaN_68K_200ms/GaN_sample E_spot4_UVVIS_68 K_200um_200 ms 2x2mm1_514.txt
340.368	1	-3
340.710	1	-6
341.052	1	2
341.394	1	-10
341.737	1	3
342.079	1	-6
342.421	1	2
342.763	1	-6
343.105	1	-5
343.447	1	7
343.789	1	-7
344.131	1	-10
344.473	1	3
344.815	1	1
345.157	1	10
345.499	1	10
345.841	1	6
346.183	1	5
346.526	1	-2
346.868	1	-5
347.210	1	7
347.552	1	-7
347.894	1	5
348.236	1	-1
348.578	1	7
348.920	1	13
349.262	1	-6
349.604	1	12
349.946	1	4
350.288	1	9
350.630	1	-5
350.972	1	-4
351.314	1	7
351.656	1	4
351.998	1	-3
352.340	1	-5
352.682	1	2
353.024	1	-8
353.366	1	0
353.708	1	4
354.050	1	0
354.392	1	7
354.734	1	1
355.076	1	3
355.418	1	-6
355.760	1	4
356.102	1	0
356.444	1	7
356.785	1	14
357.127	1	7
357.469	1	3
357.811	1	14
358.153	1	-7
358.495	1	6
358.837	1	11
359.179	1	10
359.521	1	5
359.863	1	-13
360.205	1	-7
360.547	1	0
360.889	1	2
361.231	1	-1
361.572	1	0
361.914	1	5
362.256	1	3
362.598	1	4
362.940	1	-8
363.282	1	4
363.624	1	-4
363.966	1	3
364.308	1	-1
364.649	1	-3
364.991	1	1
365.333	1	14
365.675	1	-9
366.017	1	5
366.359	1	3
366.701	1	-1
367.042	1	17
367.384	1	5
367.726	1	15
368.068	1	-1
368.410	1	-3
368.752	1	-7
369.093	1	-3
369.435	1	1
369.777	1	-6
370.119	1	3
370.461	1	9
370.803	1	-3
371.144	1	16
371.486	1	7
371.828	1	5
372.170	1	6
372.512	1	1
372.853	1	6
373.195	1	-5
373.537	1	-2
373.879	1	11
374.220	1	3
374.562	1	2
374.904	1	-2
375.246	1	5
375.588	1	4
375.929	1	8
376.271	1	0
376.613	1	-1
376.955	1	-6
377.296	1	1
377.638	1	0
377.980	1	5
378.321	1	4
378.663	1	-4
379.005	1	9
379.347	1	17
379.688	1	-6
380.030	1	-5
380.372	1	4
380.714	1	14
381.055	1	-2
381.397	1	-11
381.739	1	11
382.080	1	-14
382.422	1	12
382.764	1	2
383.105	1	5
383.447	1	11
383.789	1	0
384.130	1	-8
384.472	1	2
384.814	1	6
385.156	1	8
385.497	1	10
385.839	1	9
386.180	1	1
386.522	1	10
386.864	1	8
387.205	1	-2
387.547	1	-2
387.889	1	5
388.230	1	-3
388.572	1	1
388.914	1	10
389.255	1	5
389.597	1	-1
389.939	1	10
390.280	1	10
390.622	1	2
390.963	1	6
391.305	1	10
391.647	1	-2
391.988	1	-2
392.330	1	8
392.671	1	3
393.013	1	13
393.355	1	11
393.696	1	-7
394.038	1	-15
394.379	1	-3
394.721	1	8
395.062	1	-2
395.404	1	-1
395.746	1	0
396.087	1	5
396.429	1	5
396.770	1	11
397.112	1	4
397.453	1	-4
397.795	1	12
398.136	1	6
398.478	1	-2
398.819	1	4
399.161	1	9
399.503	1	-2
399.844	1	3
400.186	1	7
400.527	1	4
400.869	1	14
401.210	1	2
401.552	1	19
401.893	1	-4
402.235	1	5
402.576	1	18
402.918	1	1
403.259	1	2
403.601	1	-2
403.942	1	-4
404.284	1	2
404.625	1	0
404.967	1	15
405.308	1	-2
405.649	1	5
405.991	1	11
406.332	1	4
406.674	1	7
407.015	1	-5
407.357	1	6
407.698	1	-4
408.040	1	7
408.381	1	0
408.722	1	2
409.064	1	5
409.405	1	5
409.747	1	-6
410.088	1	5
410.430	1	10
410.771	1	5
411.112	1	-2
411.454	1	10
411.795	1	7
412.137	1	19
412.478	1	2
412.819	1	-7
413.161	1	-5
413.502	1	1
413.844	1	2
414.185	1	1
414.526	1	-1
414.868	1	6
415.209	1	-3
415.550	1	-3
415.892	1	9
416.233	1	4
416.575	1	4
416.916	1	-3
417.257	1	0
417.599	1	8
417.940	1	-8
418.281	1	1
418.623	1	3
418.964	1	3
419.305	1	-2
419.647	1	6
419.988	1	5
420.329	1	8
420.671	1	4
421.012	1	14
421.353	1	9
421.695	1	6
422.036	1	-1
422.377	1	5
422.718	1	2
423.060	1	-5
423.401	1	-4
423.742	1	3
424.084	1	6
424.425	1	4
424.766	1	5
425.107	1	9
425.449	1	8
425.790	1	-2
426.131	1	-1
426.472	1	-7
426.814	1	7
427.155	1	0
427.496	1	1
427.837	1	-9
428.179	1	-7
428.520	1	6
428.861	1	1
429.202	1	4
429.544	1	4
429.885	1	-9
430.226	1	-3
430.567	1	6
430.909	1	-9
431.250	1	-11
431.591	1	3
431.932	1	4
432.273	1	0
432.615	1	-1
432.956	1	-3
433.297	1	7
433.638	1	5
433.979	1	-3
434.320	1	2
434.662	1	-1
435.003	1	1
435.344	1	-2
435.685	1	6
436.026	1	6
436.368	1	2
436.709	1	-9
437.050	1	7
437.391	1	-2
437.732	1	3
438.073	1	9
438.414	1	-1
438.756	1	8
439.097	1	9
439.438	1	7
439.779	1	-5
440.120	1	-5
440.461	1	-7
440.802	1	7
441.143	1	10
441.485	1	0
441.826	1	-5
442.167	1	5
442.508	1	2
442.849	1	11
443.190	1	-4
443.531	1	-4
443.872	1	5
444.213	1	-1
444.554	1	-3
444.895	1	-1
445.237	1	1
445.578	1	11
445.919	1	-3
446.260	1	-3
446.601	1	4
446.942	1	13
447.283	1	-2
447.624	1	3
447.965	1	-8
448.306	1	1
448.647	1	16
448.988	1	-10
449.329	1	-1
449.670	1	1
450.011	1	3
450.352	1	4
450.693	1	3
451.034	1	7
451.375	1	4
451.716	1	7
452.057	1	12
452.398	1	-1
452.739	1	-2
453.080	1	11
453.421	1	0
453.762	1	7
454.103	1	-2
454.444	1	6
454.785	1	-4
455.126	1	11
455.467	1	2
455.808	1	3
456.149	1	-2
456.490	1	3
456.831	1	8
457.172	1	-5
457.513	1	6
457.854	1	2
458.195	1	-4
458.536	1	8
458.877	1	6
459.218	1	9
459.559	1	-1
459.899	1	15
460.240	1	11
460.581	1	1
460.922	1	3
461.263	1	13
461.604	1	2
461.945	1	5
462.286	1	2
462.627	1	-8
462.968	1	-1
463.309	1	10
463.649	1	1
463.990	1	3
464.331	1	10
464.672	1	-10
465.013	1	-15
465.354	1	2
465.695	1	3
466.036	1	5
466.376	1	-5
466.717	1	-1
467.058	1	13
467.399	1	2
467.740	1	-4
468.081	1	5
468.422	1	-2
468.762	1	-9
469.103	1	-7
469.444	1	-6
469.785	1	-1
470.126	1	5
470.467	1	-6
470.807	1	-5
471.148	1	0
471.489	1	-1
471.830	1	11
472.171	1	2
472.511	1	-4
472.852	1	-7
473.193	1	-8
473.534	1	-6
473.875	1	20
474.215	1	10
474.556	1	-6
474.897	1	7
475.238	1	0
475.578	1	8
475.919	1	6
476.260	1	2
476.601	1	1
476.942	1	-10
477.282	1	-11
477.623	1	-3
477.964	1	5
478.305	1	-4
478.645	1	-2
478.986	1	6
479.327	1	-12
479.667	1	-1
480.008	1	3
480.349	1	7
480.690	1	10
481.030	1	-9
481.371	1	1
481.712	1	7
482.053	1	-5
482.393	1	-11
482.734	1	3
483.075	1	4
483.415	1	9
483.756	1	8
484.097	1	-6
484.437	1	-5
484.778	1	2
485.119	1	3
485.459	1	10
485.800	1	2
486.141	1	-9
486.481	1	5
486.822	1	3
487.163	1	-5
487.503	1	-6
487.844	1	2
488.185	1	-4
488.525	1	0
488.866	1	7
489.207	1	9
489.547	1	-2
489.888	1	-2
490.228	1	-7
490.569	1	15
490.910	1	-3
491.250	1	2
491.591	1	2
491.932	1	2
492.272	1	15
492.613	1	5
492.953	1	10
493.294	1	10
493.635	1	-9
493.975	1	-2
494.316	1	6
494.656	1	8
494.997	1	-3
495.337	1	3
495.678	1	9
496.019	1	-2
496.359	1	-4
496.700	1	-2
497.040	1	0
497.381	1	-10
497.721	1	6
498.062	1	-3
498.403	1	4
498.743	1	3
499.084	1	-12
499.424	1	15
499.765	1	-1
500.105	1	5
500.446	1	4
500.786	1	10
501.127	1	8
501.467	1	2
501.808	1	-7
502.148	1	9
502.489	1	6
502.829	1	3
503.170	1	0
503.510	1	-3
503.851	1	-9
504.191	1	2
504.532	1	-7
504.872	1	-4
505.213	1	-1
505.553	1	10
505.894	1	5
506.234	1	18
506.575	1	5
506.915	1	3
507.256	1	-5
507.596	1	9
507.936	1	8
508.277	1	4
508.617	1	6
508.958	1	5
509.298	1	14
509.639	1	4
509.979	1	3
510.319	1	7
510.660	1	5
511.000	1	9
511.341	1	-2
511.681	1	4
512.022	1	-10
512.362	1	-3
512.702	1	-11
513.043	1	1
513.383	1	-10
513.724	1	10
514.064	1	1
514.404	1	5
514.745	1	0
515.085	1	-2
515.425	1	1
515.766	1	3
516.106	1	-3
516.447	1	10
516.787	1	-4
517.127	1	5
517.468	1	-1
517.808	1	3
518.148	1	-1
518.489	1	10
518.829	1	-6
519.169	1	9
519.510	1	4
519.850	1	-13
520.190	1	-2
520.531	1	0
520.871	1	-11
521.211	1	10
521.552	1	6
521.892	1	-5
522.232	1	0
522.573	1	2
522.913	1	3
523.253	1	2
523.593	1	-10
523.934	1	3
524.274	1	1
524.614	1	0
524.955	1	2
525.295	1	-9
525.635	1	7
525.975	1	5
526.316	1	12
526.656	1	15
526.996	1	18
527.337	1	-1
527.677	1	12
528.017	1	-9
528.357	1	9
528.698	1	2
529.038	1	4
529.378	1	1
529.718	1	10
530.058	1	3
530.399	1	4
530.739	1	-5
531.079	1	12
531.419	1	12
531.760	1	7
532.100	1	8
532.440	1	-7
532.780	1	6
533.120	1	-4
533.461	1	6
533.801	1	-2
534.141	1	9
534.481	1	-5
534.821	1	10
535.162	1	9
535.502	1	6
535.842	1	1
536.182	1	3
536.522	1	10
536.862	1	5
537.203	1	8
537.543	1	1
537.883	1	6
538.223	1	10
538.563	1	4
538.903	1	0
539.243	1	1
539.584	1	5
539.924	1	5
540.264	1	2
540.604	1	8
540.944	1	-3
541.284	1	-4
541.624	1	7
541.964	1	1
542.305	1	-1
542.645	1	0
542.985	1	-3
543.325	1	-3
543.665	1	16
544.005	1	-4
544.345	1	-6
544.685	1	2
545.025	1	2
545.365	1	2
545.705	1	-2
546.045	1	14
546.386	1	8
546.726	1	-8
547.066	1	-8
547.406	1	3
547.746	1	10
548.086	1	7
548.426	1	-8
548.766	1	7
549.106	1	8
549.446	1	2
549.786	1	-6
550.126	1	-8
550.466	1	3
550.806	1	10
551.146	1	0
551.486	1	6
551.826	1	3
552.166	1	-6
552.506	1	-6
552.846	1	6
553.186	1	6
553.526	1	-1
553.866	1	1
554.206	1	-3
554.546	1	-6
554.886	1	5
555.226	1	-7
555.566	1	9
555.906	1	6
556.246	1	4
556.586	1	5
556.926	1	7
557.266	1	11
557.606	1	-6
557.946	1	3
558.286	1	6
558.626	1	2
558.966	1	10
559.306	1	-5
559.646	1	-2
559.986	1	-3
560.325	1	-9
560.665	1	12
561.005	1	12
561.345	1	-2
561.685	1	-3
562.025	1	-3
562.365	1	10
562.705	1	9
563.045	1	12
563.385	1	2
563.725	1	2
564.064	1	2
564.404	1	1
564.744	1	10
565.084	1	4
565.424	1	3
565.764	1	-4
566.104	1	5
566.444	1	6
566.783	1	3
567.123	1	18
567.463	1	-4
567.803	1	1
568.143	1	-7
568.483	1	0
568.823	1	10
569.162	1	5
569.502	1	2
569.842	1	1
570.182	1	-6
570.522	1	6
570.862	1	5
571.201	1	-6
571.541	1	-3
571.881	1	1
572.221	1	0
572.561	1	-5
572.900	1	10
573.240	1	-2
573.580	1	10
573.920	1	2
574.260	1	-10
574.599	1	-4
574.939	1	2
575.279	1	7
575.619	1	-6
575.959	1	-4
576.298	1	-11
576.638	1	3
576.978	1	0
577.318	1	1
577.657	1	-9
577.997	1	-17
578.337	1	-2
578.677	1	2
579.016	1	13
579.356	1	-3
579.696	1	8
580.036	1	-2
580.375	1	1
580.715	1	8
581.055	1	9
581.394	1	-6
581.734	1	5
582.074	1	-5
582.414	1	10
582.753	1	4
583.093	1	-8
583.433	1	-6
583.772	1	10
584.112	1	3
584.452	1	5
584.791	1	1
585.131	1	-9
585.471	1	-1
585.811	1	5
586.150	1	1
586.490	1	-2
586.830	1	0
587.169	1	-4
587.509	1	5
587.849	1	-2
588.188	1	-4
588.528	1	-7
588.867	1	8
589.207	1	-7
589.547	1	0
589.886	1	-4
590.226	1	2
590.566	1	-1
590.905	1	8
591.245	1	0
591.585	1	-1
591.924	1	3
592.264	1	3
592.603	1	-5
592.943	1	-5
593.283	1	5
593.622	1	6
593.962	1	6
594.301	1	14
594.641	1	6
594.981	1	0
595.320	1	2
595.660	1	-9
595.999	1	2
596.339	1	6
596.678	1	-1
597.018	1	3
597.358	1	1
597.697	1	-1
598.037	1	2
598.376	1	8
598.716	1	-11
599.055	1	7
599.395	1	8
599.734	1	-2
600.074	1	-8
600.413	1	0
600.753	1	7
601.092	1	-4
601.432	1	-1
601.771	1	3
602.111	1	1
602.451	1	0
602.790	1	-2
603.130	1	7
603.469	1	-1
603.809	1	6
604.148	1	0
604.487	1	-2
604.827	1	-7
605.166	1	-3
605.506	1	-2
605.845	1	1
606.185	1	4
606.524	1	4
606.864	1	-2
607.203	1	17
607.543	1	-10
607.882	1	4
608.222	1	2
608.561	1	5
608.901	1	5
609.240	1	1
609.579	1	3
609.919	1	-6
610.258	1	7
610.598	1	-10
610.937	1	-2
611.277	1	5
611.616	1	-2
611.955	1	5
612.295	1	3
612.634	1	0
612.974	1	-1
613.313	1	3
613.652	1	-5
613.992	1	-1
614.331	1	0
614.671	1	4
615.010	1	-4
615.349	1	3
615.689	1	9
616.028	1	2
616.368	1	1
616.707	1	-6
617.046	1	-1
617.386	1	5
617.725	1	1
618.064	1	5
618.404	1	6
618.743	1	-1
619.082	1	1
619.422	1	-1
619.761	1	-1
620.100	1	4
620.440	1	3
620.779	1	-8
621.118	1	0
621.458	1	5
621.797	1	-2
622.136	1	9
622.476	1	4
622.815	1	-1
623.154	1	3
623.494	1	-1
623.833	1	-2
624.172	1	9
624.511	1	2
624.851	1	-10
625.190	1	10
625.529	1	5
625.869	1	-1
626.208	1	-15
626.547	1	0
626.886	1	-9
627.226	1	6
627.565	1	6
627.904	1	1
628.243	1	-7
628.583	1	7
628.922	1	2
629.261	1	7
629.600	1	1
629.940	1	-7
630.279	1	5
630.618	1	-6
630.957	1	-2
631.297	1	-4
631.636	1	-2
631.975	1	3
632.314	1	12
632.653	1	0
632.993	1	2
633.332	1	0
633.671	1	4
634.010	1	7
634.349	1	0
634.689	1	8
635.028	1	2
635.367	1	2
635.706	1	-4
636.045	1	6
636.384	1	6
636.724	1	-3
637.063	1	12
637.402	1	1
637.741	1	10
638.080	1	-1
638.419	1	13
638.759	1	5
639.098	1	1
639.437	1	-7
639.776	1	1
640.115	1	-6
640.454	1	12
640.793	1	1
641.132	1	-3
641.472	1	-6
641.811	1	-4
642.150	1	4
642.489	1	3
642.828	1	-3
643.167	1	9
643.506	1	-9
643.845	1	5
644.184	1	7
644.524	1	-7
644.863	1	5
645.202	1	-5
645.541	1	-12
645.880	1	7
646.219	1	-4
646.558	1	-5
646.897	1	-1
647.236	1	1
647.575	1	8
647.914	1	-5
648.253	1	-1
648.592	1	2
648.931	1	7
649.270	1	6
649.610	1	4
649.949	1	-4
650.288	1	-3
650.627	1	0
650.966	1	-2
651.305	1	-10
651.644	1	-7
651.983	1	11
652.322	1	4
652.661	1	11
653.000	1	-1
653.339	1	6
653.678	1	-4
654.017	1	-1
654.356	1	6
654.695	1	5
655.034	1	-6
655.373	1	-7
655.712	1	-7
656.051	1	8
656.390	1	2
656.729	1	2
657.068	1	3
657.406	1	1
657.745	1	-5
658.084	1	13
658.423	1	-4
658.762	1	-13
659.101	1	-9
659.440	1	8
659.779	1	-10
660.118	1	8
660.457	1	-8
660.796	1	-2
661.135	1	3
661.474	1	2
661.813	1	-5
662.152	1	-4
662.491	1	4
662.829	1	2
663.168	1	-10
663.507	1	3
663.846	1	2
664.185	1	-6
664.524	1	-7
664.863	1	2
665.202	1	-8
665.541	1	0
665.879	1	-5
666.218	1	-10
666.557	1	-1
666.896	1	-7
667.235	1	-1
667.574	1	7
667.913	1	3
668.251	1	-5
668.590	1	5
668.929	1	7
669.268	1	4
669.607	1	-11
669.946	1	4
670.285	1	6
670.623	1	1
670.962	1	-3
671.301	1	-4
671.640	1	-10
671.979	1	13
672.317	1	-7
672.656	1	-6
672.995	1	-1
673.334	1	13
673.673	1	19
674.011	1	13
674.350	1	-7
674.689	1	-2
675.028	1	8
675.367	1	6
675.705	1	-13
676.044	1	-5
676.383	1	-4
676.722	1	5
677.060	1	6
677.399	1	-4
677.738	1	-4
678.077	1	11
678.416	1	1
678.754	1	-10
679.093	1	5
679.432	1	-13
679.771	1	0
680.109	1	6
680.448	1	0
680.787	1	5
681.125	1	2
681.464	1	-4
681.803	1	-8
682.142	1	11
682.480	1	-4
682.819	1	5
683.158	1	10
683.496	1	-11
683.835	1	-4
684.174	1	-7
684.512	1	-4
684.851	1	-7
685.190	1	6
685.529	1	-5
685.867	1	5
686.206	1	2
686.545	1	2
686.883	1	4
687.222	1	-10
687.561	1	4
687.899	1	-4
688.238	1	1
688.577	1	3
688.746	1	5