File: Analysis/GaN_68K_200ms/GaN_sample E_spot4_UVVIS_68 K_200um_200 ms 2x2mm1_785.txt
340.368	1	2
340.710	1	-6
341.052	1	0
341.394	1	-2
341.737	1	6
342.079	1	-8
342.421	1	-6
342.763	1	0
343.105	1	10
343.447	1	-1
343.789	1	1
344.131	1	1
344.473	1	-5
344.815	1	0
345.157	1	8
345.499	1	7
345.841	1	0
346.183	1	-1
346.526	1	3
346.868	1	3
347.210	1	2
347.552	1	4
347.894	1	-6
348.236	1	1
348.578	1	6
348.920	1	7
349.262	1	1
349.604	1	8
349.946	1	-1
350.288	1	-2
350.630	1	1
350.972	1	5
351.314	1	2
351.656	1	2
351.998	1	-1
352.340	1	-1
352.682	1	1
353.024	1	-12
353.366	1	10
353.708	1	6
354.050	1	5
354.392	1	3
354.734	1	0
355.076	1	5
355.418	1	-4
355.760	1	1
356.102	1	-5
356.444	1	8
356.785	1	5
357.127	1	2
357.469	1	-1
357.811	1	17
358.153	1	6
358.495	1	14
358.837	1	2
359.179	1	-6
359.521	1	-2
359.863	1	-5
360.205	1	-1
360.547	1	-6
360.889	1	1
361.231	1	-2
361.572	1	-6
361.914	1	-4
362.256	1	-1
362.598	1	-2
362.940	1	3
363.282	1	6
363.624	1	5
363.966	1	5
364.308	1	4
364.649	1	1
364.991	1	9
365.333	1	3
365.675	1	0
366.017	1	-3
366.359	1	8
366.701	1	0
367.042	1	3
367.384	1	1
367.726	1	2
368.068	1	1
368.410	1	2
368.752	1	-4
369.093	1	-2
369.435	1	-2
369.777	1	0
370.119	1	5
370.461	1	-5
370.803	1	-6
371.144	1	0
371.486	1	6
371.828	1	-4
372.170	1	8
372.512	1	-8
372.853	1	3
373.195	1	-5
373.537	1	4
373.879	1	6
374.220	1	-7
374.562	1	-6
374.904	1	11
375.246	1	4
375.588	1	1
375.929	1	3
376.271	1	-8
376.613	1	2
376.955	1	-3
377.296	1	6
377.638	1	-5
377.980	1	7
378.321	1	-11
378.663	1	-8
379.005	1	11
379.347	1	2
379.688	1	-5
380.030	1	2
380.372	1	1
380.714	1	5
381.055	1	4
381.397	1	-12
381.739	1	4
382.080	1	-8
382.422	1	5
382.764	1	0
383.105	1	-5
383.447	1	5
383.789	1	5
384.130	1	-1
384.472	1	-11
384.814	1	1
385.156	1	6
385.497	1	7
385.839	1	-2
386.180	1	-2
386.522	1	11
386.864	1	-8
387.205	1	-7
387.547	1	1
387.889	1	9
388.230	1	3
388.572	1	-4
388.914	1	7
389.255	1	11
389.597	1	3
389.939	1	8
390.280	1	2
390.622	1	-10
390.963	1	6
391.305	1	2
391.647	1	1
391.988	1	1
392.330	1	2
392.671	1	7
393.013	1	7
393.355	1	11
393.696	1	-10
394.038	1	1
394.379	1	-1
394.721	1	5
395.062	1	-11
395.404	1	7
395.746	1	-6
396.087	1	3
396.429	1	8
396.770	1	1
397.112	1	-2
397.453	1	-6
397.795	1	-1
398.136	1	2
398.478	1	0
398.819	1	7
399.161	1	0
399.503	1	2
399.844	1	-6
400.186	1	5
400.527	1	3
400.869	1	4
401.210	1	-2
401.552	1	6
401.893	1	7
402.235	1	12
402.576	1	14
402.918	1	-6
403.259	1	-2
403.601	1	-8
403.942	1	5
404.284	1	-6
404.625	1	2
404.967	1	6
405.308	1	6
405.649	1	-1
405.991	1	5
406.332	1	-7
406.674	1	4
407.015	1	-5
407.357	1	-4
407.698	1	-10
408.040	1	-10
408.381	1	0
408.722	1	-3
409.064	1	-5
409.405	1	-2
409.747	1	-7
410.088	1	3
410.430	1	5
410.771	1	-2
411.112	1	0
411.454	1	4
411.795	1	0
412.137	1	-1
412.478	1	3
412.819	1	-7
413.161	1	3
413.502	1	-1
413.844	1	-1
414.185	1	-1
414.526	1	-2
414.868	1	9
415.209	1	-1
415.550	1	-5
415.892	1	0
416.233	1	2
416.575	1	5
416.916	1	-9
417.257	1	3
417.599	1	-5
417.940	1	1
418.281	1	-4
418.623	1	-1
418.964	1	3
419.305	1	0
419.647	1	4
419.988	1	-4
420.329	1	5
420.671	1	0
421.012	1	10
421.353	1	2
421.695	1	3
422.036	1	-6
422.377	1	2
422.718	1	0
423.060	1	-7
423.401	1	-1
423.742	1	-4
424.084	1	5
424.425	1	-4
424.766	1	6
425.107	1	4
425.449	1	3
425.790	1	-2
426.131	1	-5
426.472	1	0
426.814	1	2
427.155	1	-2
427.496	1	4
427.837	1	-3
428.179	1	-4
428.520	1	-7
428.861	1	-4
429.202	1	10
429.544	1	0
429.885	1	-3
430.226	1	-6
430.567	1	9
430.909	1	-4
431.250	1	-10
431.591	1	0
431.932	1	5
432.273	1	-10
432.615	1	-4
432.956	1	-3
433.297	1	9
433.638	1	-2
433.979	1	6
434.320	1	3
434.662	1	-6
435.003	1	9
435.344	1	-3
435.685	1	9
436.026	1	1
436.368	1	4
436.709	1	-8
437.050	1	6
437.391	1	3
437.732	1	6
438.073	1	-5
438.414	1	2
438.756	1	3
439.097	1	8
439.438	1	8
439.779	1	-9
440.120	1	2
440.461	1	-6
440.802	1	2
441.143	1	10
441.485	1	-2
441.826	1	-14
442.167	1	-7
442.508	1	1
442.849	1	-3
443.190	1	-13
443.531	1	-7
443.872	1	-12
444.213	1	-12
444.554	1	-8
444.895	1	6
445.237	1	-10
445.578	1	0
445.919	1	-7
446.260	1	2
446.601	1	-4
446.942	1	9
447.283	1	5
447.624	1	3
447.965	1	-8
448.306	1	0
448.647	1	9
448.988	1	-5
449.329	1	4
449.670	1	6
450.011	1	-3
450.352	1	7
450.693	1	2
451.034	1	6
451.375	1	9
451.716	1	10
452.057	1	3
452.398	1	0
452.739	1	-6
453.080	1	6
453.421	1	-3
453.762	1	7
454.103	1	2
454.444	1	4
454.785	1	-11
455.126	1	-4
455.467	1	-5
455.808	1	-3
456.149	1	-8
456.490	1	4
456.831	1	14
457.172	1	6
457.513	1	5
457.854	1	-16
458.195	1	-3
458.536	1	0
458.877	1	-3
459.218	1	-9
459.559	1	-7
459.899	1	11
460.240	1	5
460.581	1	3
460.922	1	6
461.263	1	12
461.604	1	-10
461.945	1	10
462.286	1	13
462.627	1	-2
462.968	1	-2
463.309	1	1
463.649	1	10
463.990	1	3
464.331	1	7
464.672	1	-10
465.013	1	-11
465.354	1	0
465.695	1	13
466.036	1	5
466.376	1	-6
466.717	1	-10
467.058	1	6
467.399	1	0
467.740	1	-7
468.081	1	4
468.422	1	5
468.762	1	-9
469.103	1	3
469.444	1	-5
469.785	1	6
470.126	1	-2
470.467	1	-7
470.807	1	1
471.148	1	-6
471.489	1	1
471.830	1	20
472.171	1	1
472.511	1	11
472.852	1	-3
473.193	1	-8
473.534	1	-13
473.875	1	-2
474.215	1	-4
474.556	1	-9
474.897	1	9
475.238	1	-6
475.578	1	1
475.919	1	-5
476.260	1	-3
476.601	1	4
476.942	1	1
477.282	1	-10
477.623	1	6
477.964	1	4
478.305	1	-1
478.645	1	-4
478.986	1	-2
479.327	1	-8
479.667	1	-5
480.008	1	11
480.349	1	3
480.690	1	-3
481.030	1	-1
481.371	1	-3
481.712	1	4
482.053	1	0
482.393	1	-4
482.734	1	2
483.075	1	6
483.415	1	8
483.756	1	13
484.097	1	-10
484.437	1	-17
484.778	1	4
485.119	1	2
485.459	1	3
485.800	1	-13
486.141	1	-4
486.481	1	-9
486.822	1	8
487.163	1	-9
487.503	1	-7
487.844	1	2
488.185	1	-15
488.525	1	4
488.866	1	6
489.207	1	5
489.547	1	-11
489.888	1	-4
490.228	1	0
490.569	1	1
490.910	1	3
491.250	1	-12
491.591	1	1
491.932	1	-3
492.272	1	9
492.613	1	8
492.953	1	-2
493.294	1	2
493.635	1	-2
493.975	1	2
494.316	1	4
494.656	1	0
494.997	1	-4
495.337	1	-1
495.678	1	4
496.019	1	2
496.359	1	3
496.700	1	1
497.040	1	1
497.381	1	-25
497.721	1	3
498.062	1	1
498.403	1	-1
498.743	1	4
499.084	1	-3
499.424	1	2
499.765	1	-5
500.105	1	9
500.446	1	7
500.786	1	2
501.127	1	4
501.467	1	2
501.808	1	-10
502.148	1	0
502.489	1	7
502.829	1	-3
503.170	1	2
503.510	1	0
503.851	1	-11
504.191	1	6
504.532	1	-14
504.872	1	-5
505.213	1	-2
505.553	1	6
505.894	1	2
506.234	1	11
506.575	1	1
506.915	1	1
507.256	1	-10
507.596	1	4
507.936	1	-1
508.277	1	-6
508.617	1	8
508.958	1	6
509.298	1	8
509.639	1	10
509.979	1	0
510.319	1	1
510.660	1	2
511.000	1	3
511.341	1	-5
511.681	1	-1
512.022	1	-7
512.362	1	2
512.702	1	-15
513.043	1	12
513.383	1	-9
513.724	1	6
514.064	1	0
514.404	1	2
514.745	1	1
515.085	1	-4
515.425	1	-5
515.766	1	1
516.106	1	-8
516.447	1	4
516.787	1	3
517.127	1	3
517.468	1	0
517.808	1	1
518.148	1	-4
518.489	1	-1
518.829	1	-6
519.169	1	6
519.510	1	4
519.850	1	-6
520.190	1	-5
520.531	1	7
520.871	1	-15
521.211	1	4
521.552	1	3
521.892	1	-15
522.232	1	-6
522.573	1	2
522.913	1	-3
523.253	1	1
523.593	1	-7
523.934	1	6
524.274	1	-12
524.614	1	-3
524.955	1	0
525.295	1	-9
525.635	1	7
525.975	1	-8
526.316	1	3
526.656	1	14
526.996	1	6
527.337	1	-3
527.677	1	15
528.017	1	-9
528.357	1	2
528.698	1	-3
529.038	1	8
529.378	1	-3
529.718	1	0
530.058	1	-4
530.399	1	-1
530.739	1	1
531.079	1	7
531.419	1	9
531.760	1	4
532.100	1	5
532.440	1	3
532.780	1	2
533.120	1	-13
533.461	1	11
533.801	1	8
534.141	1	7
534.481	1	0
534.821	1	0
535.162	1	8
535.502	1	3
535.842	1	8
536.182	1	2
536.522	1	8
536.862	1	1
537.203	1	11
537.543	1	-4
537.883	1	6
538.223	1	1
538.563	1	9
538.903	1	13
539.243	1	-5
539.584	1	2
539.924	1	-2
540.264	1	6
540.604	1	3
540.944	1	-2
541.284	1	-1
541.624	1	-3
541.964	1	-5
542.305	1	-10
542.645	1	-4
542.985	1	-6
543.325	1	0
543.665	1	1
544.005	1	4
544.345	1	-9
544.685	1	8
545.025	1	-6
545.365	1	-4
545.705	1	-3
546.045	1	-2
546.386	1	1
546.726	1	4
547.066	1	-6
547.406	1	3
547.746	1	4
548.086	1	6
548.426	1	2
548.766	1	1
549.106	1	0
549.446	1	-3
549.786	1	3
550.126	1	-8
550.466	1	-2
550.806	1	9
551.146	1	-1
551.486	1	8
551.826	1	2
552.166	1	-7
552.506	1	0
552.846	1	6
553.186	1	-4
553.526	1	-5
553.866	1	10
554.206	1	0
554.546	1	-7
554.886	1	3
555.226	1	-12
555.566	1	12
555.906	1	2
556.246	1	3
556.586	1	13
556.926	1	5
557.266	1	14
557.606	1	-14
557.946	1	-3
558.286	1	5
558.626	1	7
558.966	1	-1
559.306	1	-5
559.646	1	-9
559.986	1	3
560.325	1	-6
560.665	1	-2
561.005	1	-4
561.345	1	3
561.685	1	1
562.025	1	1
562.365	1	3
562.705	1	11
563.045	1	8
563.385	1	-6
563.725	1	-2
564.064	1	6
564.404	1	-2
564.744	1	6
565.084	1	-2
565.424	1	-2
565.764	1	8
566.104	1	-1
566.444	1	11
566.783	1	-2
567.123	1	5
567.463	1	-3
567.803	1	-2
568.143	1	-3
568.483	1	-6
568.823	1	7
569.162	1	3
569.502	1	-5
569.842	1	-8
570.182	1	-2
570.522	1	5
570.862	1	1
571.201	1	8
571.541	1	-7
571.881	1	1
572.221	1	3
572.561	1	-4
572.900	1	5
573.240	1	-4
573.580	1	0
573.920	1	-7
574.260	1	7
574.599	1	-8
574.939	1	-5
575.279	1	-1
575.619	1	-1
575.959	1	-12
576.298	1	-14
576.638	1	6
576.978	1	-4
577.318	1	10
577.657	1	-16
577.997	1	-7
578.337	1	-7
578.677	1	2
579.016	1	9
579.356	1	-4
579.696	1	-1
580.036	1	-1
580.375	1	-5
580.715	1	-4
581.055	1	-7
581.394	1	-5
581.734	1	-3
582.074	1	-2
582.414	1	-3
582.753	1	-2
583.093	1	-7
583.433	1	-14
583.772	1	0
584.112	1	1
584.452	1	-7
584.791	1	-7
585.131	1	-3
585.471	1	-5
585.811	1	-1
586.150	1	-4
586.490	1	-10
586.830	1	-9
587.169	1	3
587.509	1	7
587.849	1	6
588.188	1	-4
588.528	1	-2
588.867	1	9
589.207	1	-23
589.547	1	-3
589.886	1	-11
590.226	1	7
590.566	1	-3
590.905	1	2
591.245	1	-4
591.585	1	-1
591.924	1	2
592.264	1	0
592.603	1	-5
592.943	1	-5
593.283	1	8
593.622	1	-2
593.962	1	2
594.301	1	14
594.641	1	-6
594.981	1	-2
595.320	1	12
595.660	1	-5
595.999	1	5
596.339	1	3
596.678	1	-2
597.018	1	10
597.358	1	-5
597.697	1	-8
598.037	1	8
598.376	1	3
598.716	1	-7
599.055	1	1
599.395	1	2
599.734	1	-2
600.074	1	-8
600.413	1	-1
600.753	1	-4
601.092	1	-10
601.432	1	-6
601.771	1	10
602.111	1	4
602.451	1	2
602.790	1	0
603.130	1	6
603.469	1	2
603.809	1	5
604.148	1	-1
604.487	1	0
604.827	1	-6
605.166	1	-1
605.506	1	3
605.845	1	7
606.185	1	-6
606.524	1	7
606.864	1	4
607.203	1	11
607.543	1	-23
607.882	1	-11
608.222	1	6
608.561	1	8
608.901	1	5
609.240	1	-6
609.579	1	6
609.919	1	-11
610.258	1	2
610.598	1	-2
610.937	1	-5
611.277	1	3
611.616	1	-5
611.955	1	8
612.295	1	12
612.634	1	-3
612.974	1	5
613.313	1	3
613.652	1	-8
613.992	1	-1
614.331	1	-4
614.671	1	7
615.010	1	-8
615.349	1	2
615.689	1	4
616.028	1	-1
616.368	1	-5
616.707	1	-3
617.046	1	2
617.386	1	-1
617.725	1	9
618.064	1	1
618.404	1	-1
618.743	1	-3
619.082	1	0
619.422	1	7
619.761	1	-5
620.100	1	2
620.440	1	6
620.779	1	-16
621.118	1	-4
621.458	1	6
621.797	1	0
622.136	1	9
622.476	1	3
622.815	1	-1
623.154	1	3
623.494	1	4
623.833	1	-7
624.172	1	12
624.511	1	-8
624.851	1	-4
625.190	1	2
625.529	1	9
625.869	1	4
626.208	1	-4
626.547	1	-1
626.886	1	-3
627.226	1	-8
627.565	1	3
627.904	1	6
628.243	1	0
628.583	1	-1
628.922	1	-1
629.261	1	-1
629.600	1	8
629.940	1	8
630.279	1	-1
630.618	1	0
630.957	1	-8
631.297	1	-6
631.636	1	0
631.975	1	3
632.314	1	4
632.653	1	-8
632.993	1	2
633.332	1	12
633.671	1	-4
634.010	1	-5
634.349	1	6
634.689	1	11
635.028	1	-3
635.367	1	-5
635.706	1	-3
636.045	1	0
636.384	1	5
636.724	1	3
637.063	1	-5
637.402	1	1
637.741	1	9
638.080	1	-2
638.419	1	11
638.759	1	3
639.098	1	-10
639.437	1	-2
639.776	1	-2
640.115	1	1
640.454	1	8
640.793	1	7
641.132	1	11
641.472	1	-2
641.811	1	7
642.150	1	0
642.489	1	-10
642.828	1	2
643.167	1	5
643.506	1	-11
643.845	1	9
644.184	1	11
644.524	1	-11
644.863	1	-5
645.202	1	3
645.541	1	-5
645.880	1	0
646.219	1	0
646.558	1	1
646.897	1	-2
647.236	1	2
647.575	1	3
647.914	1	4
648.253	1	-8
648.592	1	-3
648.931	1	3
649.270	1	6
649.610	1	10
649.949	1	-3
650.288	1	-3
650.627	1	-6
650.966	1	-7
651.305	1	-5
651.644	1	2
651.983	1	3
652.322	1	-3
652.661	1	0
653.000	1	4
653.339	1	6
653.678	1	1
654.017	1	-6
654.356	1	3
654.695	1	3
655.034	1	0
655.373	1	2
655.712	1	-7
656.051	1	2
656.390	1	5
656.729	1	6
657.068	1	0
657.406	1	5
657.745	1	-10
658.084	1	4
658.423	1	-8
658.762	1	-11
659.101	1	-5
659.440	1	-1
659.779	1	3
660.118	1	5
660.457	1	-4
660.796	1	0
661.135	1	3
661.474	1	7
661.813	1	-3
662.152	1	-2
662.491	1	-9
662.829	1	-12
663.168	1	-5
663.507	1	0
663.846	1	-1
664.185	1	0
664.524	1	-20
664.863	1	-1
665.202	1	-8
665.541	1	-3
665.879	1	-1
666.218	1	-10
666.557	1	-5
666.896	1	2
667.235	1	-2
667.574	1	2
667.913	1	3
668.251	1	-4
668.590	1	4
668.929	1	4
669.268	1	3
669.607	1	-10
669.946	1	3
670.285	1	-3
670.623	1	4
670.962	1	-8
671.301	1	-1
671.640	1	-8
671.979	1	3
672.317	1	-9
672.656	1	5
672.995	1	1
673.334	1	1
673.673	1	15
674.011	1	4
674.350	1	-9
674.689	1	4
675.028	1	2
675.367	1	-8
675.705	1	-3
676.044	1	-6
676.383	1	-3
676.722	1	-3
677.060	1	-3
677.399	1	-2
677.738	1	-4
678.077	1	-1
678.416	1	-3
678.754	1	-11
679.093	1	6
679.432	1	-2
679.771	1	-8
680.109	1	-2
680.448	1	-5
680.787	1	5
681.125	1	0
681.464	1	-10
681.803	1	-10
682.142	1	4
682.480	1	2
682.819	1	7
683.158	1	-2
683.496	1	-3
683.835	1	0
684.174	1	-2
684.512	1	-5
684.851	1	-8
685.190	1	5
685.529	1	4
685.867	1	1
686.206	1	-3
686.545	1	9
686.883	1	-10
687.222	1	-7
687.561	1	0
687.899	1	0
688.238	1	-4
688.577	1	-7
688.746	1	4