File: Analysis/GaN_68K_200ms/GaN_sample E_spot4_UVVIS_68 K_200um_200 ms 2x2mm1_471.txt
340.368	1	1
340.710	1	-13
341.052	1	8
341.394	1	-6
341.737	1	15
342.079	1	-3
342.421	1	3
342.763	1	13
343.105	1	11
343.447	1	-1
343.789	1	2
344.131	1	-14
344.473	1	-5
344.815	1	12
345.157	1	6
345.499	1	8
345.841	1	6
346.183	1	-1
346.526	1	7
346.868	1	8
347.210	1	3
347.552	1	1
347.894	1	6
348.236	1	0
348.578	1	4
348.920	1	7
349.262	1	1
349.604	1	14
349.946	1	0
350.288	1	5
350.630	1	-12
350.972	1	6
351.314	1	6
351.656	1	9
351.998	1	-3
352.340	1	-5
352.682	1	-3
353.024	1	-4
353.366	1	4
353.708	1	-4
354.050	1	3
354.392	1	2
354.734	1	-1
355.076	1	1
355.418	1	-4
355.760	1	12
356.102	1	-6
356.444	1	9
356.785	1	14
357.127	1	3
357.469	1	-4
357.811	1	8
358.153	1	3
358.495	1	19
358.837	1	6
359.179	1	-6
359.521	1	4
359.863	1	0
360.205	1	2
360.547	1	5
360.889	1	-3
361.231	1	6
361.572	1	1
361.914	1	3
362.256	1	9
362.598	1	5
362.940	1	-2
363.282	1	3
363.624	1	-2
363.966	1	4
364.308	1	-3
364.649	1	-3
364.991	1	8
365.333	1	14
365.675	1	0
366.017	1	0
366.359	1	2
366.701	1	-4
367.042	1	6
367.384	1	10
367.726	1	17
368.068	1	3
368.410	1	-4
368.752	1	0
369.093	1	4
369.435	1	0
369.777	1	1
370.119	1	13
370.461	1	1
370.803	1	-8
371.144	1	9
371.486	1	9
371.828	1	-1
372.170	1	12
372.512	1	-8
372.853	1	0
373.195	1	3
373.537	1	-1
373.879	1	7
374.220	1	1
374.562	1	-1
374.904	1	2
375.246	1	6
375.588	1	1
375.929	1	8
376.271	1	-2
376.613	1	-3
376.955	1	-7
377.296	1	5
377.638	1	-4
377.980	1	1
378.321	1	2
378.663	1	2
379.005	1	11
379.347	1	6
379.688	1	-3
380.030	1	-11
380.372	1	2
380.714	1	-3
381.055	1	-4
381.397	1	-7
381.739	1	10
382.080	1	-4
382.422	1	9
382.764	1	-6
383.105	1	2
383.447	1	13
383.789	1	-3
384.130	1	-6
384.472	1	0
384.814	1	11
385.156	1	15
385.497	1	12
385.839	1	8
386.180	1	0
386.522	1	13
386.864	1	-5
387.205	1	-4
387.547	1	7
387.889	1	14
388.230	1	-3
388.572	1	9
388.914	1	17
389.255	1	2
389.597	1	2
389.939	1	6
390.280	1	4
390.622	1	-1
390.963	1	6
391.305	1	10
391.647	1	6
391.988	1	0
392.330	1	16
392.671	1	11
393.013	1	7
393.355	1	18
393.696	1	4
394.038	1	3
394.379	1	4
394.721	1	9
395.062	1	4
395.404	1	12
395.746	1	5
396.087	1	6
396.429	1	16
396.770	1	12
397.112	1	-1
397.453	1	-9
397.795	1	4
398.136	1	12
398.478	1	2
398.819	1	9
399.161	1	10
399.503	1	8
399.844	1	3
400.186	1	18
400.527	1	5
400.869	1	14
401.210	1	0
401.552	1	10
401.893	1	8
402.235	1	2
402.576	1	14
402.918	1	3
403.259	1	1
403.601	1	5
403.942	1	0
404.284	1	3
404.625	1	13
404.967	1	13
405.308	1	1
405.649	1	-1
405.991	1	6
406.332	1	0
406.674	1	7
407.015	1	-6
407.357	1	5
407.698	1	-2
408.040	1	1
408.381	1	4
408.722	1	9
409.064	1	2
409.405	1	8
409.747	1	-3
410.088	1	8
410.430	1	6
410.771	1	8
411.112	1	1
411.454	1	16
411.795	1	7
412.137	1	3
412.478	1	1
412.819	1	1
413.161	1	-3
413.502	1	-9
413.844	1	6
414.185	1	10
414.526	1	5
414.868	1	4
415.209	1	-5
415.550	1	8
415.892	1	5
416.233	1	8
416.575	1	-2
416.916	1	-4
417.257	1	11
417.599	1	6
417.940	1	-2
418.281	1	5
418.623	1	-2
418.964	1	-2
419.305	1	0
419.647	1	9
419.988	1	-1
420.329	1	0
420.671	1	0
421.012	1	11
421.353	1	0
421.695	1	7
422.036	1	-4
422.377	1	12
422.718	1	-3
423.060	1	10
423.401	1	6
423.742	1	6
424.084	1	8
424.425	1	-2
424.766	1	3
425.107	1	-2
425.449	1	6
425.790	1	-3
426.131	1	11
426.472	1	-6
426.814	1	6
427.155	1	0
427.496	1	8
427.837	1	-2
428.179	1	-3
428.520	1	-2
428.861	1	2
429.202	1	12
429.544	1	-1
429.885	1	-3
430.226	1	2
430.567	1	2
430.909	1	-3
431.250	1	-9
431.591	1	8
431.932	1	8
432.273	1	-13
432.615	1	4
432.956	1	-2
433.297	1	10
433.638	1	1
433.979	1	-2
434.320	1	-1
434.662	1	-2
435.003	1	3
435.344	1	-1
435.685	1	9
436.026	1	0
436.368	1	-7
436.709	1	-9
437.050	1	6
437.391	1	-1
437.732	1	4
438.073	1	10
438.414	1	-1
438.756	1	-2
439.097	1	8
439.438	1	17
439.779	1	2
440.120	1	-5
440.461	1	-8
440.802	1	7
441.143	1	7
441.485	1	-9
441.826	1	-3
442.167	1	-2
442.508	1	4
442.849	1	5
443.190	1	-6
443.531	1	3
443.872	1	-1
444.213	1	-2
444.554	1	3
444.895	1	4
445.237	1	-4
445.578	1	5
445.919	1	7
446.260	1	1
446.601	1	-1
446.942	1	-1
447.283	1	2
447.624	1	4
447.965	1	-10
448.306	1	3
448.647	1	4
448.988	1	-10
449.329	1	4
449.670	1	4
450.011	1	1
450.352	1	4
450.693	1	4
451.034	1	-3
451.375	1	13
451.716	1	-1
452.057	1	5
452.398	1	0
452.739	1	2
453.080	1	20
453.421	1	1
453.762	1	1
454.103	1	3
454.444	1	13
454.785	1	2
455.126	1	2
455.467	1	8
455.808	1	5
456.149	1	-7
456.490	1	7
456.831	1	10
457.172	1	7
457.513	1	8
457.854	1	3
458.195	1	3
458.536	1	5
458.877	1	-3
459.218	1	-1
459.559	1	-6
459.899	1	13
460.240	1	3
460.581	1	0
460.922	1	8
461.263	1	8
461.604	1	-6
461.945	1	8
462.286	1	10
462.627	1	4
462.968	1	2
463.309	1	1
463.649	1	1
463.990	1	4
464.331	1	2
464.672	1	4
465.013	1	-8
465.354	1	7
465.695	1	13
466.036	1	3
466.376	1	2
466.717	1	-5
467.058	1	7
467.399	1	6
467.740	1	2
468.081	1	4
468.422	1	3
468.762	1	0
469.103	1	1
469.444	1	-7
469.785	1	2
470.126	1	10
470.467	1	-2
470.807	1	2
471.148	1	5
471.489	1	6
471.830	1	16
472.171	1	4
472.511	1	12
472.852	1	8
473.193	1	-9
473.534	1	-11
473.875	1	6
474.215	1	-7
474.556	1	-6
474.897	1	0
475.238	1	-2
475.578	1	4
475.919	1	1
476.260	1	-4
476.601	1	-5
476.942	1	-4
477.282	1	-2
477.623	1	12
477.964	1	18
478.305	1	7
478.645	1	-6
478.986	1	2
479.327	1	-3
479.667	1	4
480.008	1	4
480.349	1	3
480.690	1	-1
481.030	1	-8
481.371	1	8
481.712	1	7
482.053	1	11
482.393	1	-6
482.734	1	8
483.075	1	5
483.415	1	11
483.756	1	9
484.097	1	1
484.437	1	-10
484.778	1	6
485.119	1	8
485.459	1	-2
485.800	1	-6
486.141	1	-10
486.481	1	3
486.822	1	14
487.163	1	-11
487.503	1	-11
487.844	1	2
488.185	1	-7
488.525	1	-3
488.866	1	5
489.207	1	12
489.547	1	-7
489.888	1	0
490.228	1	-8
490.569	1	3
490.910	1	9
491.250	1	-6
491.591	1	-6
491.932	1	9
492.272	1	4
492.613	1	-3
492.953	1	7
493.294	1	5
493.635	1	5
493.975	1	-9
494.316	1	12
494.656	1	5
494.997	1	-6
495.337	1	6
495.678	1	12
496.019	1	-6
496.359	1	4
496.700	1	12
497.040	1	1
497.381	1	-18
497.721	1	-3
498.062	1	-6
498.403	1	-5
498.743	1	6
499.084	1	-12
499.424	1	11
499.765	1	4
500.105	1	8
500.446	1	6
500.786	1	10
501.127	1	12
501.467	1	1
501.808	1	-8
502.148	1	2
502.489	1	10
502.829	1	8
503.170	1	5
503.510	1	-8
503.851	1	-7
504.191	1	3
504.532	1	-7
504.872	1	-2
505.213	1	-4
505.553	1	6
505.894	1	2
506.234	1	9
506.575	1	-2
506.915	1	7
507.256	1	-9
507.596	1	6
507.936	1	2
508.277	1	1
508.617	1	14
508.958	1	4
509.298	1	11
509.639	1	2
509.979	1	6
510.319	1	-3
510.660	1	4
511.000	1	20
511.341	1	-5
511.681	1	5
512.022	1	-5
512.362	1	0
512.702	1	-11
513.043	1	1
513.383	1	-6
513.724	1	9
514.064	1	9
514.404	1	-2
514.745	1	-3
515.085	1	9
515.425	1	1
515.766	1	7
516.106	1	-2
516.447	1	1
516.787	1	-4
517.127	1	8
517.468	1	-2
517.808	1	0
518.148	1	2
518.489	1	6
518.829	1	-5
519.169	1	12
519.510	1	1
519.850	1	-8
520.190	1	-1
520.531	1	3
520.871	1	-5
521.211	1	5
521.552	1	0
521.892	1	-5
522.232	1	0
522.573	1	3
522.913	1	4
523.253	1	-5
523.593	1	-3
523.934	1	4
524.274	1	-5
524.614	1	-1
524.955	1	4
525.295	1	-8
525.635	1	8
525.975	1	-9
526.316	1	1
526.656	1	13
526.996	1	6
527.337	1	11
527.677	1	14
528.017	1	-8
528.357	1	5
528.698	1	-3
529.038	1	5
529.378	1	7
529.718	1	3
530.058	1	0
530.399	1	12
530.739	1	6
531.079	1	5
531.419	1	2
531.760	1	-1
532.100	1	7
532.440	1	2
532.780	1	3
533.120	1	-5
533.461	1	14
533.801	1	0
534.141	1	15
534.481	1	6
534.821	1	4
535.162	1	15
535.502	1	15
535.842	1	3
536.182	1	1
536.522	1	3
536.862	1	4
537.203	1	4
537.543	1	0
537.883	1	4
538.223	1	3
538.563	1	6
538.903	1	5
539.243	1	2
539.584	1	4
539.924	1	6
540.264	1	1
540.604	1	12
540.944	1	-3
541.284	1	-8
541.624	1	3
541.964	1	4
542.305	1	-4
542.645	1	-5
542.985	1	-1
543.325	1	1
543.665	1	14
544.005	1	-2
544.345	1	-4
544.685	1	2
545.025	1	4
545.365	1	10
545.705	1	8
546.045	1	8
546.386	1	8
546.726	1	1
547.066	1	-5
547.406	1	17
547.746	1	11
548.086	1	-2
548.426	1	-4
548.766	1	10
549.106	1	11
549.446	1	1
549.786	1	2
550.126	1	11
550.466	1	4
550.806	1	10
551.146	1	-12
551.486	1	6
551.826	1	3
552.166	1	-3
552.506	1	-3
552.846	1	7
553.186	1	6
553.526	1	-9
553.866	1	2
554.206	1	6
554.546	1	-3
554.886	1	7
555.226	1	-6
555.566	1	13
555.906	1	9
556.246	1	-2
556.586	1	0
556.926	1	5
557.266	1	8
557.606	1	-5
557.946	1	11
558.286	1	10
558.626	1	7
558.966	1	-4
559.306	1	1
559.646	1	0
559.986	1	-3
560.325	1	3
560.665	1	8
561.005	1	10
561.345	1	2
561.685	1	6
562.025	1	-3
562.365	1	12
562.705	1	3
563.045	1	6
563.385	1	4
563.725	1	-2
564.064	1	8
564.404	1	-3
564.744	1	-2
565.084	1	-13
565.424	1	0
565.764	1	15
566.104	1	-1
566.444	1	8
566.783	1	-5
567.123	1	11
567.463	1	7
567.803	1	-6
568.143	1	-6
568.483	1	-5
568.823	1	7
569.162	1	1
569.502	1	9
569.842	1	-10
570.182	1	-3
570.522	1	6
570.862	1	6
571.201	1	7
571.541	1	-1
571.881	1	7
572.221	1	8
572.561	1	-4
572.900	1	8
573.240	1	-7
573.580	1	-7
573.920	1	-3
574.260	1	3
574.599	1	-3
574.939	1	-2
575.279	1	9
575.619	1	1
575.959	1	-10
576.298	1	-5
576.638	1	-5
576.978	1	-1
577.318	1	6
577.657	1	-1
577.997	1	-7
578.337	1	-4
578.677	1	-3
579.016	1	12
579.356	1	-4
579.696	1	5
580.036	1	0
580.375	1	0
580.715	1	17
581.055	1	3
581.394	1	-4
581.734	1	12
582.074	1	4
582.414	1	7
582.753	1	2
583.093	1	-2
583.433	1	-5
583.772	1	4
584.112	1	1
584.452	1	-2
584.791	1	8
585.131	1	-7
585.471	1	-3
585.811	1	0
586.150	1	4
586.490	1	-4
586.830	1	-6
587.169	1	-2
587.509	1	-3
587.849	1	3
588.188	1	6
588.528	1	0
588.867	1	12
589.207	1	-6
589.547	1	0
589.886	1	-6
590.226	1	2
590.566	1	-2
590.905	1	8
591.245	1	-3
591.585	1	-7
591.924	1	5
592.264	1	2
592.603	1	1
592.943	1	3
593.283	1	3
593.622	1	-10
593.962	1	4
594.301	1	11
594.641	1	2
594.981	1	4
595.320	1	9
595.660	1	1
595.999	1	6
596.339	1	6
596.678	1	-4
597.018	1	-2
597.358	1	-1
597.697	1	-7
598.037	1	4
598.376	1	16
598.716	1	-9
599.055	1	1
599.395	1	9
599.734	1	-3
600.074	1	6
600.413	1	-7
600.753	1	9
601.092	1	-7
601.432	1	2
601.771	1	11
602.111	1	-2
602.451	1	2
602.790	1	4
603.130	1	8
603.469	1	-4
603.809	1	0
604.148	1	8
604.487	1	7
604.827	1	-16
605.166	1	-6
605.506	1	-2
605.845	1	7
606.185	1	2
606.524	1	-7
606.864	1	1
607.203	1	11
607.543	1	-8
607.882	1	-1
608.222	1	-1
608.561	1	2
608.901	1	6
609.240	1	2
609.579	1	7
609.919	1	-1
610.258	1	5
610.598	1	-2
610.937	1	-1
611.277	1	-2
611.616	1	-3
611.955	1	8
612.295	1	4
612.634	1	2
612.974	1	6
613.313	1	-4
613.652	1	-12
613.992	1	13
614.331	1	2
614.671	1	6
615.010	1	5
615.349	1	-1
615.689	1	2
616.028	1	5
616.368	1	-4
616.707	1	-3
617.046	1	5
617.386	1	-9
617.725	1	3
618.064	1	13
618.404	1	5
618.743	1	1
619.082	1	1
619.422	1	0
619.761	1	0
620.100	1	7
620.440	1	2
620.779	1	-2
621.118	1	2
621.458	1	8
621.797	1	3
622.136	1	2
622.476	1	9
622.815	1	1
623.154	1	6
623.494	1	3
623.833	1	6
624.172	1	12
624.511	1	-6
624.851	1	-12
625.190	1	5
625.529	1	9
625.869	1	1
626.208	1	-6
626.547	1	5
626.886	1	1
627.226	1	4
627.565	1	8
627.904	1	5
628.243	1	-1
628.583	1	6
628.922	1	-6
629.261	1	4
629.600	1	3
629.940	1	5
630.279	1	-1
630.618	1	-1
630.957	1	-2
631.297	1	-3
631.636	1	0
631.975	1	12
632.314	1	17
632.653	1	-4
632.993	1	3
633.332	1	1
633.671	1	0
634.010	1	8
634.349	1	0
634.689	1	0
635.028	1	7
635.367	1	-5
635.706	1	-8
636.045	1	1
636.384	1	7
636.724	1	4
637.063	1	5
637.402	1	3
637.741	1	9
638.080	1	4
638.419	1	4
638.759	1	5
639.098	1	-1
639.437	1	-2
639.776	1	-1
640.115	1	0
640.454	1	13
640.793	1	12
641.132	1	7
641.472	1	1
641.811	1	3
642.150	1	1
642.489	1	-9
642.828	1	6
643.167	1	15
643.506	1	-3
643.845	1	3
644.184	1	8
644.524	1	-1
644.863	1	-9
645.202	1	-5
645.541	1	-10
645.880	1	6
646.219	1	1
646.558	1	2
646.897	1	3
647.236	1	-6
647.575	1	1
647.914	1	2
648.253	1	6
648.592	1	-8
648.931	1	8
649.270	1	8
649.610	1	8
649.949	1	-1
650.288	1	0
650.627	1	-4
650.966	1	4
651.305	1	2
651.644	1	7
651.983	1	-3
652.322	1	9
652.661	1	-3
653.000	1	1
653.339	1	6
653.678	1	5
654.017	1	-1
654.356	1	13
654.695	1	4
655.034	1	-1
655.373	1	2
655.712	1	-4
656.051	1	16
656.390	1	3
656.729	1	-1
657.068	1	8
657.406	1	7
657.745	1	-9
658.084	1	9
658.423	1	-8
658.762	1	-2
659.101	1	5
659.440	1	6
659.779	1	0
660.118	1	6
660.457	1	-4
660.796	1	-7
661.135	1	10
661.474	1	10
661.813	1	1
662.152	1	-3
662.491	1	5
662.829	1	-3
663.168	1	0
663.507	1	-2
663.846	1	14
664.185	1	1
664.524	1	2
664.863	1	7
665.202	1	-10
665.541	1	2
665.879	1	-3
666.218	1	0
666.557	1	6
666.896	1	-12
667.235	1	-1
667.574	1	5
667.913	1	2
668.251	1	4
668.590	1	-4
668.929	1	12
669.268	1	-5
669.607	1	-5
669.946	1	2
670.285	1	6
670.623	1	4
670.962	1	5
671.301	1	-13
671.640	1	-10
671.979	1	5
672.317	1	2
672.656	1	6
672.995	1	4
673.334	1	10
673.673	1	13
674.011	1	6
674.350	1	1
674.689	1	-6
675.028	1	2
675.367	1	0
675.705	1	-15
676.044	1	-9
676.383	1	-4
676.722	1	-2
677.060	1	1
677.399	1	-3
677.738	1	-7
678.077	1	5
678.416	1	12
678.754	1	9
679.093	1	1
679.432	1	-2
679.771	1	0
680.109	1	3
680.448	1	2
680.787	1	2
681.125	1	-5
681.464	1	5
681.803	1	-6
682.142	1	12
682.480	1	-13
682.819	1	2
683.158	1	3
683.496	1	5
683.835	1	-2
684.174	1	-4
684.512	1	-1
684.851	1	-1
685.190	1	11
685.529	1	3
685.867	1	-1
686.206	1	-1
686.545	1	5
686.883	1	-6
687.222	1	4
687.561	1	2
687.899	1	1
688.238	1	2
688.577	1	-4
688.746	1	-3