File: Analysis/GaN_68K_200ms/GaN_sample E_spot4_UVVIS_68 K_200um_200 ms 2x2mm1_338.txt
340.368	1	-5
340.710	1	1
341.052	1	3
341.394	1	7
341.737	1	9
342.079	1	0
342.421	1	-2
342.763	1	1
343.105	1	8
343.447	1	3
343.789	1	-2
344.131	1	4
344.473	1	1
344.815	1	4
345.157	1	7
345.499	1	3
345.841	1	10
346.183	1	0
346.526	1	8
346.868	1	-4
347.210	1	6
347.552	1	9
347.894	1	4
348.236	1	3
348.578	1	7
348.920	1	7
349.262	1	-6
349.604	1	3
349.946	1	11
350.288	1	-6
350.630	1	-3
350.972	1	1
351.314	1	5
351.656	1	2
351.998	1	-2
352.340	1	-3
352.682	1	-3
353.024	1	5
353.366	1	2
353.708	1	-3
354.050	1	0
354.392	1	4
354.734	1	3
355.076	1	7
355.418	1	-3
355.760	1	-2
356.102	1	2
356.444	1	3
356.785	1	10
357.127	1	5
357.469	1	6
357.811	1	9
358.153	1	10
358.495	1	4
358.837	1	-3
359.179	1	7
359.521	1	-2
359.863	1	4
360.205	1	-2
360.547	1	1
360.889	1	8
361.231	1	7
361.572	1	4
361.914	1	-3
362.256	1	4
362.598	1	0
362.940	1	6
363.282	1	8
363.624	1	-9
363.966	1	4
364.308	1	5
364.649	1	-1
364.991	1	5
365.333	1	15
365.675	1	-5
366.017	1	8
366.359	1	9
366.701	1	-2
367.042	1	10
367.384	1	14
367.726	1	19
368.068	1	-1
368.410	1	9
368.752	1	-1
369.093	1	7
369.435	1	-2
369.777	1	1
370.119	1	5
370.461	1	1
370.803	1	-1
371.144	1	10
371.486	1	1
371.828	1	5
372.170	1	19
372.512	1	4
372.853	1	7
373.195	1	1
373.537	1	7
373.879	1	13
374.220	1	4
374.562	1	3
374.904	1	1
375.246	1	9
375.588	1	9
375.929	1	6
376.271	1	-1
376.613	1	6
376.955	1	-8
377.296	1	10
377.638	1	9
377.980	1	7
378.321	1	4
378.663	1	-3
379.005	1	6
379.347	1	9
379.688	1	6
380.030	1	2
380.372	1	9
380.714	1	15
381.055	1	3
381.397	1	-1
381.739	1	4
382.080	1	-2
382.422	1	10
382.764	1	4
383.105	1	9
383.447	1	12
383.789	1	4
384.130	1	3
384.472	1	-12
384.814	1	10
385.156	1	18
385.497	1	15
385.839	1	13
386.180	1	3
386.522	1	12
386.864	1	0
387.205	1	5
387.547	1	13
387.889	1	25
388.230	1	1
388.572	1	2
388.914	1	18
389.255	1	14
389.597	1	3
389.939	1	14
390.280	1	17
390.622	1	-1
390.963	1	6
391.305	1	14
391.647	1	9
391.988	1	7
392.330	1	11
392.671	1	9
393.013	1	14
393.355	1	21
393.696	1	4
394.038	1	5
394.379	1	6
394.721	1	12
395.062	1	2
395.404	1	12
395.746	1	-2
396.087	1	2
396.429	1	14
396.770	1	12
397.112	1	-3
397.453	1	4
397.795	1	10
398.136	1	18
398.478	1	13
398.819	1	14
399.161	1	16
399.503	1	5
399.844	1	13
400.186	1	17
400.527	1	9
400.869	1	15
401.210	1	5
401.552	1	17
401.893	1	8
402.235	1	11
402.576	1	16
402.918	1	6
403.259	1	0
403.601	1	-8
403.942	1	14
404.284	1	8
404.625	1	11
404.967	1	3
405.308	1	4
405.649	1	6
405.991	1	16
406.332	1	3
406.674	1	7
407.015	1	-3
407.357	1	4
407.698	1	-6
408.040	1	3
408.381	1	1
408.722	1	7
409.064	1	5
409.405	1	6
409.747	1	6
410.088	1	4
410.430	1	14
410.771	1	7
411.112	1	4
411.454	1	11
411.795	1	9
412.137	1	13
412.478	1	10
412.819	1	3
413.161	1	4
413.502	1	5
413.844	1	-1
414.185	1	5
414.526	1	-5
414.868	1	19
415.209	1	1
415.550	1	-2
415.892	1	7
416.233	1	-4
416.575	1	-1
416.916	1	-1
417.257	1	0
417.599	1	5
417.940	1	-1
418.281	1	1
418.623	1	10
418.964	1	12
419.305	1	6
419.647	1	15
419.988	1	6
420.329	1	1
420.671	1	8
421.012	1	6
421.353	1	11
421.695	1	-8
422.036	1	4
422.377	1	4
422.718	1	0
423.060	1	6
423.401	1	10
423.742	1	4
424.084	1	2
424.425	1	7
424.766	1	8
425.107	1	5
425.449	1	10
425.790	1	-3
426.131	1	2
426.472	1	12
426.814	1	13
427.155	1	0
427.496	1	9
427.837	1	-6
428.179	1	-2
428.520	1	4
428.861	1	6
429.202	1	15
429.544	1	6
429.885	1	2
430.226	1	0
430.567	1	7
430.909	1	-9
431.250	1	3
431.591	1	3
431.932	1	15
432.273	1	3
432.615	1	9
432.956	1	9
433.297	1	6
433.638	1	2
433.979	1	3
434.320	1	9
434.662	1	-4
435.003	1	11
435.344	1	7
435.685	1	7
436.026	1	6
436.368	1	-2
436.709	1	-5
437.050	1	3
437.391	1	0
437.732	1	10
438.073	1	6
438.414	1	11
438.756	1	10
439.097	1	2
439.438	1	4
439.779	1	10
440.120	1	1
440.461	1	-3
440.802	1	7
441.143	1	11
441.485	1	9
441.826	1	2
442.167	1	0
442.508	1	-5
442.849	1	17
443.190	1	-4
443.531	1	0
443.872	1	3
444.213	1	0
444.554	1	4
444.895	1	5
445.237	1	-16
445.578	1	18
445.919	1	-2
446.260	1	6
446.601	1	-2
446.942	1	5
447.283	1	1
447.624	1	6
447.965	1	-2
448.306	1	0
448.647	1	17
448.988	1	-12
449.329	1	13
449.670	1	-3
450.011	1	4
450.352	1	6
450.693	1	12
451.034	1	8
451.375	1	11
451.716	1	9
452.057	1	7
452.398	1	5
452.739	1	9
453.080	1	2
453.421	1	2
453.762	1	7
454.103	1	7
454.444	1	14
454.785	1	-8
455.126	1	11
455.467	1	1
455.808	1	2
456.149	1	0
456.490	1	2
456.831	1	8
457.172	1	7
457.513	1	9
457.854	1	-3
458.195	1	-8
458.536	1	8
458.877	1	1
459.218	1	4
459.559	1	5
459.899	1	7
460.240	1	4
460.581	1	10
460.922	1	-2
461.263	1	8
461.604	1	1
461.945	1	19
462.286	1	5
462.627	1	5
462.968	1	-6
463.309	1	1
463.649	1	1
463.990	1	3
464.331	1	9
464.672	1	-1
465.013	1	-1
465.354	1	6
465.695	1	12
466.036	1	-2
466.376	1	-3
466.717	1	-10
467.058	1	9
467.399	1	4
467.740	1	3
468.081	1	-2
468.422	1	10
468.762	1	-11
469.103	1	-5
469.444	1	0
469.785	1	12
470.126	1	4
470.467	1	2
470.807	1	7
471.148	1	-4
471.489	1	2
471.830	1	14
472.171	1	4
472.511	1	6
472.852	1	0
473.193	1	5
473.534	1	-5
473.875	1	11
474.215	1	1
474.556	1	-8
474.897	1	3
475.238	1	-8
475.578	1	-9
475.919	1	1
476.260	1	1
476.601	1	1
476.942	1	-3
477.282	1	-5
477.623	1	8
477.964	1	9
478.305	1	8
478.645	1	-9
478.986	1	4
479.327	1	3
479.667	1	0
480.008	1	10
480.349	1	7
480.690	1	-3
481.030	1	-1
481.371	1	6
481.712	1	2
482.053	1	9
482.393	1	-8
482.734	1	4
483.075	1	4
483.415	1	3
483.756	1	9
484.097	1	-4
484.437	1	-2
484.778	1	-6
485.119	1	2
485.459	1	5
485.800	1	1
486.141	1	-5
486.481	1	3
486.822	1	-4
487.163	1	0
487.503	1	-13
487.844	1	13
488.185	1	-11
488.525	1	1
488.866	1	5
489.207	1	2
489.547	1	-3
489.888	1	6
490.228	1	-5
490.569	1	2
490.910	1	-2
491.250	1	2
491.591	1	-6
491.932	1	4
492.272	1	11
492.613	1	11
492.953	1	3
493.294	1	16
493.635	1	-12
493.975	1	1
494.316	1	-3
494.656	1	4
494.997	1	3
495.337	1	1
495.678	1	9
496.019	1	6
496.359	1	0
496.700	1	-1
497.040	1	3
497.381	1	-12
497.721	1	-9
498.062	1	-6
498.403	1	7
498.743	1	10
499.084	1	-6
499.424	1	17
499.765	1	3
500.105	1	13
500.446	1	11
500.786	1	-1
501.127	1	9
501.467	1	8
501.808	1	-8
502.148	1	-2
502.489	1	6
502.829	1	8
503.170	1	5
503.510	1	5
503.851	1	-17
504.191	1	10
504.532	1	-11
504.872	1	-3
505.213	1	-4
505.553	1	-1
505.894	1	5
506.234	1	14
506.575	1	4
506.915	1	7
507.256	1	-4
507.596	1	14
507.936	1	7
508.277	1	8
508.617	1	8
508.958	1	19
509.298	1	13
509.639	1	9
509.979	1	6
510.319	1	0
510.660	1	5
511.000	1	11
511.341	1	-8
511.681	1	3
512.022	1	-3
512.362	1	11
512.702	1	-6
513.043	1	10
513.383	1	-4
513.724	1	5
514.064	1	3
514.404	1	4
514.745	1	6
515.085	1	6
515.425	1	-3
515.766	1	-3
516.106	1	-1
516.447	1	6
516.787	1	-9
517.127	1	-2
517.468	1	-7
517.808	1	5
518.148	1	8
518.489	1	7
518.829	1	-2
519.169	1	12
519.510	1	2
519.850	1	3
520.190	1	4
520.531	1	12
520.871	1	2
521.211	1	8
521.552	1	12
521.892	1	0
522.232	1	-4
522.573	1	4
522.913	1	7
523.253	1	4
523.593	1	-15
523.934	1	17
524.274	1	4
524.614	1	5
524.955	1	-3
525.295	1	-6
525.635	1	16
525.975	1	2
526.316	1	-4
526.656	1	22
526.996	1	11
527.337	1	3
527.677	1	15
528.017	1	-2
528.357	1	13
528.698	1	1
529.038	1	7
529.378	1	11
529.718	1	9
530.058	1	12
530.399	1	8
530.739	1	-4
531.079	1	0
531.419	1	15
531.760	1	7
532.100	1	5
532.440	1	9
532.780	1	1
533.120	1	1
533.461	1	19
533.801	1	6
534.141	1	6
534.481	1	1
534.821	1	6
535.162	1	3
535.502	1	9
535.842	1	-2
536.182	1	4
536.522	1	15
536.862	1	16
537.203	1	9
537.543	1	12
537.883	1	14
538.223	1	13
538.563	1	6
538.903	1	9
539.243	1	13
539.584	1	0
539.924	1	6
540.264	1	9
540.604	1	11
540.944	1	-7
541.284	1	2
541.624	1	16
541.964	1	6
542.305	1	5
542.645	1	11
542.985	1	3
543.325	1	2
543.665	1	14
544.005	1	2
544.345	1	-1
544.685	1	11
545.025	1	6
545.365	1	5
545.705	1	10
546.045	1	2
546.386	1	8
546.726	1	4
547.066	1	-3
547.406	1	17
547.746	1	10
548.086	1	6
548.426	1	5
548.766	1	8
549.106	1	7
549.446	1	6
549.786	1	15
550.126	1	1
550.466	1	10
550.806	1	10
551.146	1	0
551.486	1	11
551.826	1	3
552.166	1	10
552.506	1	-6
552.846	1	7
553.186	1	1
553.526	1	6
553.866	1	4
554.206	1	5
554.546	1	-10
554.886	1	3
555.226	1	0
555.566	1	15
555.906	1	11
556.246	1	2
556.586	1	13
556.926	1	7
557.266	1	13
557.606	1	-3
557.946	1	12
558.286	1	9
558.626	1	13
558.966	1	7
559.306	1	-2
559.646	1	-4
559.986	1	-3
560.325	1	-6
560.665	1	1
561.005	1	-5
561.345	1	2
561.685	1	5
562.025	1	-2
562.365	1	8
562.705	1	11
563.045	1	3
563.385	1	2
563.725	1	0
564.064	1	13
564.404	1	-5
564.744	1	12
565.084	1	-10
565.424	1	9
565.764	1	11
566.104	1	4
566.444	1	10
566.783	1	7
567.123	1	19
567.463	1	7
567.803	1	-3
568.143	1	-6
568.483	1	4
568.823	1	17
569.162	1	10
569.502	1	11
569.842	1	-7
570.182	1	-7
570.522	1	13
570.862	1	4
571.201	1	2
571.541	1	-4
571.881	1	12
572.221	1	10
572.561	1	-5
572.900	1	11
573.240	1	-2
573.580	1	7
573.920	1	9
574.260	1	7
574.599	1	8
574.939	1	-2
575.279	1	5
575.619	1	4
575.959	1	-1
576.298	1	-9
576.638	1	6
576.978	1	2
577.318	1	10
577.657	1	-13
577.997	1	6
578.337	1	3
578.677	1	-3
579.016	1	15
579.356	1	5
579.696	1	6
580.036	1	0
580.375	1	4
580.715	1	15
581.055	1	7
581.394	1	1
581.734	1	8
582.074	1	4
582.414	1	7
582.753	1	5
583.093	1	-2
583.433	1	-13
583.772	1	1
584.112	1	5
584.452	1	8
584.791	1	-5
585.131	1	-4
585.471	1	-1
585.811	1	-5
586.150	1	2
586.490	1	4
586.830	1	-10
587.169	1	1
587.509	1	-1
587.849	1	10
588.188	1	4
588.528	1	4
588.867	1	4
589.207	1	-5
589.547	1	-2
589.886	1	4
590.226	1	3
590.566	1	4
590.905	1	-8
591.245	1	3
591.585	1	1
591.924	1	-6
592.264	1	12
592.603	1	-10
592.943	1	-5
593.283	1	4
593.622	1	-1
593.962	1	11
594.301	1	2
594.641	1	-10
594.981	1	0
595.320	1	17
595.660	1	3
595.999	1	10
596.339	1	3
596.678	1	5
597.018	1	8
597.358	1	-5
597.697	1	3
598.037	1	-2
598.376	1	7
598.716	1	-2
599.055	1	11
599.395	1	10
599.734	1	-2
600.074	1	-6
600.413	1	0
600.753	1	6
601.092	1	-3
601.432	1	-3
601.771	1	1
602.111	1	-9
602.451	1	1
602.790	1	-2
603.130	1	7
603.469	1	8
603.809	1	12
604.148	1	4
604.487	1	9
604.827	1	-5
605.166	1	-6
605.506	1	11
605.845	1	7
606.185	1	-1
606.524	1	5
606.864	1	-4
607.203	1	13
607.543	1	-4
607.882	1	1
608.222	1	10
608.561	1	5
608.901	1	-1
609.240	1	-2
609.579	1	1
609.919	1	5
610.258	1	5
610.598	1	6
610.937	1	3
611.277	1	0
611.616	1	-8
611.955	1	4
612.295	1	1
612.634	1	3
612.974	1	14
613.313	1	-1
613.652	1	-6
613.992	1	4
614.331	1	16
614.671	1	12
615.010	1	-4
615.349	1	3
615.689	1	2
616.028	1	11
616.368	1	-3
616.707	1	-2
617.046	1	1
617.386	1	6
617.725	1	-4
618.064	1	5
618.404	1	1
618.743	1	-3
619.082	1	4
619.422	1	-1
619.761	1	3
620.100	1	11
620.440	1	1
620.779	1	-2
621.118	1	2
621.458	1	11
621.797	1	4
622.136	1	7
622.476	1	5
622.815	1	2
623.154	1	10
623.494	1	2
623.833	1	1
624.172	1	10
624.511	1	3
624.851	1	-4
625.190	1	-2
625.529	1	6
625.869	1	16
626.208	1	-3
626.547	1	-4
626.886	1	-3
627.226	1	2
627.565	1	15
627.904	1	4
628.243	1	-1
628.583	1	2
628.922	1	-6
629.261	1	5
629.600	1	11
629.940	1	5
630.279	1	-4
630.618	1	11
630.957	1	-6
631.297	1	-4
631.636	1	2
631.975	1	4
632.314	1	14
632.653	1	2
632.993	1	5
633.332	1	9
633.671	1	8
634.010	1	8
634.349	1	5
634.689	1	6
635.028	1	-1
635.367	1	-4
635.706	1	-5
636.045	1	3
636.384	1	8
636.724	1	-3
637.063	1	7
637.402	1	9
637.741	1	17
638.080	1	9
638.419	1	-1
638.759	1	4
639.098	1	9
639.437	1	-4
639.776	1	2
640.115	1	-1
640.454	1	11
640.793	1	6
641.132	1	9
641.472	1	-9
641.811	1	-3
642.150	1	10
642.489	1	3
642.828	1	-4
643.167	1	3
643.506	1	-7
643.845	1	-5
644.184	1	12
644.524	1	-14
644.863	1	-2
645.202	1	-4
645.541	1	-12
645.880	1	-1
646.219	1	18
646.558	1	-3
646.897	1	-6
647.236	1	6
647.575	1	4
647.914	1	-7
648.253	1	1
648.592	1	1
648.931	1	11
649.270	1	13
649.610	1	21
649.949	1	9
650.288	1	-6
650.627	1	-6
650.966	1	1
651.305	1	3
651.644	1	2
651.983	1	-1
652.322	1	9
652.661	1	5
653.000	1	-2
653.339	1	8
653.678	1	-2
654.017	1	3
654.356	1	8
654.695	1	7
655.034	1	-1
655.373	1	3
655.712	1	0
656.051	1	18
656.390	1	5
656.729	1	0
657.068	1	-1
657.406	1	11
657.745	1	-2
658.084	1	6
658.423	1	-7
658.762	1	-3
659.101	1	-4
659.440	1	6
659.779	1	5
660.118	1	1
660.457	1	5
660.796	1	-1
661.135	1	11
661.474	1	8
661.813	1	3
662.152	1	4
662.491	1	6
662.829	1	-11
663.168	1	-3
663.507	1	5
663.846	1	7
664.185	1	4
664.524	1	0
664.863	1	5
665.202	1	-8
665.541	1	5
665.879	1	-8
666.218	1	-9
666.557	1	3
666.896	1	-5
667.235	1	3
667.574	1	1
667.913	1	0
668.251	1	5
668.590	1	0
668.929	1	8
669.268	1	5
669.607	1	-2
669.946	1	12
670.285	1	3
670.623	1	6
670.962	1	-4
671.301	1	-3
671.640	1	-12
671.979	1	18
672.317	1	-4
672.656	1	8
672.995	1	-3
673.334	1	4
673.673	1	21
674.011	1	9
674.350	1	-5
674.689	1	-1
675.028	1	3
675.367	1	9
675.705	1	-7
676.044	1	-1
676.383	1	-7
676.722	1	-2
677.060	1	0
677.399	1	-4
677.738	1	-5
678.077	1	3
678.416	1	7
678.754	1	-8
679.093	1	5
679.432	1	-6
679.771	1	-2
680.109	1	5
680.448	1	5
680.787	1	3
681.125	1	7
681.464	1	4
681.803	1	-9
682.142	1	14
682.480	1	0
682.819	1	2
683.158	1	2
683.496	1	-10
683.835	1	-4
684.174	1	-2
684.512	1	0
684.851	1	-1
685.190	1	14
685.529	1	9
685.867	1	1
686.206	1	6
686.545	1	1
686.883	1	-8
687.222	1	0
687.561	1	3
687.899	1	2
688.238	1	2
688.577	1	-9
688.746	1	1