File: Analysis/GaN_68K_200ms/GaN_sample E_spot4_UVVIS_68 K_200um_200 ms 2x2mm1_416.txt
340.368	1	2
340.710	1	-3
341.052	1	-2
341.394	1	6
341.737	1	5
342.079	1	-2
342.421	1	9
342.763	1	-4
343.105	1	9
343.447	1	1
343.789	1	-12
344.131	1	-2
344.473	1	7
344.815	1	3
345.157	1	7
345.499	1	14
345.841	1	10
346.183	1	2
346.526	1	12
346.868	1	2
347.210	1	1
347.552	1	1
347.894	1	5
348.236	1	-5
348.578	1	3
348.920	1	13
349.262	1	-2
349.604	1	4
349.946	1	8
350.288	1	11
350.630	1	2
350.972	1	-9
351.314	1	-7
351.656	1	2
351.998	1	-2
352.340	1	3
352.682	1	-8
353.024	1	-5
353.366	1	10
353.708	1	5
354.050	1	8
354.392	1	13
354.734	1	1
355.076	1	9
355.418	1	-1
355.760	1	4
356.102	1	8
356.444	1	7
356.785	1	13
357.127	1	2
357.469	1	1
357.811	1	12
358.153	1	-2
358.495	1	15
358.837	1	5
359.179	1	-3
359.521	1	3
359.863	1	-9
360.205	1	-6
360.547	1	12
360.889	1	5
361.231	1	0
361.572	1	-8
361.914	1	1
362.256	1	11
362.598	1	0
362.940	1	6
363.282	1	5
363.624	1	7
363.966	1	2
364.308	1	-3
364.649	1	6
364.991	1	2
365.333	1	10
365.675	1	0
366.017	1	14
366.359	1	-1
366.701	1	-1
367.042	1	21
367.384	1	12
367.726	1	10
368.068	1	-1
368.410	1	-1
368.752	1	-1
369.093	1	6
369.435	1	2
369.777	1	-10
370.119	1	0
370.461	1	2
370.803	1	-7
371.144	1	4
371.486	1	12
371.828	1	3
372.170	1	12
372.512	1	-4
372.853	1	6
373.195	1	-4
373.537	1	4
373.879	1	10
374.220	1	-4
374.562	1	-1
374.904	1	0
375.246	1	-1
375.588	1	-5
375.929	1	9
376.271	1	-2
376.613	1	4
376.955	1	-4
377.296	1	7
377.638	1	-3
377.980	1	1
378.321	1	0
378.663	1	-4
379.005	1	5
379.347	1	11
379.688	1	-5
380.030	1	-2
380.372	1	8
380.714	1	12
381.055	1	5
381.397	1	-9
381.739	1	12
382.080	1	-11
382.422	1	17
382.764	1	-1
383.105	1	1
383.447	1	8
383.789	1	12
384.130	1	-3
384.472	1	-9
384.814	1	5
385.156	1	7
385.497	1	5
385.839	1	12
386.180	1	10
386.522	1	2
386.864	1	4
387.205	1	4
387.547	1	7
387.889	1	13
388.230	1	5
388.572	1	7
388.914	1	12
389.255	1	9
389.597	1	0
389.939	1	2
390.280	1	14
390.622	1	2
390.963	1	12
391.305	1	12
391.647	1	2
391.988	1	-5
392.330	1	10
392.671	1	6
393.013	1	3
393.355	1	20
393.696	1	3
394.038	1	-4
394.379	1	3
394.721	1	11
395.062	1	-2
395.404	1	1
395.746	1	-3
396.087	1	4
396.429	1	6
396.770	1	7
397.112	1	2
397.453	1	4
397.795	1	8
398.136	1	13
398.478	1	4
398.819	1	18
399.161	1	8
399.503	1	12
399.844	1	6
400.186	1	15
400.527	1	4
400.869	1	12
401.210	1	3
401.552	1	17
401.893	1	2
402.235	1	3
402.576	1	8
402.918	1	-4
403.259	1	1
403.601	1	-18
403.942	1	4
404.284	1	-1
404.625	1	8
404.967	1	13
405.308	1	1
405.649	1	-2
405.991	1	6
406.332	1	-7
406.674	1	2
407.015	1	-8
407.357	1	6
407.698	1	0
408.040	1	-5
408.381	1	5
408.722	1	4
409.064	1	7
409.405	1	1
409.747	1	-1
410.088	1	4
410.430	1	7
410.771	1	5
411.112	1	1
411.454	1	14
411.795	1	1
412.137	1	7
412.478	1	11
412.819	1	-1
413.161	1	-3
413.502	1	2
413.844	1	3
414.185	1	12
414.526	1	4
414.868	1	10
415.209	1	3
415.550	1	-5
415.892	1	-3
416.233	1	8
416.575	1	8
416.916	1	3
417.257	1	8
417.599	1	9
417.940	1	2
418.281	1	5
418.623	1	3
418.964	1	12
419.305	1	-10
419.647	1	9
419.988	1	-8
420.329	1	5
420.671	1	8
421.012	1	5
421.353	1	4
421.695	1	-3
422.036	1	-3
422.377	1	8
422.718	1	4
423.060	1	1
423.401	1	5
423.742	1	4
424.084	1	2
424.425	1	-2
424.766	1	5
425.107	1	2
425.449	1	8
425.790	1	-4
426.131	1	3
426.472	1	-4
426.814	1	4
427.155	1	7
427.496	1	14
427.837	1	7
428.179	1	-5
428.520	1	5
428.861	1	3
429.202	1	11
429.544	1	2
429.885	1	-3
430.226	1	1
430.567	1	14
430.909	1	-4
431.250	1	-13
431.591	1	2
431.932	1	5
432.273	1	4
432.615	1	5
432.956	1	-11
433.297	1	3
433.638	1	0
433.979	1	8
434.320	1	-1
434.662	1	-8
435.003	1	12
435.344	1	13
435.685	1	-2
436.026	1	3
436.368	1	-7
436.709	1	-9
437.050	1	3
437.391	1	4
437.732	1	0
438.073	1	8
438.414	1	7
438.756	1	8
439.097	1	8
439.438	1	5
439.779	1	-7
440.120	1	3
440.461	1	1
440.802	1	11
441.143	1	13
441.485	1	0
441.826	1	-8
442.167	1	-6
442.508	1	-4
442.849	1	9
443.190	1	-5
443.531	1	2
443.872	1	3
444.213	1	-6
444.554	1	6
444.895	1	1
445.237	1	-8
445.578	1	8
445.919	1	4
446.260	1	3
446.601	1	-11
446.942	1	7
447.283	1	0
447.624	1	11
447.965	1	-1
448.306	1	3
448.647	1	10
448.988	1	-13
449.329	1	-6
449.670	1	9
450.011	1	4
450.352	1	10
450.693	1	3
451.034	1	-1
451.375	1	13
451.716	1	9
452.057	1	17
452.398	1	5
452.739	1	-4
453.080	1	13
453.421	1	7
453.762	1	3
454.103	1	3
454.444	1	16
454.785	1	-2
455.126	1	8
455.467	1	7
455.808	1	5
456.149	1	2
456.490	1	4
456.831	1	6
457.172	1	-1
457.513	1	11
457.854	1	-6
458.195	1	8
458.536	1	7
458.877	1	6
459.218	1	-5
459.559	1	5
459.899	1	9
460.240	1	7
460.581	1	8
460.922	1	-3
461.263	1	11
461.604	1	-7
461.945	1	6
462.286	1	19
462.627	1	3
462.968	1	-3
463.309	1	8
463.649	1	0
463.990	1	-1
464.331	1	-1
464.672	1	5
465.013	1	1
465.354	1	2
465.695	1	4
466.036	1	5
466.376	1	-9
466.717	1	-11
467.058	1	3
467.399	1	5
467.740	1	6
468.081	1	-6
468.422	1	5
468.762	1	-9
469.103	1	-2
469.444	1	-7
469.785	1	6
470.126	1	10
470.467	1	-5
470.807	1	4
471.148	1	1
471.489	1	-7
471.830	1	20
472.171	1	7
472.511	1	5
472.852	1	0
473.193	1	-6
473.534	1	-1
473.875	1	10
474.215	1	2
474.556	1	-1
474.897	1	5
475.238	1	3
475.578	1	7
475.919	1	1
476.260	1	1
476.601	1	7
476.942	1	-6
477.282	1	-16
477.623	1	2
477.964	1	6
478.305	1	6
478.645	1	-7
478.986	1	-2
479.327	1	4
479.667	1	0
480.008	1	9
480.349	1	-8
480.690	1	-5
481.030	1	-6
481.371	1	-1
481.712	1	7
482.053	1	6
482.393	1	-9
482.734	1	3
483.075	1	10
483.415	1	5
483.756	1	-6
484.097	1	-4
484.437	1	-6
484.778	1	9
485.119	1	6
485.459	1	2
485.800	1	-5
486.141	1	-4
486.481	1	-3
486.822	1	-5
487.163	1	-10
487.503	1	3
487.844	1	11
488.185	1	0
488.525	1	6
488.866	1	14
489.207	1	6
489.547	1	-2
489.888	1	3
490.228	1	-6
490.569	1	-4
490.910	1	-5
491.250	1	2
491.591	1	-4
491.932	1	6
492.272	1	9
492.613	1	6
492.953	1	2
493.294	1	13
493.635	1	-2
493.975	1	-1
494.316	1	1
494.656	1	4
494.997	1	-1
495.337	1	20
495.678	1	9
496.019	1	0
496.359	1	4
496.700	1	3
497.040	1	1
497.381	1	-23
497.721	1	-2
498.062	1	0
498.403	1	13
498.743	1	0
499.084	1	-4
499.424	1	4
499.765	1	3
500.105	1	7
500.446	1	8
500.786	1	2
501.127	1	1
501.467	1	8
501.808	1	-14
502.148	1	0
502.489	1	5
502.829	1	-5
503.170	1	0
503.510	1	5
503.851	1	-11
504.191	1	0
504.532	1	-3
504.872	1	2
505.213	1	-2
505.553	1	2
505.894	1	6
506.234	1	15
506.575	1	-7
506.915	1	0
507.256	1	-7
507.596	1	3
507.936	1	4
508.277	1	-7
508.617	1	-5
508.958	1	11
509.298	1	10
509.639	1	13
509.979	1	-4
510.319	1	3
510.660	1	4
511.000	1	4
511.341	1	6
511.681	1	10
512.022	1	2
512.362	1	0
512.702	1	-6
513.043	1	4
513.383	1	-5
513.724	1	6
514.064	1	0
514.404	1	7
514.745	1	3
515.085	1	5
515.425	1	1
515.766	1	0
516.106	1	-5
516.447	1	11
516.787	1	-6
517.127	1	3
517.468	1	1
517.808	1	-3
518.148	1	5
518.489	1	6
518.829	1	-7
519.169	1	11
519.510	1	8
519.850	1	0
520.190	1	3
520.531	1	5
520.871	1	-12
521.211	1	5
521.552	1	-1
521.892	1	-1
522.232	1	-7
522.573	1	5
522.913	1	11
523.253	1	-3
523.593	1	-10
523.934	1	5
524.274	1	-3
524.614	1	10
524.955	1	-5
525.295	1	-11
525.635	1	11
525.975	1	0
526.316	1	4
526.656	1	26
526.996	1	9
527.337	1	8
527.677	1	19
528.017	1	-2
528.357	1	6
528.698	1	-2
529.038	1	9
529.378	1	10
529.718	1	8
530.058	1	6
530.399	1	7
530.739	1	-1
531.079	1	14
531.419	1	14
531.760	1	1
532.100	1	6
532.440	1	5
532.780	1	0
533.120	1	1
533.461	1	11
533.801	1	1
534.141	1	16
534.481	1	8
534.821	1	10
535.162	1	7
535.502	1	13
535.842	1	14
536.182	1	-3
536.522	1	14
536.862	1	0
537.203	1	7
537.543	1	3
537.883	1	4
538.223	1	6
538.563	1	9
538.903	1	5
539.243	1	7
539.584	1	9
539.924	1	7
540.264	1	6
540.604	1	2
540.944	1	-1
541.284	1	-1
541.624	1	-2
541.964	1	9
542.305	1	-3
542.645	1	-1
542.985	1	-4
543.325	1	-4
543.665	1	7
544.005	1	-1
544.345	1	-4
544.685	1	5
545.025	1	-3
545.365	1	6
545.705	1	13
546.045	1	10
546.386	1	-6
546.726	1	2
547.066	1	-3
547.406	1	11
547.746	1	8
548.086	1	8
548.426	1	0
548.766	1	1
549.106	1	8
549.446	1	2
549.786	1	6
550.126	1	-7
550.466	1	1
550.806	1	7
551.146	1	-2
551.486	1	-3
551.826	1	9
552.166	1	1
552.506	1	-2
552.846	1	9
553.186	1	-7
553.526	1	0
553.866	1	6
554.206	1	7
554.546	1	-1
554.886	1	4
555.226	1	0
555.566	1	7
555.906	1	9
556.246	1	10
556.586	1	7
556.926	1	9
557.266	1	8
557.606	1	2
557.946	1	4
558.286	1	2
558.626	1	1
558.966	1	3
559.306	1	-2
559.646	1	-4
559.986	1	-9
560.325	1	-7
560.665	1	5
561.005	1	1
561.345	1	3
561.685	1	8
562.025	1	-2
562.365	1	7
562.705	1	2
563.045	1	9
563.385	1	-3
563.725	1	-1
564.064	1	10
564.404	1	0
564.744	1	3
565.084	1	-4
565.424	1	0
565.764	1	9
566.104	1	-4
566.444	1	10
566.783	1	11
567.123	1	13
567.463	1	12
567.803	1	0
568.143	1	-7
568.483	1	-3
568.823	1	8
569.162	1	7
569.502	1	1
569.842	1	-4
570.182	1	0
570.522	1	-1
570.862	1	-3
571.201	1	-3
571.541	1	1
571.881	1	8
572.221	1	6
572.561	1	-9
572.900	1	8
573.240	1	-4
573.580	1	7
573.920	1	9
574.260	1	6
574.599	1	-6
574.939	1	3
575.279	1	1
575.619	1	2
575.959	1	0
576.298	1	-6
576.638	1	-1
576.978	1	-7
577.318	1	1
577.657	1	-20
577.997	1	-6
578.337	1	0
578.677	1	-6
579.016	1	7
579.356	1	-6
579.696	1	5
580.036	1	-1
580.375	1	-1
580.715	1	8
581.055	1	9
581.394	1	2
581.734	1	5
582.074	1	-2
582.414	1	6
582.753	1	7
583.093	1	-6
583.433	1	-6
583.772	1	1
584.112	1	4
584.452	1	8
584.791	1	-2
585.131	1	-1
585.471	1	-7
585.811	1	-4
586.150	1	3
586.490	1	5
586.830	1	-10
587.169	1	-1
587.509	1	-5
587.849	1	5
588.188	1	-5
588.528	1	10
588.867	1	10
589.207	1	-7
589.547	1	-7
589.886	1	0
590.226	1	2
590.566	1	-9
590.905	1	10
591.245	1	2
591.585	1	-6
591.924	1	0
592.264	1	-6
592.603	1	-4
592.943	1	2
593.283	1	13
593.622	1	-1
593.962	1	9
594.301	1	11
594.641	1	-6
594.981	1	-6
595.320	1	4
595.660	1	-7
595.999	1	-11
596.339	1	3
596.678	1	4
597.018	1	8
597.358	1	-2
597.697	1	-12
598.037	1	0
598.376	1	7
598.716	1	-13
599.055	1	-2
599.395	1	2
599.734	1	8
600.074	1	-5
600.413	1	0
600.753	1	3
601.092	1	-4
601.432	1	-2
601.771	1	1
602.111	1	-4
602.451	1	-5
602.790	1	2
603.130	1	-1
603.469	1	0
603.809	1	11
604.148	1	1
604.487	1	5
604.827	1	-16
605.166	1	-2
605.506	1	2
605.845	1	3
606.185	1	3
606.524	1	2
606.864	1	0
607.203	1	7
607.543	1	-6
607.882	1	-5
608.222	1	4
608.561	1	11
608.901	1	9
609.240	1	3
609.579	1	-3
609.919	1	-1
610.258	1	3
610.598	1	2
610.937	1	5
611.277	1	3
611.616	1	-13
611.955	1	8
612.295	1	4
612.634	1	1
612.974	1	5
613.313	1	5
613.652	1	-3
613.992	1	5
614.331	1	0
614.671	1	-4
615.010	1	4
615.349	1	10
615.689	1	7
616.028	1	0
616.368	1	-5
616.707	1	1
617.046	1	9
617.386	1	3
617.725	1	10
618.064	1	6
618.404	1	6
618.743	1	0
619.082	1	6
619.422	1	14
619.761	1	0
620.100	1	-2
620.440	1	-1
620.779	1	-1
621.118	1	-4
621.458	1	7
621.797	1	1
622.136	1	2
622.476	1	12
622.815	1	4
623.154	1	5
623.494	1	6
623.833	1	-2
624.172	1	15
624.511	1	-3
624.851	1	-8
625.190	1	4
625.529	1	2
625.869	1	8
626.208	1	-4
626.547	1	3
626.886	1	-4
627.226	1	3
627.565	1	10
627.904	1	0
628.243	1	-2
628.583	1	0
628.922	1	-2
629.261	1	9
629.600	1	5
629.940	1	6
630.279	1	-5
630.618	1	5
630.957	1	0
631.297	1	-6
631.636	1	0
631.975	1	4
632.314	1	8
632.653	1	-5
632.993	1	8
633.332	1	7
633.671	1	3
634.010	1	-2
634.349	1	9
634.689	1	16
635.028	1	1
635.367	1	-2
635.706	1	0
636.045	1	11
636.384	1	0
636.724	1	4
637.063	1	10
637.402	1	4
637.741	1	5
638.080	1	-10
638.419	1	11
638.759	1	0
639.098	1	3
639.437	1	-6
639.776	1	3
640.115	1	-7
640.454	1	6
640.793	1	7
641.132	1	11
641.472	1	1
641.811	1	1
642.150	1	7
642.489	1	2
642.828	1	8
643.167	1	3
643.506	1	-5
643.845	1	0
644.184	1	15
644.524	1	-8
644.863	1	-4
645.202	1	3
645.541	1	-8
645.880	1	-7
646.219	1	5
646.558	1	3
646.897	1	-4
647.236	1	1
647.575	1	6
647.914	1	-4
648.253	1	-1
648.592	1	5
648.931	1	6
649.270	1	4
649.610	1	13
649.949	1	8
650.288	1	-3
650.627	1	10
650.966	1	-4
651.305	1	6
651.644	1	-7
651.983	1	6
652.322	1	2
652.661	1	1
653.000	1	2
653.339	1	9
653.678	1	5
654.017	1	-4
654.356	1	10
654.695	1	2
655.034	1	5
655.373	1	2
655.712	1	-1
656.051	1	10
656.390	1	-9
656.729	1	11
657.068	1	3
657.406	1	7
657.745	1	-5
658.084	1	7
658.423	1	-1
658.762	1	-1
659.101	1	0
659.440	1	4
659.779	1	2
660.118	1	7
660.457	1	-6
660.796	1	-3
661.135	1	-8
661.474	1	7
661.813	1	1
662.152	1	2
662.491	1	-6
662.829	1	-7
663.168	1	-5
663.507	1	-3
663.846	1	5
664.185	1	6
664.524	1	-11
664.863	1	2
665.202	1	4
665.541	1	-9
665.879	1	0
666.218	1	-3
666.557	1	-1
666.896	1	-3
667.235	1	1
667.574	1	4
667.913	1	5
668.251	1	1
668.590	1	5
668.929	1	-4
669.268	1	5
669.607	1	-13
669.946	1	7
670.285	1	-2
670.623	1	7
670.962	1	0
671.301	1	1
671.640	1	-14
671.979	1	8
672.317	1	-1
672.656	1	4
672.995	1	5
673.334	1	8
673.673	1	18
674.011	1	4
674.350	1	-1
674.689	1	-5
675.028	1	6
675.367	1	2
675.705	1	-1
676.044	1	-1
676.383	1	2
676.722	1	1
677.060	1	-3
677.399	1	5
677.738	1	-8
678.077	1	6
678.416	1	-3
678.754	1	-1
679.093	1	6
679.432	1	1
679.771	1	-4
680.109	1	5
680.448	1	6
680.787	1	0
681.125	1	1
681.464	1	-1
681.803	1	-9
682.142	1	8
682.480	1	1
682.819	1	8
683.158	1	-2
683.496	1	-6
683.835	1	1
684.174	1	-5
684.512	1	8
684.851	1	-14
685.190	1	13
685.529	1	-7
685.867	1	8
686.206	1	8
686.545	1	5
686.883	1	-1
687.222	1	7
687.561	1	-4
687.899	1	-6
688.238	1	9
688.577	1	-4
688.746	1	2