File: Analysis/GaN_68K_200ms/GaN_sample E_spot4_UVVIS_68 K_200um_200 ms 2x2mm1_858.txt
340.368	1	3
340.710	1	-4
341.052	1	-4
341.394	1	-3
341.737	1	1
342.079	1	-9
342.421	1	-3
342.763	1	-2
343.105	1	10
343.447	1	4
343.789	1	-5
344.131	1	0
344.473	1	5
344.815	1	6
345.157	1	1
345.499	1	5
345.841	1	-7
346.183	1	0
346.526	1	5
346.868	1	6
347.210	1	-7
347.552	1	-9
347.894	1	-4
348.236	1	1
348.578	1	13
348.920	1	14
349.262	1	-3
349.604	1	2
349.946	1	16
350.288	1	1
350.630	1	-9
350.972	1	-3
351.314	1	-5
351.656	1	1
351.998	1	-8
352.340	1	1
352.682	1	1
353.024	1	-2
353.366	1	3
353.708	1	5
354.050	1	-7
354.392	1	7
354.734	1	-6
355.076	1	-1
355.418	1	3
355.760	1	0
356.102	1	-3
356.444	1	1
356.785	1	8
357.127	1	6
357.469	1	-10
357.811	1	11
358.153	1	6
358.495	1	17
358.837	1	-5
359.179	1	5
359.521	1	-4
359.863	1	-15
360.205	1	2
360.547	1	7
360.889	1	-1
361.231	1	-1
361.572	1	-3
361.914	1	-3
362.256	1	9
362.598	1	1
362.940	1	-1
363.282	1	-1
363.624	1	3
363.966	1	6
364.308	1	-16
364.649	1	-9
364.991	1	1
365.333	1	4
365.675	1	-2
366.017	1	1
366.359	1	-3
366.701	1	-7
367.042	1	0
367.384	1	-1
367.726	1	4
368.068	1	-3
368.410	1	-1
368.752	1	-13
369.093	1	3
369.435	1	-4
369.777	1	-2
370.119	1	-4
370.461	1	-5
370.803	1	4
371.144	1	4
371.486	1	8
371.828	1	7
372.170	1	0
372.512	1	-9
372.853	1	1
373.195	1	-6
373.537	1	1
373.879	1	12
374.220	1	-3
374.562	1	-8
374.904	1	3
375.246	1	3
375.588	1	5
375.929	1	0
376.271	1	-7
376.613	1	-6
376.955	1	-2
377.296	1	6
377.638	1	-3
377.980	1	3
378.321	1	4
378.663	1	-10
379.005	1	7
379.347	1	5
379.688	1	-5
380.030	1	-9
380.372	1	0
380.714	1	2
381.055	1	0
381.397	1	-5
381.739	1	6
382.080	1	-16
382.422	1	10
382.764	1	0
383.105	1	0
383.447	1	10
383.789	1	-5
384.130	1	-9
384.472	1	-13
384.814	1	-1
385.156	1	12
385.497	1	0
385.839	1	5
386.180	1	-2
386.522	1	-4
386.864	1	-15
387.205	1	-8
387.547	1	-6
387.889	1	6
388.230	1	0
388.572	1	-2
388.914	1	4
389.255	1	5
389.597	1	-6
389.939	1	1
390.280	1	4
390.622	1	-11
390.963	1	-3
391.305	1	9
391.647	1	5
391.988	1	-4
392.330	1	6
392.671	1	-1
393.013	1	7
393.355	1	9
393.696	1	-6
394.038	1	-5
394.379	1	-1
394.721	1	-4
395.062	1	-4
395.404	1	8
395.746	1	-9
396.087	1	-3
396.429	1	-4
396.770	1	3
397.112	1	0
397.453	1	-7
397.795	1	1
398.136	1	-1
398.478	1	-8
398.819	1	-2
399.161	1	-5
399.503	1	0
399.844	1	-4
400.186	1	7
400.527	1	-1
400.869	1	5
401.210	1	-8
401.552	1	19
401.893	1	1
402.235	1	6
402.576	1	10
402.918	1	-4
403.259	1	-14
403.601	1	-14
403.942	1	-1
404.284	1	4
404.625	1	1
404.967	1	-7
405.308	1	-6
405.649	1	-5
405.991	1	-1
406.332	1	-1
406.674	1	4
407.015	1	-11
407.357	1	0
407.698	1	-9
408.040	1	-8
408.381	1	-4
408.722	1	-1
409.064	1	-3
409.405	1	-1
409.747	1	-10
410.088	1	-2
410.430	1	0
410.771	1	1
411.112	1	1
411.454	1	1
411.795	1	-4
412.137	1	0
412.478	1	8
412.819	1	-2
413.161	1	-8
413.502	1	-13
413.844	1	-5
414.185	1	1
414.526	1	3
414.868	1	3
415.209	1	-8
415.550	1	-15
415.892	1	1
416.233	1	-8
416.575	1	0
416.916	1	-10
417.257	1	2
417.599	1	-1
417.940	1	1
418.281	1	1
418.623	1	-10
418.964	1	4
419.305	1	-5
419.647	1	1
419.988	1	-4
420.329	1	7
420.671	1	7
421.012	1	0
421.353	1	-3
421.695	1	-2
422.036	1	-11
422.377	1	5
422.718	1	-8
423.060	1	-3
423.401	1	-5
423.742	1	-1
424.084	1	-3
424.425	1	-6
424.766	1	2
425.107	1	0
425.449	1	5
425.790	1	-7
426.131	1	-4
426.472	1	-6
426.814	1	6
427.155	1	-10
427.496	1	10
427.837	1	4
428.179	1	-16
428.520	1	-9
428.861	1	1
429.202	1	3
429.544	1	-2
429.885	1	-7
430.226	1	-1
430.567	1	13
430.909	1	-7
431.250	1	-6
431.591	1	2
431.932	1	0
432.273	1	0
432.615	1	8
432.956	1	-1
433.297	1	5
433.638	1	1
433.979	1	3
434.320	1	-7
434.662	1	-1
435.003	1	4
435.344	1	7
435.685	1	3
436.026	1	-1
436.368	1	-7
436.709	1	-3
437.050	1	-2
437.391	1	0
437.732	1	1
438.073	1	3
438.414	1	0
438.756	1	8
439.097	1	-1
439.438	1	6
439.779	1	3
440.120	1	4
440.461	1	-11
440.802	1	5
441.143	1	3
441.485	1	-1
441.826	1	-5
442.167	1	-4
442.508	1	-6
442.849	1	0
443.190	1	-9
443.531	1	-5
443.872	1	-4
444.213	1	-9
444.554	1	-3
444.895	1	-8
445.237	1	-1
445.578	1	9
445.919	1	-1
446.260	1	-3
446.601	1	-9
446.942	1	8
447.283	1	-5
447.624	1	5
447.965	1	-8
448.306	1	-7
448.647	1	4
448.988	1	-8
449.329	1	-4
449.670	1	7
450.011	1	4
450.352	1	5
450.693	1	-2
451.034	1	11
451.375	1	10
451.716	1	8
452.057	1	4
452.398	1	3
452.739	1	-2
453.080	1	2
453.421	1	-4
453.762	1	7
454.103	1	-1
454.444	1	-3
454.785	1	-4
455.126	1	-7
455.467	1	1
455.808	1	0
456.149	1	-9
456.490	1	2
456.831	1	10
457.172	1	-4
457.513	1	10
457.854	1	1
458.195	1	-14
458.536	1	7
458.877	1	-3
459.218	1	-3
459.559	1	3
459.899	1	3
460.240	1	7
460.581	1	4
460.922	1	8
461.263	1	7
461.604	1	-18
461.945	1	4
462.286	1	8
462.627	1	-4
462.968	1	-5
463.309	1	2
463.649	1	-3
463.990	1	-6
464.331	1	1
464.672	1	-3
465.013	1	-4
465.354	1	-3
465.695	1	-1
466.036	1	-6
466.376	1	3
466.717	1	-4
467.058	1	7
467.399	1	-3
467.740	1	-4
468.081	1	-2
468.422	1	6
468.762	1	-5
469.103	1	-11
469.444	1	-7
469.785	1	0
470.126	1	6
470.467	1	-6
470.807	1	-3
471.148	1	-4
471.489	1	-4
471.830	1	8
472.171	1	-3
472.511	1	7
472.852	1	-6
473.193	1	-15
473.534	1	-8
473.875	1	-2
474.215	1	-12
474.556	1	-11
474.897	1	-2
475.238	1	-2
475.578	1	-6
475.919	1	4
476.260	1	3
476.601	1	-5
476.942	1	-1
477.282	1	-10
477.623	1	3
477.964	1	11
478.305	1	-4
478.645	1	-4
478.986	1	1
479.327	1	-5
479.667	1	1
480.008	1	6
480.349	1	2
480.690	1	-2
481.030	1	-3
481.371	1	-5
481.712	1	11
482.053	1	-1
482.393	1	-13
482.734	1	0
483.075	1	1
483.415	1	7
483.756	1	2
484.097	1	-6
484.437	1	-10
484.778	1	-10
485.119	1	-2
485.459	1	1
485.800	1	2
486.141	1	-5
486.481	1	3
486.822	1	-3
487.163	1	-7
487.503	1	-9
487.844	1	0
488.185	1	-7
488.525	1	-6
488.866	1	9
489.207	1	7
489.547	1	-3
489.888	1	-9
490.228	1	-6
490.569	1	11
490.910	1	-1
491.250	1	1
491.591	1	-11
491.932	1	-4
492.272	1	-3
492.613	1	2
492.953	1	-1
493.294	1	11
493.635	1	-8
493.975	1	-5
494.316	1	0
494.656	1	-8
494.997	1	0
495.337	1	2
495.678	1	0
496.019	1	4
496.359	1	5
496.700	1	-9
497.040	1	-1
497.381	1	-28
497.721	1	-14
498.062	1	2
498.403	1	4
498.743	1	-1
499.084	1	-13
499.424	1	11
499.765	1	-1
500.105	1	6
500.446	1	5
500.786	1	1
501.127	1	4
501.467	1	4
501.808	1	3
502.148	1	-2
502.489	1	4
502.829	1	-1
503.170	1	1
503.510	1	-2
503.851	1	-13
504.191	1	5
504.532	1	-10
504.872	1	-2
505.213	1	-11
505.553	1	1
505.894	1	-3
506.234	1	9
506.575	1	-7
506.915	1	-2
507.256	1	0
507.596	1	6
507.936	1	7
508.277	1	-3
508.617	1	9
508.958	1	-1
509.298	1	8
509.639	1	7
509.979	1	-3
510.319	1	4
510.660	1	-2
511.000	1	-2
511.341	1	-8
511.681	1	-9
512.022	1	-13
512.362	1	-5
512.702	1	-14
513.043	1	-3
513.383	1	-11
513.724	1	1
514.064	1	0
514.404	1	-1
514.745	1	-10
515.085	1	4
515.425	1	-13
515.766	1	6
516.106	1	-3
516.447	1	8
516.787	1	-5
517.127	1	5
517.468	1	-5
517.808	1	3
518.148	1	2
518.489	1	-7
518.829	1	-6
519.169	1	-9
519.510	1	-6
519.850	1	-9
520.190	1	2
520.531	1	4
520.871	1	-10
521.211	1	2
521.552	1	7
521.892	1	-10
522.232	1	-13
522.573	1	-2
522.913	1	5
523.253	1	0
523.593	1	-16
523.934	1	7
524.274	1	-1
524.614	1	-6
524.955	1	-6
525.295	1	-11
525.635	1	4
525.975	1	-13
526.316	1	-2
526.656	1	12
526.996	1	4
527.337	1	0
527.677	1	11
528.017	1	-1
528.357	1	7
528.698	1	-3
529.038	1	0
529.378	1	7
529.718	1	9
530.058	1	-6
530.399	1	2
530.739	1	-6
531.079	1	2
531.419	1	10
531.760	1	2
532.100	1	5
532.440	1	-4
532.780	1	-6
533.120	1	0
533.461	1	13
533.801	1	-4
534.141	1	3
534.481	1	-3
534.821	1	-2
535.162	1	2
535.502	1	1
535.842	1	0
536.182	1	-8
536.522	1	0
536.862	1	-2
537.203	1	3
537.543	1	0
537.883	1	7
538.223	1	3
538.563	1	-4
538.903	1	-4
539.243	1	-4
539.584	1	2
539.924	1	-1
540.264	1	3
540.604	1	9
540.944	1	-12
541.284	1	-1
541.624	1	-8
541.964	1	-4
542.305	1	-6
542.645	1	-4
542.985	1	-4
543.325	1	-7
543.665	1	2
544.005	1	-4
544.345	1	0
544.685	1	-5
545.025	1	-6
545.365	1	4
545.705	1	-4
546.045	1	2
546.386	1	-7
546.726	1	-7
547.066	1	-13
547.406	1	2
547.746	1	0
548.086	1	5
548.426	1	0
548.766	1	3
549.106	1	7
549.446	1	-3
549.786	1	3
550.126	1	-5
550.466	1	-6
550.806	1	6
551.146	1	-5
551.486	1	6
551.826	1	2
552.166	1	-3
552.506	1	-15
552.846	1	12
553.186	1	-1
553.526	1	-1
553.866	1	7
554.206	1	1
554.546	1	-15
554.886	1	-6
555.226	1	-10
555.566	1	6
555.906	1	0
556.246	1	3
556.586	1	9
556.926	1	-5
557.266	1	4
557.606	1	-19
557.946	1	2
558.286	1	-3
558.626	1	-2
558.966	1	-4
559.306	1	-9
559.646	1	-6
559.986	1	-5
560.325	1	-20
560.665	1	1
561.005	1	-7
561.345	1	-6
561.685	1	-6
562.025	1	-7
562.365	1	-6
562.705	1	5
563.045	1	0
563.385	1	1
563.725	1	-4
564.064	1	1
564.404	1	-10
564.744	1	-4
565.084	1	-3
565.424	1	-10
565.764	1	16
566.104	1	-7
566.444	1	-3
566.783	1	3
567.123	1	12
567.463	1	2
567.803	1	-1
568.143	1	-16
568.483	1	-9
568.823	1	11
569.162	1	8
569.502	1	1
569.842	1	-7
570.182	1	2
570.522	1	-4
570.862	1	2
571.201	1	2
571.541	1	-4
571.881	1	4
572.221	1	-4
572.561	1	-17
572.900	1	10
573.240	1	-16
573.580	1	5
573.920	1	-8
574.260	1	-7
574.599	1	-8
574.939	1	-9
575.279	1	5
575.619	1	7
575.959	1	-13
576.298	1	-9
576.638	1	9
576.978	1	1
577.318	1	9
577.657	1	-16
577.997	1	-9
578.337	1	2
578.677	1	-12
579.016	1	10
579.356	1	-14
579.696	1	0
580.036	1	-1
580.375	1	-6
580.715	1	7
581.055	1	4
581.394	1	-11
581.734	1	3
582.074	1	-3
582.414	1	-10
582.753	1	-7
583.093	1	1
583.433	1	-12
583.772	1	-4
584.112	1	-6
584.452	1	4
584.791	1	-10
585.131	1	2
585.471	1	-1
585.811	1	-5
586.150	1	-4
586.490	1	-5
586.830	1	-9
587.169	1	3
587.509	1	-4
587.849	1	8
588.188	1	5
588.528	1	-2
588.867	1	12
589.207	1	-3
589.547	1	-8
589.886	1	-8
590.226	1	11
590.566	1	-2
590.905	1	0
591.245	1	-11
591.585	1	-2
591.924	1	-9
592.264	1	-10
592.603	1	4
592.943	1	-11
593.283	1	-5
593.622	1	-4
593.962	1	3
594.301	1	8
594.641	1	0
594.981	1	-4
595.320	1	3
595.660	1	-1
595.999	1	-4
596.339	1	3
596.678	1	-4
597.018	1	5
597.358	1	5
597.697	1	-6
598.037	1	-7
598.376	1	9
598.716	1	-9
599.055	1	-4
599.395	1	-2
599.734	1	2
600.074	1	1
600.413	1	-3
600.753	1	2
601.092	1	-4
601.432	1	-7
601.771	1	2
602.111	1	-5
602.451	1	1
602.790	1	8
603.130	1	0
603.469	1	-5
603.809	1	4
604.148	1	-5
604.487	1	4
604.827	1	-12
605.166	1	-13
605.506	1	4
605.845	1	0
606.185	1	-4
606.524	1	-2
606.864	1	-5
607.203	1	15
607.543	1	-5
607.882	1	-9
608.222	1	7
608.561	1	-2
608.901	1	3
609.240	1	-2
609.579	1	4
609.919	1	-12
610.258	1	13
610.598	1	-9
610.937	1	-4
611.277	1	-1
611.616	1	-8
611.955	1	5
612.295	1	-7
612.634	1	-9
612.974	1	0
613.313	1	0
613.652	1	-5
613.992	1	4
614.331	1	4
614.671	1	2
615.010	1	-4
615.349	1	-4
615.689	1	-6
616.028	1	0
616.368	1	-9
616.707	1	-7
617.046	1	-1
617.386	1	0
617.725	1	-2
618.064	1	-8
618.404	1	5
618.743	1	-5
619.082	1	4
619.422	1	-4
619.761	1	3
620.100	1	1
620.440	1	1
620.779	1	-1
621.118	1	-2
621.458	1	2
621.797	1	-1
622.136	1	-2
622.476	1	4
622.815	1	-2
623.154	1	-5
623.494	1	-9
623.833	1	-6
624.172	1	3
624.511	1	1
624.851	1	-15
625.190	1	-4
625.529	1	2
625.869	1	1
626.208	1	-6
626.547	1	1
626.886	1	-2
627.226	1	2
627.565	1	9
627.904	1	-8
628.243	1	-16
628.583	1	-6
628.922	1	2
629.261	1	11
629.600	1	6
629.940	1	-8
630.279	1	-8
630.618	1	-3
630.957	1	1
631.297	1	-4
631.636	1	-2
631.975	1	2
632.314	1	9
632.653	1	-1
632.993	1	0
633.332	1	0
633.671	1	-5
634.010	1	-1
634.349	1	0
634.689	1	0
635.028	1	6
635.367	1	-5
635.706	1	-8
636.045	1	0
636.384	1	5
636.724	1	4
637.063	1	5
637.402	1	-3
637.741	1	1
638.080	1	-3
638.419	1	4
638.759	1	11
639.098	1	-3
639.437	1	-15
639.776	1	5
640.115	1	-3
640.454	1	7
640.793	1	10
641.132	1	5
641.472	1	3
641.811	1	-8
642.150	1	-8
642.489	1	-5
642.828	1	-4
643.167	1	7
643.506	1	-6
643.845	1	-2
644.184	1	8
644.524	1	-6
644.863	1	-12
645.202	1	0
645.541	1	-9
645.880	1	3
646.219	1	4
646.558	1	-8
646.897	1	-8
647.236	1	-1
647.575	1	3
647.914	1	-6
648.253	1	-9
648.592	1	-10
648.931	1	2
649.270	1	6
649.610	1	8
649.949	1	3
650.288	1	-10
650.627	1	-1
650.966	1	-13
651.305	1	-4
651.644	1	3
651.983	1	-1
652.322	1	-3
652.661	1	0
653.000	1	0
653.339	1	-1
653.678	1	3
654.017	1	-2
654.356	1	4
654.695	1	2
655.034	1	-1
655.373	1	2
655.712	1	-9
656.051	1	6
656.390	1	4
656.729	1	7
657.068	1	-4
657.406	1	2
657.745	1	-6
658.084	1	3
658.423	1	-7
658.762	1	-5
659.101	1	-2
659.440	1	4
659.779	1	-6
660.118	1	2
660.457	1	0
660.796	1	-2
661.135	1	0
661.474	1	6
661.813	1	-3
662.152	1	-7
662.491	1	10
662.829	1	-8
663.168	1	-7
663.507	1	-5
663.846	1	8
664.185	1	-1
664.524	1	-12
664.863	1	-6
665.202	1	-1
665.541	1	-1
665.879	1	0
666.218	1	-8
666.557	1	-3
666.896	1	-9
667.235	1	-1
667.574	1	-6
667.913	1	-3
668.251	1	-9
668.590	1	-5
668.929	1	5
669.268	1	-2
669.607	1	-15
669.946	1	8
670.285	1	2
670.623	1	7
670.962	1	10
671.301	1	-18
671.640	1	-8
671.979	1	8
672.317	1	-4
672.656	1	4
672.995	1	4
673.334	1	6
673.673	1	13
674.011	1	8
674.350	1	-14
674.689	1	-2
675.028	1	-9
675.367	1	1
675.705	1	-12
676.044	1	-7
676.383	1	-5
676.722	1	7
677.060	1	-1
677.399	1	1
677.738	1	-2
678.077	1	6
678.416	1	1
678.754	1	3
679.093	1	6
679.432	1	-8
679.771	1	-4
680.109	1	3
680.448	1	-2
680.787	1	-3
681.125	1	-1
681.464	1	-12
681.803	1	-15
682.142	1	2
682.480	1	0
682.819	1	-5
683.158	1	-1
683.496	1	-2
683.835	1	-1
684.174	1	-7
684.512	1	-2
684.851	1	1
685.190	1	6
685.529	1	0
685.867	1	-1
686.206	1	2
686.545	1	5
686.883	1	-9
687.222	1	1
687.561	1	-2
687.899	1	3
688.238	1	-7
688.577	1	-3
688.746	1	-5