File: Analysis/GaN_68K_200ms/GaN_sample E_spot4_UVVIS_68 K_200um_200 ms 2x2mm1_360.txt
340.368	1	3
340.710	1	-3
341.052	1	8
341.394	1	3
341.737	1	8
342.079	1	2
342.421	1	-5
342.763	1	6
343.105	1	5
343.447	1	5
343.789	1	2
344.131	1	2
344.473	1	-1
344.815	1	4
345.157	1	9
345.499	1	13
345.841	1	-2
346.183	1	0
346.526	1	6
346.868	1	-6
347.210	1	-5
347.552	1	-1
347.894	1	0
348.236	1	5
348.578	1	7
348.920	1	-1
349.262	1	3
349.604	1	5
349.946	1	9
350.288	1	2
350.630	1	-12
350.972	1	0
351.314	1	0
351.656	1	5
351.998	1	-1
352.340	1	5
352.682	1	0
353.024	1	-4
353.366	1	8
353.708	1	10
354.050	1	6
354.392	1	7
354.734	1	2
355.076	1	6
355.418	1	4
355.760	1	-4
356.102	1	1
356.444	1	6
356.785	1	15
357.127	1	7
357.469	1	-2
357.811	1	8
358.153	1	-1
358.495	1	4
358.837	1	1
359.179	1	2
359.521	1	-2
359.863	1	0
360.205	1	4
360.547	1	1
360.889	1	7
361.231	1	-1
361.572	1	1
361.914	1	-1
362.256	1	15
362.598	1	1
362.940	1	2
363.282	1	3
363.624	1	7
363.966	1	9
364.308	1	-3
364.649	1	8
364.991	1	12
365.333	1	12
365.675	1	2
366.017	1	10
366.359	1	4
366.701	1	-4
367.042	1	12
367.384	1	19
367.726	1	21
368.068	1	1
368.410	1	-6
368.752	1	2
369.093	1	4
369.435	1	9
369.777	1	2
370.119	1	3
370.461	1	-1
370.803	1	-5
371.144	1	6
371.486	1	15
371.828	1	3
372.170	1	5
372.512	1	8
372.853	1	4
373.195	1	-3
373.537	1	5
373.879	1	11
374.220	1	-4
374.562	1	3
374.904	1	7
375.246	1	2
375.588	1	-1
375.929	1	5
376.271	1	3
376.613	1	0
376.955	1	-5
377.296	1	9
377.638	1	1
377.980	1	4
378.321	1	14
378.663	1	-13
379.005	1	7
379.347	1	8
379.688	1	-6
380.030	1	-4
380.372	1	6
380.714	1	9
381.055	1	-4
381.397	1	-4
381.739	1	9
382.080	1	-13
382.422	1	12
382.764	1	-6
383.105	1	7
383.447	1	8
383.789	1	11
384.130	1	1
384.472	1	-6
384.814	1	11
385.156	1	14
385.497	1	8
385.839	1	7
386.180	1	13
386.522	1	6
386.864	1	-1
387.205	1	-7
387.547	1	-3
387.889	1	14
388.230	1	3
388.572	1	-1
388.914	1	21
389.255	1	7
389.597	1	-5
389.939	1	7
390.280	1	20
390.622	1	0
390.963	1	-4
391.305	1	11
391.647	1	13
391.988	1	6
392.330	1	12
392.671	1	11
393.013	1	7
393.355	1	16
393.696	1	4
394.038	1	2
394.379	1	0
394.721	1	7
395.062	1	8
395.404	1	15
395.746	1	10
396.087	1	1
396.429	1	6
396.770	1	14
397.112	1	1
397.453	1	-6
397.795	1	16
398.136	1	11
398.478	1	4
398.819	1	8
399.161	1	9
399.503	1	9
399.844	1	1
400.186	1	12
400.527	1	1
400.869	1	16
401.210	1	0
401.552	1	16
401.893	1	7
402.235	1	9
402.576	1	24
402.918	1	5
403.259	1	-9
403.601	1	-3
403.942	1	10
404.284	1	10
404.625	1	6
404.967	1	11
405.308	1	9
405.649	1	8
405.991	1	11
406.332	1	6
406.674	1	4
407.015	1	5
407.357	1	2
407.698	1	-2
408.040	1	-3
408.381	1	-2
408.722	1	5
409.064	1	8
409.405	1	18
409.747	1	-2
410.088	1	5
410.430	1	12
410.771	1	6
411.112	1	6
411.454	1	14
411.795	1	4
412.137	1	13
412.478	1	1
412.819	1	-1
413.161	1	-1
413.502	1	2
413.844	1	0
414.185	1	10
414.526	1	3
414.868	1	9
415.209	1	-3
415.550	1	-4
415.892	1	-2
416.233	1	-2
416.575	1	1
416.916	1	7
417.257	1	15
417.599	1	12
417.940	1	-4
418.281	1	2
418.623	1	6
418.964	1	4
419.305	1	14
419.647	1	1
419.988	1	6
420.329	1	6
420.671	1	8
421.012	1	8
421.353	1	10
421.695	1	7
422.036	1	-5
422.377	1	5
422.718	1	7
423.060	1	-2
423.401	1	0
423.742	1	8
424.084	1	3
424.425	1	-2
424.766	1	9
425.107	1	5
425.449	1	8
425.790	1	-1
426.131	1	3
426.472	1	14
426.814	1	15
427.155	1	-2
427.496	1	18
427.837	1	0
428.179	1	4
428.520	1	2
428.861	1	-2
429.202	1	-2
429.544	1	7
429.885	1	-2
430.226	1	2
430.567	1	13
430.909	1	-4
431.250	1	-3
431.591	1	11
431.932	1	0
432.273	1	-6
432.615	1	5
432.956	1	-2
433.297	1	12
433.638	1	4
433.979	1	4
434.320	1	7
434.662	1	0
435.003	1	10
435.344	1	11
435.685	1	12
436.026	1	-1
436.368	1	5
436.709	1	-1
437.050	1	7
437.391	1	5
437.732	1	0
438.073	1	4
438.414	1	4
438.756	1	0
439.097	1	13
439.438	1	3
439.779	1	-3
440.120	1	4
440.461	1	-7
440.802	1	5
441.143	1	11
441.485	1	-6
441.826	1	-6
442.167	1	2
442.508	1	13
442.849	1	2
443.190	1	-3
443.531	1	1
443.872	1	3
444.213	1	-5
444.554	1	-1
444.895	1	9
445.237	1	-6
445.578	1	13
445.919	1	0
446.260	1	8
446.601	1	-4
446.942	1	3
447.283	1	-7
447.624	1	7
447.965	1	-6
448.306	1	4
448.647	1	8
448.988	1	-9
449.329	1	1
449.670	1	19
450.011	1	0
450.352	1	7
450.693	1	-1
451.034	1	11
451.375	1	13
451.716	1	0
452.057	1	5
452.398	1	4
452.739	1	1
453.080	1	9
453.421	1	-1
453.762	1	10
454.103	1	11
454.444	1	19
454.785	1	-10
455.126	1	0
455.467	1	10
455.808	1	5
456.149	1	-1
456.490	1	-1
456.831	1	7
457.172	1	0
457.513	1	11
457.854	1	5
458.195	1	-2
458.536	1	8
458.877	1	-4
459.218	1	3
459.559	1	10
459.899	1	10
460.240	1	9
460.581	1	1
460.922	1	4
461.263	1	13
461.604	1	3
461.945	1	8
462.286	1	13
462.627	1	2
462.968	1	3
463.309	1	1
463.649	1	10
463.990	1	7
464.331	1	-2
464.672	1	2
465.013	1	-9
465.354	1	2
465.695	1	3
466.036	1	3
466.376	1	-2
466.717	1	-6
467.058	1	13
467.399	1	3
467.740	1	8
468.081	1	2
468.422	1	11
468.762	1	-3
469.103	1	-4
469.444	1	-1
469.785	1	7
470.126	1	6
470.467	1	-2
470.807	1	11
471.148	1	-2
471.489	1	4
471.830	1	21
472.171	1	0
472.511	1	14
472.852	1	-1
473.193	1	-8
473.534	1	4
473.875	1	11
474.215	1	-11
474.556	1	1
474.897	1	8
475.238	1	4
475.578	1	2
475.919	1	8
476.260	1	2
476.601	1	-11
476.942	1	2
477.282	1	-12
477.623	1	11
477.964	1	13
478.305	1	0
478.645	1	3
478.986	1	16
479.327	1	-3
479.667	1	2
480.008	1	10
480.349	1	-3
480.690	1	3
481.030	1	-2
481.371	1	2
481.712	1	12
482.053	1	6
482.393	1	-10
482.734	1	12
483.075	1	13
483.415	1	7
483.756	1	3
484.097	1	-14
484.437	1	-9
484.778	1	2
485.119	1	11
485.459	1	2
485.800	1	-1
486.141	1	-5
486.481	1	1
486.822	1	0
487.163	1	-11
487.503	1	-10
487.844	1	1
488.185	1	1
488.525	1	7
488.866	1	11
489.207	1	10
489.547	1	-5
489.888	1	-4
490.228	1	-8
490.569	1	12
490.910	1	6
491.250	1	-2
491.591	1	-3
491.932	1	11
492.272	1	11
492.613	1	3
492.953	1	2
493.294	1	5
493.635	1	6
493.975	1	-2
494.316	1	13
494.656	1	5
494.997	1	-9
495.337	1	12
495.678	1	16
496.019	1	1
496.359	1	5
496.700	1	-5
497.040	1	-2
497.381	1	-7
497.721	1	5
498.062	1	3
498.403	1	5
498.743	1	3
499.084	1	-6
499.424	1	10
499.765	1	7
500.105	1	2
500.446	1	8
500.786	1	7
501.127	1	17
501.467	1	-3
501.808	1	1
502.148	1	0
502.489	1	6
502.829	1	5
503.170	1	8
503.510	1	1
503.851	1	-11
504.191	1	8
504.532	1	0
504.872	1	-1
505.213	1	4
505.553	1	8
505.894	1	2
506.234	1	11
506.575	1	6
506.915	1	-1
507.256	1	4
507.596	1	0
507.936	1	11
508.277	1	-2
508.617	1	13
508.958	1	15
509.298	1	23
509.639	1	11
509.979	1	0
510.319	1	10
510.660	1	12
511.000	1	7
511.341	1	-2
511.681	1	4
512.022	1	-6
512.362	1	8
512.702	1	-4
513.043	1	14
513.383	1	-7
513.724	1	5
514.064	1	13
514.404	1	6
514.745	1	1
515.085	1	9
515.425	1	-7
515.766	1	2
516.106	1	-5
516.447	1	-1
516.787	1	1
517.127	1	9
517.468	1	3
517.808	1	4
518.148	1	2
518.489	1	6
518.829	1	-2
519.169	1	11
519.510	1	7
519.850	1	6
520.190	1	-3
520.531	1	7
520.871	1	-2
521.211	1	11
521.552	1	3
521.892	1	4
522.232	1	-2
522.573	1	7
522.913	1	8
523.253	1	4
523.593	1	-14
523.934	1	5
524.274	1	-2
524.614	1	6
524.955	1	-4
525.295	1	11
525.635	1	4
525.975	1	2
526.316	1	-4
526.656	1	19
526.996	1	13
527.337	1	2
527.677	1	16
528.017	1	-10
528.357	1	8
528.698	1	0
529.038	1	10
529.378	1	-1
529.718	1	5
530.058	1	1
530.399	1	5
530.739	1	16
531.079	1	5
531.419	1	6
531.760	1	0
532.100	1	4
532.440	1	0
532.780	1	3
533.120	1	2
533.461	1	11
533.801	1	7
534.141	1	5
534.481	1	10
534.821	1	10
535.162	1	4
535.502	1	3
535.842	1	6
536.182	1	9
536.522	1	4
536.862	1	3
537.203	1	12
537.543	1	7
537.883	1	9
538.223	1	10
538.563	1	9
538.903	1	1
539.243	1	7
539.584	1	3
539.924	1	10
540.264	1	4
540.604	1	5
540.944	1	1
541.284	1	3
541.624	1	4
541.964	1	5
542.305	1	-4
542.645	1	3
542.985	1	-1
543.325	1	1
543.665	1	6
544.005	1	9
544.345	1	-14
544.685	1	10
545.025	1	0
545.365	1	15
545.705	1	4
546.045	1	12
546.386	1	6
546.726	1	3
547.066	1	-2
547.406	1	9
547.746	1	9
548.086	1	6
548.426	1	1
548.766	1	11
549.106	1	13
549.446	1	7
549.786	1	8
550.126	1	4
550.466	1	-3
550.806	1	12
551.146	1	0
551.486	1	9
551.826	1	6
552.166	1	5
552.506	1	-1
552.846	1	7
553.186	1	0
553.526	1	0
553.866	1	10
554.206	1	15
554.546	1	-6
554.886	1	9
555.226	1	3
555.566	1	11
555.906	1	16
556.246	1	5
556.586	1	8
556.926	1	6
557.266	1	10
557.606	1	-5
557.946	1	15
558.286	1	4
558.626	1	-1
558.966	1	7
559.306	1	-5
559.646	1	3
559.986	1	-5
560.325	1	-12
560.665	1	6
561.005	1	6
561.345	1	-14
561.685	1	-4
562.025	1	0
562.365	1	8
562.705	1	9
563.045	1	6
563.385	1	-3
563.725	1	2
564.064	1	7
564.404	1	-5
564.744	1	9
565.084	1	-4
565.424	1	10
565.764	1	10
566.104	1	2
566.444	1	5
566.783	1	0
567.123	1	15
567.463	1	5
567.803	1	-6
568.143	1	-5
568.483	1	1
568.823	1	12
569.162	1	6
569.502	1	1
569.842	1	-6
570.182	1	-5
570.522	1	5
570.862	1	7
571.201	1	6
571.541	1	-3
571.881	1	10
572.221	1	-1
572.561	1	-9
572.900	1	8
573.240	1	2
573.580	1	8
573.920	1	11
574.260	1	1
574.599	1	-2
574.939	1	-3
575.279	1	8
575.619	1	2
575.959	1	-3
576.298	1	3
576.638	1	3
576.978	1	4
577.318	1	9
577.657	1	-8
577.997	1	-11
578.337	1	1
578.677	1	2
579.016	1	16
579.356	1	-2
579.696	1	11
580.036	1	3
580.375	1	1
580.715	1	14
581.055	1	5
581.394	1	-5
581.734	1	6
582.074	1	-6
582.414	1	5
582.753	1	7
583.093	1	6
583.433	1	-3
583.772	1	6
584.112	1	11
584.452	1	5
584.791	1	-7
585.131	1	-5
585.471	1	1
585.811	1	1
586.150	1	1
586.490	1	-8
586.830	1	-1
587.169	1	5
587.509	1	9
587.849	1	9
588.188	1	-7
588.528	1	12
588.867	1	7
589.207	1	1
589.547	1	4
589.886	1	-12
590.226	1	3
590.566	1	-1
590.905	1	9
591.245	1	-6
591.585	1	-1
591.924	1	-8
592.264	1	-10
592.603	1	-3
592.943	1	-2
593.283	1	4
593.622	1	9
593.962	1	6
594.301	1	13
594.641	1	-4
594.981	1	3
595.320	1	3
595.660	1	5
595.999	1	2
596.339	1	10
596.678	1	6
597.018	1	-1
597.358	1	-6
597.697	1	-10
598.037	1	7
598.376	1	5
598.716	1	-17
599.055	1	4
599.395	1	8
599.734	1	-4
600.074	1	-4
600.413	1	-3
600.753	1	10
601.092	1	-12
601.432	1	-7
601.771	1	16
602.111	1	-2
602.451	1	-1
602.790	1	2
603.130	1	11
603.469	1	1
603.809	1	15
604.148	1	2
604.487	1	8
604.827	1	-14
605.166	1	1
605.506	1	8
605.845	1	1
606.185	1	8
606.524	1	-4
606.864	1	5
607.203	1	3
607.543	1	-5
607.882	1	-2
608.222	1	5
608.561	1	8
608.901	1	14
609.240	1	8
609.579	1	0
609.919	1	-2
610.258	1	5
610.598	1	-5
610.937	1	2
611.277	1	3
611.616	1	-6
611.955	1	7
612.295	1	8
612.634	1	0
612.974	1	2
613.313	1	3
613.652	1	-3
613.992	1	4
614.331	1	2
614.671	1	1
615.010	1	6
615.349	1	-3
615.689	1	5
616.028	1	0
616.368	1	-5
616.707	1	-6
617.046	1	3
617.386	1	2
617.725	1	5
618.064	1	2
618.404	1	5
618.743	1	-4
619.082	1	-5
619.422	1	3
619.761	1	10
620.100	1	-2
620.440	1	-1
620.779	1	-4
621.118	1	-2
621.458	1	12
621.797	1	5
622.136	1	8
622.476	1	6
622.815	1	-2
623.154	1	11
623.494	1	10
623.833	1	2
624.172	1	21
624.511	1	1
624.851	1	-6
625.190	1	0
625.529	1	-2
625.869	1	8
626.208	1	0
626.547	1	0
626.886	1	-4
627.226	1	9
627.565	1	11
627.904	1	2
628.243	1	5
628.583	1	-5
628.922	1	-2
629.261	1	9
629.600	1	4
629.940	1	-3
630.279	1	-8
630.618	1	-5
630.957	1	0
631.297	1	3
631.636	1	3
631.975	1	8
632.314	1	6
632.653	1	-1
632.993	1	8
633.332	1	-2
633.671	1	4
634.010	1	-1
634.349	1	2
634.689	1	13
635.028	1	-6
635.367	1	4
635.706	1	-4
636.045	1	6
636.384	1	3
636.724	1	-1
637.063	1	5
637.402	1	13
637.741	1	15
638.080	1	-6
638.419	1	10
638.759	1	10
639.098	1	12
639.437	1	4
639.776	1	5
640.115	1	-1
640.454	1	15
640.793	1	8
641.132	1	12
641.472	1	0
641.811	1	3
642.150	1	0
642.489	1	2
642.828	1	7
643.167	1	12
643.506	1	3
643.845	1	10
644.184	1	1
644.524	1	0
644.863	1	-11
645.202	1	4
645.541	1	-12
645.880	1	2
646.219	1	0
646.558	1	-4
646.897	1	1
647.236	1	-2
647.575	1	12
647.914	1	-1
648.253	1	8
648.592	1	-5
648.931	1	13
649.270	1	4
649.610	1	1
649.949	1	3
650.288	1	-3
650.627	1	4
650.966	1	-9
651.305	1	-3
651.644	1	3
651.983	1	1
652.322	1	-1
652.661	1	2
653.000	1	1
653.339	1	8
653.678	1	-3
654.017	1	3
654.356	1	5
654.695	1	7
655.034	1	12
655.373	1	-1
655.712	1	2
656.051	1	7
656.390	1	1
656.729	1	15
657.068	1	6
657.406	1	-1
657.745	1	-8
658.084	1	11
658.423	1	0
658.762	1	-4
659.101	1	-8
659.440	1	17
659.779	1	5
660.118	1	18
660.457	1	-1
660.796	1	1
661.135	1	-1
661.474	1	-4
661.813	1	8
662.152	1	6
662.491	1	5
662.829	1	-10
663.168	1	-6
663.507	1	3
663.846	1	11
664.185	1	-5
664.524	1	-8
664.863	1	1
665.202	1	-3
665.541	1	4
665.879	1	-6
666.218	1	2
666.557	1	6
666.896	1	6
667.235	1	5
667.574	1	2
667.913	1	6
668.251	1	-13
668.590	1	-3
668.929	1	17
669.268	1	1
669.607	1	-9
669.946	1	6
670.285	1	8
670.623	1	5
670.962	1	1
671.301	1	-10
671.640	1	-9
671.979	1	4
672.317	1	-6
672.656	1	10
672.995	1	0
673.334	1	10
673.673	1	15
674.011	1	8
674.350	1	6
674.689	1	3
675.028	1	-2
675.367	1	3
675.705	1	-8
676.044	1	-6
676.383	1	-11
676.722	1	-1
677.060	1	0
677.399	1	-1
677.738	1	2
678.077	1	7
678.416	1	-5
678.754	1	3
679.093	1	-3
679.432	1	2
679.771	1	6
680.109	1	14
680.448	1	4
680.787	1	-3
681.125	1	6
681.464	1	1
681.803	1	-4
682.142	1	11
682.480	1	5
682.819	1	6
683.158	1	1
683.496	1	-7
683.835	1	-8
684.174	1	-2
684.512	1	4
684.851	1	-5
685.190	1	9
685.529	1	-1
685.867	1	-2
686.206	1	3
686.545	1	14
686.883	1	-3
687.222	1	-4
687.561	1	4
687.899	1	-3
688.238	1	1
688.577	1	-5
688.746	1	3