File: Analysis/GaN_68K_200ms/GaN_sample E_spot4_UVVIS_68 K_200um_200 ms 2x2mm1_328.txt
340.368	1	0
340.710	1	-9
341.052	1	-3
341.394	1	-4
341.737	1	9
342.079	1	-2
342.421	1	-1
342.763	1	5
343.105	1	11
343.447	1	8
343.789	1	-1
344.131	1	1
344.473	1	-2
344.815	1	2
345.157	1	17
345.499	1	7
345.841	1	5
346.183	1	6
346.526	1	9
346.868	1	1
347.210	1	-4
347.552	1	-9
347.894	1	-2
348.236	1	12
348.578	1	6
348.920	1	14
349.262	1	-4
349.604	1	4
349.946	1	8
350.288	1	9
350.630	1	-1
350.972	1	-2
351.314	1	-8
351.656	1	-4
351.998	1	-7
352.340	1	2
352.682	1	2
353.024	1	-2
353.366	1	-1
353.708	1	1
354.050	1	1
354.392	1	4
354.734	1	1
355.076	1	-3
355.418	1	-4
355.760	1	9
356.102	1	-1
356.444	1	7
356.785	1	16
357.127	1	-2
357.469	1	-7
357.811	1	20
358.153	1	1
358.495	1	10
358.837	1	3
359.179	1	7
359.521	1	-1
359.863	1	3
360.205	1	4
360.547	1	6
360.889	1	3
361.231	1	7
361.572	1	-7
361.914	1	7
362.256	1	10
362.598	1	10
362.940	1	5
363.282	1	6
363.624	1	5
363.966	1	2
364.308	1	2
364.649	1	6
364.991	1	2
365.333	1	22
365.675	1	9
366.017	1	10
366.359	1	10
366.701	1	-7
367.042	1	14
367.384	1	13
367.726	1	13
368.068	1	-2
368.410	1	4
368.752	1	-10
369.093	1	10
369.435	1	8
369.777	1	6
370.119	1	1
370.461	1	-8
370.803	1	2
371.144	1	7
371.486	1	14
371.828	1	4
372.170	1	12
372.512	1	1
372.853	1	11
373.195	1	-4
373.537	1	0
373.879	1	9
374.220	1	1
374.562	1	-1
374.904	1	15
375.246	1	3
375.588	1	7
375.929	1	4
376.271	1	2
376.613	1	-3
376.955	1	-3
377.296	1	3
377.638	1	-4
377.980	1	15
378.321	1	5
378.663	1	1
379.005	1	11
379.347	1	4
379.688	1	-5
380.030	1	-1
380.372	1	9
380.714	1	6
381.055	1	4
381.397	1	-6
381.739	1	12
382.080	1	-11
382.422	1	15
382.764	1	4
383.105	1	-5
383.447	1	9
383.789	1	7
384.130	1	-1
384.472	1	4
384.814	1	9
385.156	1	23
385.497	1	17
385.839	1	14
386.180	1	13
386.522	1	16
386.864	1	9
387.205	1	-3
387.547	1	7
387.889	1	14
388.230	1	12
388.572	1	9
388.914	1	10
389.255	1	22
389.597	1	4
389.939	1	14
390.280	1	15
390.622	1	4
390.963	1	17
391.305	1	22
391.647	1	11
391.988	1	16
392.330	1	12
392.671	1	13
393.013	1	6
393.355	1	21
393.696	1	3
394.038	1	3
394.379	1	3
394.721	1	5
395.062	1	0
395.404	1	17
395.746	1	12
396.087	1	14
396.429	1	10
396.770	1	16
397.112	1	7
397.453	1	6
397.795	1	15
398.136	1	13
398.478	1	10
398.819	1	14
399.161	1	8
399.503	1	8
399.844	1	12
400.186	1	18
400.527	1	5
400.869	1	18
401.210	1	3
401.552	1	18
401.893	1	5
402.235	1	19
402.576	1	17
402.918	1	6
403.259	1	-2
403.601	1	4
403.942	1	7
404.284	1	8
404.625	1	3
404.967	1	17
405.308	1	8
405.649	1	7
405.991	1	14
406.332	1	2
406.674	1	10
407.015	1	2
407.357	1	1
407.698	1	-5
408.040	1	3
408.381	1	8
408.722	1	1
409.064	1	12
409.405	1	3
409.747	1	10
410.088	1	4
410.430	1	11
410.771	1	12
411.112	1	13
411.454	1	14
411.795	1	4
412.137	1	16
412.478	1	16
412.819	1	-4
413.161	1	-1
413.502	1	-2
413.844	1	0
414.185	1	5
414.526	1	1
414.868	1	12
415.209	1	8
415.550	1	-1
415.892	1	13
416.233	1	2
416.575	1	11
416.916	1	1
417.257	1	4
417.599	1	8
417.940	1	-3
418.281	1	10
418.623	1	0
418.964	1	-5
419.305	1	0
419.647	1	7
419.988	1	1
420.329	1	3
420.671	1	8
421.012	1	11
421.353	1	8
421.695	1	-1
422.036	1	1
422.377	1	12
422.718	1	3
423.060	1	2
423.401	1	11
423.742	1	7
424.084	1	-2
424.425	1	5
424.766	1	4
425.107	1	0
425.449	1	9
425.790	1	2
426.131	1	6
426.472	1	1
426.814	1	14
427.155	1	0
427.496	1	10
427.837	1	0
428.179	1	0
428.520	1	-2
428.861	1	-3
429.202	1	15
429.544	1	-2
429.885	1	-3
430.226	1	2
430.567	1	9
430.909	1	-5
431.250	1	-5
431.591	1	6
431.932	1	4
432.273	1	-7
432.615	1	10
432.956	1	-3
433.297	1	12
433.638	1	5
433.979	1	-1
434.320	1	6
434.662	1	-3
435.003	1	2
435.344	1	4
435.685	1	14
436.026	1	13
436.368	1	5
436.709	1	-3
437.050	1	3
437.391	1	2
437.732	1	9
438.073	1	8
438.414	1	-7
438.756	1	15
439.097	1	1
439.438	1	13
439.779	1	-1
440.120	1	-2
440.461	1	1
440.802	1	5
441.143	1	7
441.485	1	-2
441.826	1	5
442.167	1	4
442.508	1	-5
442.849	1	4
443.190	1	-5
443.531	1	3
443.872	1	-5
444.213	1	0
444.554	1	6
444.895	1	4
445.237	1	-6
445.578	1	11
445.919	1	2
446.260	1	8
446.601	1	-2
446.942	1	8
447.283	1	5
447.624	1	7
447.965	1	-2
448.306	1	0
448.647	1	11
448.988	1	-10
449.329	1	5
449.670	1	10
450.011	1	9
450.352	1	10
450.693	1	7
451.034	1	5
451.375	1	7
451.716	1	11
452.057	1	13
452.398	1	7
452.739	1	6
453.080	1	15
453.421	1	6
453.762	1	13
454.103	1	6
454.444	1	15
454.785	1	-9
455.126	1	4
455.467	1	3
455.808	1	8
456.149	1	-11
456.490	1	-4
456.831	1	9
457.172	1	-11
457.513	1	-3
457.854	1	6
458.195	1	-4
458.536	1	9
458.877	1	-11
459.218	1	6
459.559	1	7
459.899	1	10
460.240	1	-3
460.581	1	4
460.922	1	-3
461.263	1	5
461.604	1	0
461.945	1	8
462.286	1	9
462.627	1	-8
462.968	1	-4
463.309	1	6
463.649	1	0
463.990	1	2
464.331	1	-1
464.672	1	-1
465.013	1	-5
465.354	1	8
465.695	1	-2
466.036	1	-1
466.376	1	-3
466.717	1	-11
467.058	1	14
467.399	1	6
467.740	1	4
468.081	1	7
468.422	1	10
468.762	1	-5
469.103	1	-8
469.444	1	3
469.785	1	10
470.126	1	8
470.467	1	-10
470.807	1	0
471.148	1	1
471.489	1	6
471.830	1	20
472.171	1	8
472.511	1	11
472.852	1	0
473.193	1	-3
473.534	1	8
473.875	1	2
474.215	1	-7
474.556	1	-2
474.897	1	-1
475.238	1	7
475.578	1	2
475.919	1	4
476.260	1	-2
476.601	1	5
476.942	1	1
477.282	1	-11
477.623	1	3
477.964	1	16
478.305	1	5
478.645	1	3
478.986	1	-2
479.327	1	-11
479.667	1	-6
480.008	1	10
480.349	1	-3
480.690	1	5
481.030	1	-7
481.371	1	1
481.712	1	3
482.053	1	15
482.393	1	-10
482.734	1	2
483.075	1	8
483.415	1	10
483.756	1	11
484.097	1	-7
484.437	1	-15
484.778	1	9
485.119	1	5
485.459	1	7
485.800	1	-5
486.141	1	-4
486.481	1	9
486.822	1	5
487.163	1	-2
487.503	1	-15
487.844	1	3
488.185	1	-3
488.525	1	-2
488.866	1	7
489.207	1	9
489.547	1	7
489.888	1	6
490.228	1	-7
490.569	1	5
490.910	1	1
491.250	1	6
491.591	1	-3
491.932	1	16
492.272	1	0
492.613	1	7
492.953	1	-3
493.294	1	13
493.635	1	-3
493.975	1	10
494.316	1	5
494.656	1	-3
494.997	1	0
495.337	1	10
495.678	1	9
496.019	1	-3
496.359	1	-2
496.700	1	3
497.040	1	0
497.381	1	-15
497.721	1	5
498.062	1	-4
498.403	1	4
498.743	1	4
499.084	1	-7
499.424	1	14
499.765	1	7
500.105	1	11
500.446	1	10
500.786	1	1
501.127	1	8
501.467	1	14
501.808	1	-9
502.148	1	19
502.489	1	11
502.829	1	7
503.170	1	1
503.510	1	2
503.851	1	-8
504.191	1	5
504.532	1	-7
504.872	1	-2
505.213	1	3
505.553	1	2
505.894	1	11
506.234	1	11
506.575	1	7
506.915	1	-2
507.256	1	-3
507.596	1	7
507.936	1	3
508.277	1	5
508.617	1	13
508.958	1	18
509.298	1	14
509.639	1	14
509.979	1	1
510.319	1	0
510.660	1	11
511.000	1	12
511.341	1	-10
511.681	1	5
512.022	1	-2
512.362	1	1
512.702	1	-7
513.043	1	1
513.383	1	1
513.724	1	9
514.064	1	5
514.404	1	5
514.745	1	2
515.085	1	2
515.425	1	6
515.766	1	8
516.106	1	-2
516.447	1	7
516.787	1	2
517.127	1	5
517.468	1	-1
517.808	1	3
518.148	1	2
518.489	1	4
518.829	1	-7
519.169	1	14
519.510	1	8
519.850	1	2
520.190	1	2
520.531	1	5
520.871	1	-1
521.211	1	2
521.552	1	-1
521.892	1	-6
522.232	1	0
522.573	1	5
522.913	1	5
523.253	1	16
523.593	1	-6
523.934	1	11
524.274	1	-8
524.614	1	6
524.955	1	5
525.295	1	5
525.635	1	15
525.975	1	-2
526.316	1	-3
526.656	1	18
526.996	1	11
527.337	1	10
527.677	1	18
528.017	1	-9
528.357	1	9
528.698	1	7
529.038	1	8
529.378	1	6
529.718	1	0
530.058	1	7
530.399	1	14
530.739	1	3
531.079	1	10
531.419	1	21
531.760	1	7
532.100	1	10
532.440	1	5
532.780	1	5
533.120	1	1
533.461	1	13
533.801	1	5
534.141	1	8
534.481	1	11
534.821	1	3
535.162	1	11
535.502	1	10
535.842	1	2
536.182	1	9
536.522	1	15
536.862	1	8
537.203	1	6
537.543	1	7
537.883	1	8
538.223	1	0
538.563	1	-2
538.903	1	5
539.243	1	2
539.584	1	13
539.924	1	0
540.264	1	1
540.604	1	11
540.944	1	9
541.284	1	3
541.624	1	1
541.964	1	7
542.305	1	-2
542.645	1	-1
542.985	1	-6
543.325	1	3
543.665	1	7
544.005	1	6
544.345	1	2
544.685	1	12
545.025	1	3
545.365	1	8
545.705	1	12
546.045	1	7
546.386	1	8
546.726	1	-1
547.066	1	-1
547.406	1	15
547.746	1	4
548.086	1	13
548.426	1	8
548.766	1	8
549.106	1	9
549.446	1	2
549.786	1	8
550.126	1	4
550.466	1	6
550.806	1	3
551.146	1	1
551.486	1	15
551.826	1	6
552.166	1	2
552.506	1	3
552.846	1	12
553.186	1	13
553.526	1	4
553.866	1	8
554.206	1	1
554.546	1	3
554.886	1	9
555.226	1	6
555.566	1	12
555.906	1	14
556.246	1	2
556.586	1	-2
556.926	1	9
557.266	1	13
557.606	1	0
557.946	1	9
558.286	1	10
558.626	1	3
558.966	1	0
559.306	1	3
559.646	1	-2
559.986	1	-2
560.325	1	-9
560.665	1	13
561.005	1	4
561.345	1	5
561.685	1	-2
562.025	1	0
562.365	1	10
562.705	1	11
563.045	1	10
563.385	1	-9
563.725	1	6
564.064	1	14
564.404	1	5
564.744	1	10
565.084	1	-2
565.424	1	-5
565.764	1	17
566.104	1	0
566.444	1	4
566.783	1	1
567.123	1	15
567.463	1	1
567.803	1	-6
568.143	1	-11
568.483	1	-5
568.823	1	14
569.162	1	7
569.502	1	-6
569.842	1	3
570.182	1	-5
570.522	1	11
570.862	1	12
571.201	1	10
571.541	1	-1
571.881	1	8
572.221	1	-5
572.561	1	-7
572.900	1	12
573.240	1	-3
573.580	1	12
573.920	1	3
574.260	1	6
574.599	1	2
574.939	1	0
575.279	1	5
575.619	1	9
575.959	1	-2
576.298	1	6
576.638	1	7
576.978	1	6
577.318	1	8
577.657	1	-7
577.997	1	-11
578.337	1	4
578.677	1	3
579.016	1	12
579.356	1	-1
579.696	1	10
580.036	1	-1
580.375	1	3
580.715	1	4
581.055	1	3
581.394	1	0
581.734	1	6
582.074	1	-3
582.414	1	6
582.753	1	1
583.093	1	-1
583.433	1	-1
583.772	1	2
584.112	1	6
584.452	1	4
584.791	1	8
585.131	1	-4
585.471	1	-3
585.811	1	-15
586.150	1	11
586.490	1	-8
586.830	1	-1
587.169	1	2
587.509	1	0
587.849	1	8
588.188	1	-10
588.528	1	12
588.867	1	11
589.207	1	-11
589.547	1	0
589.886	1	-3
590.226	1	2
590.566	1	-10
590.905	1	4
591.245	1	1
591.585	1	-5
591.924	1	-10
592.264	1	3
592.603	1	2
592.943	1	-3
593.283	1	1
593.622	1	-4
593.962	1	8
594.301	1	12
594.641	1	-1
594.981	1	1
595.320	1	10
595.660	1	3
595.999	1	11
596.339	1	7
596.678	1	8
597.018	1	6
597.358	1	3
597.697	1	-4
598.037	1	7
598.376	1	5
598.716	1	-8
599.055	1	5
599.395	1	8
599.734	1	8
600.074	1	-2
600.413	1	-1
600.753	1	7
601.092	1	-13
601.432	1	-7
601.771	1	20
602.111	1	-1
602.451	1	9
602.790	1	1
603.130	1	6
603.469	1	6
603.809	1	-1
604.148	1	-2
604.487	1	6
604.827	1	-11
605.166	1	1
605.506	1	3
605.845	1	4
606.185	1	-3
606.524	1	0
606.864	1	-7
607.203	1	7
607.543	1	-6
607.882	1	3
608.222	1	5
608.561	1	9
608.901	1	7
609.240	1	5
609.579	1	-2
609.919	1	-13
610.258	1	10
610.598	1	10
610.937	1	9
611.277	1	2
611.616	1	-3
611.955	1	7
612.295	1	-6
612.634	1	6
612.974	1	8
613.313	1	6
613.652	1	6
613.992	1	4
614.331	1	0
614.671	1	-2
615.010	1	1
615.349	1	8
615.689	1	4
616.028	1	3
616.368	1	8
616.707	1	-7
617.046	1	0
617.386	1	-3
617.725	1	2
618.064	1	6
618.404	1	2
618.743	1	3
619.082	1	-5
619.422	1	0
619.761	1	2
620.100	1	9
620.440	1	-6
620.779	1	-5
621.118	1	4
621.458	1	-1
621.797	1	-1
622.136	1	8
622.476	1	4
622.815	1	0
623.154	1	0
623.494	1	12
623.833	1	-4
624.172	1	16
624.511	1	2
624.851	1	-8
625.190	1	3
625.529	1	6
625.869	1	11
626.208	1	-3
626.547	1	7
626.886	1	-2
627.226	1	0
627.565	1	8
627.904	1	10
628.243	1	-7
628.583	1	0
628.922	1	3
629.261	1	6
629.600	1	14
629.940	1	7
630.279	1	-5
630.618	1	-5
630.957	1	0
631.297	1	-5
631.636	1	-1
631.975	1	7
632.314	1	15
632.653	1	0
632.993	1	8
633.332	1	4
633.671	1	5
634.010	1	3
634.349	1	10
634.689	1	6
635.028	1	-4
635.367	1	3
635.706	1	-4
636.045	1	-3
636.384	1	3
636.724	1	-2
637.063	1	12
637.402	1	11
637.741	1	12
638.080	1	3
638.419	1	-1
638.759	1	7
639.098	1	0
639.437	1	-5
639.776	1	1
640.115	1	4
640.454	1	12
640.793	1	13
641.132	1	18
641.472	1	-5
641.811	1	5
642.150	1	6
642.489	1	-1
642.828	1	0
643.167	1	7
643.506	1	-5
643.845	1	7
644.184	1	9
644.524	1	-5
644.863	1	-9
645.202	1	-1
645.541	1	-7
645.880	1	6
646.219	1	3
646.558	1	-6
646.897	1	4
647.236	1	4
647.575	1	9
647.914	1	0
648.253	1	9
648.592	1	11
648.931	1	8
649.270	1	12
649.610	1	15
649.949	1	-3
650.288	1	-7
650.627	1	0
650.966	1	2
651.305	1	-4
651.644	1	-1
651.983	1	6
652.322	1	10
652.661	1	4
653.000	1	-1
653.339	1	7
653.678	1	3
654.017	1	5
654.356	1	6
654.695	1	4
655.034	1	7
655.373	1	2
655.712	1	-6
656.051	1	13
656.390	1	0
656.729	1	-4
657.068	1	3
657.406	1	-2
657.745	1	0
658.084	1	9
658.423	1	0
658.762	1	-7
659.101	1	3
659.440	1	14
659.779	1	0
660.118	1	10
660.457	1	-5
660.796	1	-9
661.135	1	4
661.474	1	-4
661.813	1	5
662.152	1	-2
662.491	1	5
662.829	1	-1
663.168	1	-4
663.507	1	3
663.846	1	8
664.185	1	0
664.524	1	-7
664.863	1	4
665.202	1	-10
665.541	1	4
665.879	1	3
666.218	1	-5
666.557	1	9
666.896	1	5
667.235	1	1
667.574	1	6
667.913	1	2
668.251	1	6
668.590	1	-8
668.929	1	7
669.268	1	1
669.607	1	-9
669.946	1	9
670.285	1	2
670.623	1	5
670.962	1	-3
671.301	1	-10
671.640	1	-9
671.979	1	16
672.317	1	1
672.656	1	4
672.995	1	-1
673.334	1	6
673.673	1	16
674.011	1	11
674.350	1	-2
674.689	1	-7
675.028	1	11
675.367	1	18
675.705	1	-3
676.044	1	3
676.383	1	7
676.722	1	-4
677.060	1	1
677.399	1	-1
677.738	1	1
678.077	1	5
678.416	1	0
678.754	1	7
679.093	1	-5
679.432	1	7
679.771	1	0
680.109	1	6
680.448	1	-2
680.787	1	3
681.125	1	9
681.464	1	8
681.803	1	-6
682.142	1	5
682.480	1	0
682.819	1	-3
683.158	1	10
683.496	1	0
683.835	1	3
684.174	1	-4
684.512	1	-11
684.851	1	2
685.190	1	7
685.529	1	-3
685.867	1	-3
686.206	1	11
686.545	1	2
686.883	1	-5
687.222	1	-6
687.561	1	-4
687.899	1	5
688.238	1	-6
688.577	1	-4
688.746	1	3