File: Analysis/GaN_68K_200ms/GaN_sample E_spot4_UVVIS_68 K_200um_200 ms 2x2mm1_500.txt
340.368	1	-3
340.710	1	-13
341.052	1	4
341.394	1	0
341.737	1	9
342.079	1	-3
342.421	1	-17
342.763	1	-1
343.105	1	10
343.447	1	-2
343.789	1	-2
344.131	1	2
344.473	1	-1
344.815	1	1
345.157	1	-5
345.499	1	4
345.841	1	-4
346.183	1	1
346.526	1	6
346.868	1	3
347.210	1	2
347.552	1	-7
347.894	1	7
348.236	1	6
348.578	1	11
348.920	1	9
349.262	1	-8
349.604	1	8
349.946	1	10
350.288	1	-2
350.630	1	-1
350.972	1	5
351.314	1	2
351.656	1	7
351.998	1	-5
352.340	1	-5
352.682	1	2
353.024	1	1
353.366	1	2
353.708	1	6
354.050	1	16
354.392	1	7
354.734	1	0
355.076	1	3
355.418	1	0
355.760	1	4
356.102	1	-6
356.444	1	4
356.785	1	14
357.127	1	-7
357.469	1	0
357.811	1	9
358.153	1	5
358.495	1	11
358.837	1	7
359.179	1	1
359.521	1	2
359.863	1	-3
360.205	1	-4
360.547	1	4
360.889	1	8
361.231	1	11
361.572	1	7
361.914	1	1
362.256	1	1
362.598	1	0
362.940	1	1
363.282	1	7
363.624	1	-4
363.966	1	4
364.308	1	1
364.649	1	0
364.991	1	2
365.333	1	9
365.675	1	3
366.017	1	2
366.359	1	9
366.701	1	-5
367.042	1	9
367.384	1	8
367.726	1	12
368.068	1	-4
368.410	1	-1
368.752	1	-13
369.093	1	-4
369.435	1	-3
369.777	1	4
370.119	1	3
370.461	1	3
370.803	1	-3
371.144	1	11
371.486	1	1
371.828	1	7
372.170	1	7
372.512	1	-4
372.853	1	6
373.195	1	-3
373.537	1	1
373.879	1	6
374.220	1	6
374.562	1	0
374.904	1	5
375.246	1	4
375.588	1	-4
375.929	1	6
376.271	1	-4
376.613	1	3
376.955	1	-10
377.296	1	4
377.638	1	4
377.980	1	5
378.321	1	5
378.663	1	-5
379.005	1	7
379.347	1	4
379.688	1	3
380.030	1	-1
380.372	1	-1
380.714	1	11
381.055	1	-2
381.397	1	-10
381.739	1	9
382.080	1	-9
382.422	1	11
382.764	1	-9
383.105	1	6
383.447	1	8
383.789	1	-1
384.130	1	-6
384.472	1	-3
384.814	1	7
385.156	1	8
385.497	1	13
385.839	1	-1
386.180	1	6
386.522	1	4
386.864	1	0
387.205	1	3
387.547	1	-7
387.889	1	19
388.230	1	10
388.572	1	5
388.914	1	5
389.255	1	7
389.597	1	3
389.939	1	13
390.280	1	14
390.622	1	-1
390.963	1	5
391.305	1	12
391.647	1	7
391.988	1	-3
392.330	1	5
392.671	1	11
393.013	1	14
393.355	1	8
393.696	1	0
394.038	1	-4
394.379	1	-9
394.721	1	6
395.062	1	-9
395.404	1	9
395.746	1	-6
396.087	1	0
396.429	1	9
396.770	1	-1
397.112	1	1
397.453	1	-14
397.795	1	11
398.136	1	4
398.478	1	2
398.819	1	3
399.161	1	9
399.503	1	8
399.844	1	1
400.186	1	13
400.527	1	8
400.869	1	3
401.210	1	-2
401.552	1	18
401.893	1	1
402.235	1	19
402.576	1	5
402.918	1	0
403.259	1	-9
403.601	1	-2
403.942	1	10
404.284	1	1
404.625	1	1
404.967	1	17
405.308	1	4
405.649	1	5
405.991	1	14
406.332	1	-8
406.674	1	0
407.015	1	-5
407.357	1	1
407.698	1	-17
408.040	1	-3
408.381	1	0
408.722	1	-2
409.064	1	-1
409.405	1	-3
409.747	1	-6
410.088	1	6
410.430	1	12
410.771	1	3
411.112	1	1
411.454	1	5
411.795	1	0
412.137	1	15
412.478	1	8
412.819	1	1
413.161	1	0
413.502	1	-1
413.844	1	5
414.185	1	-3
414.526	1	2
414.868	1	4
415.209	1	-2
415.550	1	4
415.892	1	-2
416.233	1	4
416.575	1	-2
416.916	1	0
417.257	1	7
417.599	1	11
417.940	1	2
418.281	1	13
418.623	1	8
418.964	1	1
419.305	1	2
419.647	1	10
419.988	1	4
420.329	1	10
420.671	1	6
421.012	1	3
421.353	1	3
421.695	1	0
422.036	1	6
422.377	1	8
422.718	1	8
423.060	1	-6
423.401	1	-1
423.742	1	2
424.084	1	6
424.425	1	-2
424.766	1	10
425.107	1	7
425.449	1	5
425.790	1	-1
426.131	1	5
426.472	1	-4
426.814	1	12
427.155	1	-2
427.496	1	10
427.837	1	-10
428.179	1	6
428.520	1	0
428.861	1	-8
429.202	1	8
429.544	1	2
429.885	1	-4
430.226	1	3
430.567	1	15
430.909	1	1
431.250	1	-13
431.591	1	3
431.932	1	0
432.273	1	3
432.615	1	5
432.956	1	1
433.297	1	1
433.638	1	2
433.979	1	5
434.320	1	-3
434.662	1	-7
435.003	1	5
435.344	1	1
435.685	1	10
436.026	1	9
436.368	1	-4
436.709	1	-4
437.050	1	7
437.391	1	2
437.732	1	3
438.073	1	8
438.414	1	7
438.756	1	7
439.097	1	3
439.438	1	10
439.779	1	-7
440.120	1	4
440.461	1	-12
440.802	1	8
441.143	1	6
441.485	1	-6
441.826	1	-3
442.167	1	-3
442.508	1	0
442.849	1	8
443.190	1	-10
443.531	1	-9
443.872	1	1
444.213	1	-6
444.554	1	4
444.895	1	-9
445.237	1	-8
445.578	1	16
445.919	1	2
446.260	1	1
446.601	1	-4
446.942	1	10
447.283	1	9
447.624	1	4
447.965	1	-5
448.306	1	5
448.647	1	8
448.988	1	-16
449.329	1	-6
449.670	1	6
450.011	1	8
450.352	1	2
450.693	1	6
451.034	1	13
451.375	1	6
451.716	1	2
452.057	1	5
452.398	1	9
452.739	1	6
453.080	1	18
453.421	1	5
453.762	1	4
454.103	1	4
454.444	1	9
454.785	1	-11
455.126	1	3
455.467	1	-2
455.808	1	3
456.149	1	-4
456.490	1	7
456.831	1	11
457.172	1	1
457.513	1	6
457.854	1	0
458.195	1	-9
458.536	1	7
458.877	1	-11
459.218	1	-2
459.559	1	-5
459.899	1	6
460.240	1	7
460.581	1	13
460.922	1	-7
461.263	1	13
461.604	1	-3
461.945	1	11
462.286	1	10
462.627	1	7
462.968	1	-8
463.309	1	9
463.649	1	12
463.990	1	5
464.331	1	7
464.672	1	7
465.013	1	-3
465.354	1	11
465.695	1	13
466.036	1	4
466.376	1	-6
466.717	1	-2
467.058	1	12
467.399	1	1
467.740	1	0
468.081	1	2
468.422	1	7
468.762	1	-18
469.103	1	1
469.444	1	4
469.785	1	6
470.126	1	6
470.467	1	-6
470.807	1	4
471.148	1	-4
471.489	1	-1
471.830	1	9
472.171	1	2
472.511	1	16
472.852	1	-7
473.193	1	-5
473.534	1	-7
473.875	1	7
474.215	1	1
474.556	1	-4
474.897	1	-6
475.238	1	-2
475.578	1	5
475.919	1	9
476.260	1	-4
476.601	1	2
476.942	1	-3
477.282	1	-15
477.623	1	8
477.964	1	11
478.305	1	2
478.645	1	-10
478.986	1	2
479.327	1	0
479.667	1	4
480.008	1	0
480.349	1	3
480.690	1	9
481.030	1	-5
481.371	1	-4
481.712	1	7
482.053	1	3
482.393	1	-16
482.734	1	6
483.075	1	-5
483.415	1	5
483.756	1	11
484.097	1	-2
484.437	1	-13
484.778	1	-3
485.119	1	3
485.459	1	5
485.800	1	3
486.141	1	-6
486.481	1	8
486.822	1	12
487.163	1	0
487.503	1	1
487.844	1	-2
488.185	1	-11
488.525	1	-2
488.866	1	14
489.207	1	11
489.547	1	-6
489.888	1	-1
490.228	1	-6
490.569	1	15
490.910	1	3
491.250	1	3
491.591	1	-7
491.932	1	12
492.272	1	0
492.613	1	-3
492.953	1	4
493.294	1	1
493.635	1	-6
493.975	1	-2
494.316	1	4
494.656	1	1
494.997	1	-1
495.337	1	12
495.678	1	4
496.019	1	-5
496.359	1	3
496.700	1	3
497.040	1	0
497.381	1	-14
497.721	1	-3
498.062	1	-9
498.403	1	-1
498.743	1	12
499.084	1	-1
499.424	1	4
499.765	1	2
500.105	1	10
500.446	1	14
500.786	1	0
501.127	1	5
501.467	1	7
501.808	1	-13
502.148	1	3
502.489	1	8
502.829	1	4
503.170	1	6
503.510	1	-3
503.851	1	-8
504.191	1	3
504.532	1	-13
504.872	1	-16
505.213	1	7
505.553	1	-3
505.894	1	4
506.234	1	13
506.575	1	8
506.915	1	4
507.256	1	-7
507.596	1	13
507.936	1	11
508.277	1	-2
508.617	1	-1
508.958	1	7
509.298	1	9
509.639	1	11
509.979	1	-1
510.319	1	0
510.660	1	14
511.000	1	11
511.341	1	-6
511.681	1	-2
512.022	1	-3
512.362	1	-2
512.702	1	-6
513.043	1	1
513.383	1	0
513.724	1	7
514.064	1	6
514.404	1	0
514.745	1	4
515.085	1	3
515.425	1	-7
515.766	1	1
516.106	1	-4
516.447	1	2
516.787	1	-3
517.127	1	12
517.468	1	1
517.808	1	0
518.148	1	-4
518.489	1	-4
518.829	1	-6
519.169	1	14
519.510	1	-1
519.850	1	-2
520.190	1	-2
520.531	1	0
520.871	1	-10
521.211	1	11
521.552	1	6
521.892	1	-7
522.232	1	-12
522.573	1	9
522.913	1	9
523.253	1	0
523.593	1	-4
523.934	1	2
524.274	1	-5
524.614	1	-6
524.955	1	8
525.295	1	-1
525.635	1	12
525.975	1	-7
526.316	1	-6
526.656	1	15
526.996	1	16
527.337	1	9
527.677	1	19
528.017	1	-2
528.357	1	1
528.698	1	-5
529.038	1	8
529.378	1	7
529.718	1	3
530.058	1	-2
530.399	1	10
530.739	1	-6
531.079	1	9
531.419	1	14
531.760	1	5
532.100	1	5
532.440	1	1
532.780	1	-5
533.120	1	-9
533.461	1	3
533.801	1	0
534.141	1	11
534.481	1	2
534.821	1	-4
535.162	1	2
535.502	1	8
535.842	1	4
536.182	1	2
536.522	1	-3
536.862	1	6
537.203	1	9
537.543	1	9
537.883	1	4
538.223	1	13
538.563	1	-8
538.903	1	-2
539.243	1	-1
539.584	1	5
539.924	1	8
540.264	1	4
540.604	1	1
540.944	1	-1
541.284	1	5
541.624	1	-1
541.964	1	-3
542.305	1	-9
542.645	1	-1
542.985	1	2
543.325	1	-3
543.665	1	8
544.005	1	-5
544.345	1	11
544.685	1	4
545.025	1	-1
545.365	1	5
545.705	1	11
546.045	1	16
546.386	1	3
546.726	1	-4
547.066	1	-10
547.406	1	7
547.746	1	8
548.086	1	8
548.426	1	-12
548.766	1	2
549.106	1	9
549.446	1	-1
549.786	1	5
550.126	1	2
550.466	1	-4
550.806	1	10
551.146	1	-4
551.486	1	-3
551.826	1	-1
552.166	1	-2
552.506	1	-2
552.846	1	11
553.186	1	1
553.526	1	2
553.866	1	1
554.206	1	9
554.546	1	0
554.886	1	1
555.226	1	3
555.566	1	6
555.906	1	-3
556.246	1	4
556.586	1	14
556.926	1	3
557.266	1	17
557.606	1	4
557.946	1	5
558.286	1	5
558.626	1	3
558.966	1	3
559.306	1	-6
559.646	1	-5
559.986	1	-4
560.325	1	-10
560.665	1	-3
561.005	1	5
561.345	1	4
561.685	1	5
562.025	1	0
562.365	1	5
562.705	1	6
563.045	1	14
563.385	1	4
563.725	1	-9
564.064	1	8
564.404	1	-7
564.744	1	7
565.084	1	-6
565.424	1	3
565.764	1	7
566.104	1	-5
566.444	1	7
566.783	1	3
567.123	1	12
567.463	1	1
567.803	1	-3
568.143	1	-4
568.483	1	-6
568.823	1	9
569.162	1	11
569.502	1	1
569.842	1	3
570.182	1	0
570.522	1	5
570.862	1	7
571.201	1	0
571.541	1	-2
571.881	1	-1
572.221	1	-5
572.561	1	2
572.900	1	8
573.240	1	1
573.580	1	3
573.920	1	6
574.260	1	-5
574.599	1	5
574.939	1	-5
575.279	1	2
575.619	1	4
575.959	1	-2
576.298	1	-13
576.638	1	0
576.978	1	3
577.318	1	5
577.657	1	-19
577.997	1	-14
578.337	1	4
578.677	1	4
579.016	1	6
579.356	1	2
579.696	1	0
580.036	1	0
580.375	1	2
580.715	1	8
581.055	1	10
581.394	1	-14
581.734	1	6
582.074	1	-12
582.414	1	3
582.753	1	6
583.093	1	-2
583.433	1	-12
583.772	1	8
584.112	1	-2
584.452	1	12
584.791	1	7
585.131	1	-5
585.471	1	1
585.811	1	-6
586.150	1	-4
586.490	1	-6
586.830	1	-8
587.169	1	-1
587.509	1	5
587.849	1	9
588.188	1	-3
588.528	1	2
588.867	1	8
589.207	1	-6
589.547	1	-4
589.886	1	-6
590.226	1	7
590.566	1	2
590.905	1	9
591.245	1	-3
591.585	1	2
591.924	1	-12
592.264	1	-2
592.603	1	6
592.943	1	4
593.283	1	-5
593.622	1	0
593.962	1	10
594.301	1	18
594.641	1	-1
594.981	1	-4
595.320	1	7
595.660	1	4
595.999	1	0
596.339	1	7
596.678	1	8
597.018	1	2
597.358	1	7
597.697	1	2
598.037	1	4
598.376	1	8
598.716	1	-12
599.055	1	2
599.395	1	3
599.734	1	-1
600.074	1	-4
600.413	1	1
600.753	1	6
601.092	1	-9
601.432	1	3
601.771	1	8
602.111	1	-7
602.451	1	0
602.790	1	6
603.130	1	2
603.469	1	-2
603.809	1	9
604.148	1	6
604.487	1	4
604.827	1	-12
605.166	1	3
605.506	1	3
605.845	1	3
606.185	1	5
606.524	1	1
606.864	1	-3
607.203	1	4
607.543	1	-3
607.882	1	-7
608.222	1	1
608.561	1	8
608.901	1	9
609.240	1	3
609.579	1	3
609.919	1	-6
610.258	1	12
610.598	1	11
610.937	1	3
611.277	1	0
611.616	1	-3
611.955	1	2
612.295	1	-7
612.634	1	-5
612.974	1	11
613.313	1	9
613.652	1	-10
613.992	1	6
614.331	1	-3
614.671	1	2
615.010	1	0
615.349	1	-1
615.689	1	-7
616.028	1	-4
616.368	1	4
616.707	1	-6
617.046	1	8
617.386	1	-5
617.725	1	4
618.064	1	9
618.404	1	0
618.743	1	2
619.082	1	2
619.422	1	-4
619.761	1	5
620.100	1	-1
620.440	1	0
620.779	1	-2
621.118	1	-1
621.458	1	7
621.797	1	-3
622.136	1	-2
622.476	1	5
622.815	1	4
623.154	1	2
623.494	1	7
623.833	1	1
624.172	1	1
624.511	1	0
624.851	1	-1
625.190	1	-3
625.529	1	8
625.869	1	10
626.208	1	-6
626.547	1	14
626.886	1	-3
627.226	1	0
627.565	1	11
627.904	1	8
628.243	1	-4
628.583	1	-5
628.922	1	2
629.261	1	13
629.600	1	11
629.940	1	0
630.279	1	2
630.618	1	1
630.957	1	-12
631.297	1	1
631.636	1	7
631.975	1	5
632.314	1	9
632.653	1	-10
632.993	1	7
633.332	1	-1
633.671	1	-2
634.010	1	-11
634.349	1	4
634.689	1	9
635.028	1	5
635.367	1	0
635.706	1	-12
636.045	1	3
636.384	1	8
636.724	1	5
637.063	1	-2
637.402	1	4
637.741	1	6
638.080	1	6
638.419	1	2
638.759	1	8
639.098	1	1
639.437	1	-7
639.776	1	5
640.115	1	-2
640.454	1	6
640.793	1	7
641.132	1	8
641.472	1	-13
641.811	1	2
642.150	1	4
642.489	1	-5
642.828	1	1
643.167	1	19
643.506	1	-6
643.845	1	-3
644.184	1	1
644.524	1	-11
644.863	1	2
645.202	1	5
645.541	1	-6
645.880	1	0
646.219	1	4
646.558	1	6
646.897	1	-1
647.236	1	-1
647.575	1	3
647.914	1	9
648.253	1	6
648.592	1	8
648.931	1	5
649.270	1	10
649.610	1	6
649.949	1	1
650.288	1	-11
650.627	1	0
650.966	1	-3
651.305	1	0
651.644	1	0
651.983	1	4
652.322	1	6
652.661	1	-3
653.000	1	-3
653.339	1	7
653.678	1	3
654.017	1	-1
654.356	1	4
654.695	1	4
655.034	1	-1
655.373	1	-5
655.712	1	3
656.051	1	3
656.390	1	3
656.729	1	0
657.068	1	-4
657.406	1	-2
657.745	1	-9
658.084	1	6
658.423	1	-1
658.762	1	-1
659.101	1	-7
659.440	1	15
659.779	1	0
660.118	1	3
660.457	1	-8
660.796	1	-1
661.135	1	7
661.474	1	1
661.813	1	-3
662.152	1	9
662.491	1	1
662.829	1	1
663.168	1	-2
663.507	1	8
663.846	1	7
664.185	1	1
664.524	1	-6
664.863	1	-2
665.202	1	-1
665.541	1	1
665.879	1	-5
666.218	1	-7
666.557	1	1
666.896	1	0
667.235	1	1
667.574	1	8
667.913	1	4
668.251	1	-5
668.590	1	2
668.929	1	-1
669.268	1	4
669.607	1	-7
669.946	1	13
670.285	1	11
670.623	1	0
670.962	1	-4
671.301	1	-5
671.640	1	-16
671.979	1	12
672.317	1	-1
672.656	1	5
672.995	1	-1
673.334	1	11
673.673	1	7
674.011	1	7
674.350	1	-1
674.689	1	-2
675.028	1	8
675.367	1	2
675.705	1	-4
676.044	1	-10
676.383	1	1
676.722	1	0
677.060	1	10
677.399	1	0
677.738	1	-2
678.077	1	2
678.416	1	-2
678.754	1	9
679.093	1	1
679.432	1	-3
679.771	1	7
680.109	1	11
680.448	1	-2
680.787	1	-1
681.125	1	6
681.464	1	0
681.803	1	-15
682.142	1	16
682.480	1	-3
682.819	1	3
683.158	1	6
683.496	1	-9
683.835	1	7
684.174	1	-4
684.512	1	2
684.851	1	-1
685.190	1	2
685.529	1	-6
685.867	1	-2
686.206	1	2
686.545	1	12
686.883	1	-6
687.222	1	-10
687.561	1	4
687.899	1	2
688.238	1	9
688.577	1	4
688.746	1	12