File: Analysis/GaN_68K_200ms/GaN_sample E_spot4_UVVIS_68 K_200um_200 ms 2x2mm1_182.txt
340.368	1	7
340.710	1	-4
341.052	1	12
341.394	1	3
341.737	1	8
342.079	1	-2
342.421	1	1
342.763	1	5
343.105	1	16
343.447	1	4
343.789	1	-3
344.131	1	3
344.473	1	3
344.815	1	11
345.157	1	12
345.499	1	12
345.841	1	4
346.183	1	13
346.526	1	7
346.868	1	2
347.210	1	-3
347.552	1	3
347.894	1	13
348.236	1	8
348.578	1	13
348.920	1	16
349.262	1	-2
349.604	1	9
349.946	1	17
350.288	1	4
350.630	1	5
350.972	1	8
351.314	1	2
351.656	1	7
351.998	1	0
352.340	1	5
352.682	1	-1
353.024	1	6
353.366	1	-2
353.708	1	10
354.050	1	6
354.392	1	12
354.734	1	0
355.076	1	19
355.418	1	8
355.760	1	4
356.102	1	4
356.444	1	12
356.785	1	11
357.127	1	12
357.469	1	6
357.811	1	14
358.153	1	6
358.495	1	17
358.837	1	2
359.179	1	21
359.521	1	6
359.863	1	-1
360.205	1	7
360.547	1	8
360.889	1	5
361.231	1	9
361.572	1	3
361.914	1	15
362.256	1	13
362.598	1	17
362.940	1	13
363.282	1	11
363.624	1	10
363.966	1	14
364.308	1	15
364.649	1	26
364.991	1	21
365.333	1	36
365.675	1	23
366.017	1	25
366.359	1	32
366.701	1	26
367.042	1	35
367.384	1	22
367.726	1	38
368.068	1	17
368.410	1	20
368.752	1	25
369.093	1	20
369.435	1	16
369.777	1	21
370.119	1	22
370.461	1	24
370.803	1	15
371.144	1	28
371.486	1	30
371.828	1	23
372.170	1	19
372.512	1	8
372.853	1	16
373.195	1	7
373.537	1	14
373.879	1	19
374.220	1	18
374.562	1	12
374.904	1	14
375.246	1	15
375.588	1	14
375.929	1	14
376.271	1	17
376.613	1	11
376.955	1	5
377.296	1	20
377.638	1	14
377.980	1	10
378.321	1	7
378.663	1	3
379.005	1	18
379.347	1	14
379.688	1	4
380.030	1	1
380.372	1	18
380.714	1	17
381.055	1	10
381.397	1	14
381.739	1	21
382.080	1	-2
382.422	1	21
382.764	1	15
383.105	1	21
383.447	1	26
383.789	1	24
384.130	1	6
384.472	1	23
384.814	1	27
385.156	1	30
385.497	1	33
385.839	1	29
386.180	1	33
386.522	1	34
386.864	1	26
387.205	1	27
387.547	1	22
387.889	1	37
388.230	1	28
388.572	1	29
388.914	1	43
389.255	1	30
389.597	1	29
389.939	1	38
390.280	1	36
390.622	1	30
390.963	1	35
391.305	1	39
391.647	1	30
391.988	1	27
392.330	1	43
392.671	1	33
393.013	1	29
393.355	1	41
393.696	1	23
394.038	1	21
394.379	1	31
394.721	1	29
395.062	1	12
395.404	1	22
395.746	1	21
396.087	1	29
396.429	1	31
396.770	1	31
397.112	1	21
397.453	1	20
397.795	1	29
398.136	1	33
398.478	1	22
398.819	1	35
399.161	1	24
399.503	1	24
399.844	1	28
400.186	1	40
400.527	1	20
400.869	1	22
401.210	1	24
401.552	1	36
401.893	1	23
402.235	1	34
402.576	1	31
402.918	1	19
403.259	1	6
403.601	1	20
403.942	1	19
404.284	1	20
404.625	1	28
404.967	1	27
405.308	1	17
405.649	1	18
405.991	1	21
406.332	1	21
406.674	1	30
407.015	1	6
407.357	1	24
407.698	1	8
408.040	1	8
408.381	1	16
408.722	1	9
409.064	1	20
409.405	1	18
409.747	1	15
410.088	1	15
410.430	1	27
410.771	1	24
411.112	1	31
411.454	1	29
411.795	1	34
412.137	1	22
412.478	1	22
412.819	1	11
413.161	1	12
413.502	1	25
413.844	1	20
414.185	1	19
414.526	1	21
414.868	1	25
415.209	1	13
415.550	1	10
415.892	1	0
416.233	1	16
416.575	1	10
416.916	1	19
417.257	1	17
417.599	1	15
417.940	1	15
418.281	1	10
418.623	1	23
418.964	1	29
419.305	1	12
419.647	1	19
419.988	1	5
420.329	1	20
420.671	1	14
421.012	1	15
421.353	1	12
421.695	1	18
422.036	1	11
422.377	1	21
422.718	1	10
423.060	1	12
423.401	1	23
423.742	1	14
424.084	1	21
424.425	1	11
424.766	1	17
425.107	1	13
425.449	1	14
425.790	1	9
426.131	1	10
426.472	1	11
426.814	1	18
427.155	1	7
427.496	1	21
427.837	1	12
428.179	1	-1
428.520	1	6
428.861	1	15
429.202	1	26
429.544	1	18
429.885	1	11
430.226	1	3
430.567	1	23
430.909	1	4
431.250	1	8
431.591	1	16
431.932	1	11
432.273	1	6
432.615	1	11
432.956	1	7
433.297	1	11
433.638	1	3
433.979	1	8
434.320	1	3
434.662	1	-3
435.003	1	13
435.344	1	12
435.685	1	17
436.026	1	8
436.368	1	11
436.709	1	9
437.050	1	13
437.391	1	-1
437.732	1	18
438.073	1	18
438.414	1	10
438.756	1	16
439.097	1	17
439.438	1	11
439.779	1	11
440.120	1	6
440.461	1	7
440.802	1	12
441.143	1	26
441.485	1	4
441.826	1	-6
442.167	1	6
442.508	1	11
442.849	1	20
443.190	1	0
443.531	1	9
443.872	1	6
444.213	1	-1
444.554	1	9
444.895	1	4
445.237	1	6
445.578	1	9
445.919	1	4
446.260	1	10
446.601	1	-13
446.942	1	14
447.283	1	3
447.624	1	8
447.965	1	2
448.306	1	12
448.647	1	14
448.988	1	-4
449.329	1	9
449.670	1	14
450.011	1	4
450.352	1	17
450.693	1	19
451.034	1	12
451.375	1	9
451.716	1	16
452.057	1	13
452.398	1	11
452.739	1	2
453.080	1	22
453.421	1	2
453.762	1	8
454.103	1	8
454.444	1	19
454.785	1	-5
455.126	1	2
455.467	1	8
455.808	1	9
456.149	1	1
456.490	1	7
456.831	1	13
457.172	1	6
457.513	1	12
457.854	1	6
458.195	1	2
458.536	1	6
458.877	1	4
459.218	1	-5
459.559	1	6
459.899	1	8
460.240	1	16
460.581	1	12
460.922	1	3
461.263	1	13
461.604	1	3
461.945	1	11
462.286	1	10
462.627	1	9
462.968	1	0
463.309	1	6
463.649	1	10
463.990	1	1
464.331	1	9
464.672	1	5
465.013	1	5
465.354	1	8
465.695	1	14
466.036	1	6
466.376	1	8
466.717	1	3
467.058	1	14
467.399	1	11
467.740	1	-4
468.081	1	9
468.422	1	12
468.762	1	-3
469.103	1	-3
469.444	1	8
469.785	1	7
470.126	1	10
470.467	1	4
470.807	1	5
471.148	1	5
471.489	1	1
471.830	1	15
472.171	1	1
472.511	1	14
472.852	1	0
473.193	1	-2
473.534	1	3
473.875	1	14
474.215	1	3
474.556	1	-5
474.897	1	9
475.238	1	-7
475.578	1	2
475.919	1	4
476.260	1	-1
476.601	1	-3
476.942	1	-5
477.282	1	-5
477.623	1	7
477.964	1	7
478.305	1	6
478.645	1	3
478.986	1	9
479.327	1	-7
479.667	1	9
480.008	1	7
480.349	1	14
480.690	1	3
481.030	1	-2
481.371	1	3
481.712	1	2
482.053	1	15
482.393	1	-14
482.734	1	6
483.075	1	14
483.415	1	9
483.756	1	14
484.097	1	1
484.437	1	-7
484.778	1	4
485.119	1	15
485.459	1	14
485.800	1	1
486.141	1	-1
486.481	1	1
486.822	1	2
487.163	1	9
487.503	1	-4
487.844	1	9
488.185	1	-16
488.525	1	6
488.866	1	15
489.207	1	17
489.547	1	-2
489.888	1	2
490.228	1	-1
490.569	1	15
490.910	1	1
491.250	1	2
491.591	1	7
491.932	1	12
492.272	1	13
492.613	1	10
492.953	1	9
493.294	1	12
493.635	1	1
493.975	1	14
494.316	1	19
494.656	1	16
494.997	1	10
495.337	1	5
495.678	1	17
496.019	1	1
496.359	1	9
496.700	1	11
497.040	1	17
497.381	1	-9
497.721	1	6
498.062	1	18
498.403	1	21
498.743	1	21
499.084	1	9
499.424	1	20
499.765	1	6
500.105	1	21
500.446	1	14
500.786	1	7
501.127	1	13
501.467	1	12
501.808	1	5
502.148	1	13
502.489	1	23
502.829	1	11
503.170	1	10
503.510	1	8
503.851	1	7
504.191	1	7
504.532	1	7
504.872	1	13
505.213	1	20
505.553	1	17
505.894	1	13
506.234	1	19
506.575	1	9
506.915	1	12
507.256	1	10
507.596	1	16
507.936	1	13
508.277	1	13
508.617	1	28
508.958	1	24
509.298	1	26
509.639	1	29
509.979	1	15
510.319	1	14
510.660	1	29
511.000	1	34
511.341	1	11
511.681	1	18
512.022	1	16
512.362	1	14
512.702	1	14
513.043	1	22
513.383	1	6
513.724	1	26
514.064	1	22
514.404	1	14
514.745	1	12
515.085	1	10
515.425	1	17
515.766	1	21
516.106	1	14
516.447	1	17
516.787	1	11
517.127	1	17
517.468	1	21
517.808	1	14
518.148	1	19
518.489	1	18
518.829	1	16
519.169	1	35
519.510	1	13
519.850	1	19
520.190	1	22
520.531	1	21
520.871	1	13
521.211	1	19
521.552	1	28
521.892	1	8
522.232	1	14
522.573	1	25
522.913	1	24
523.253	1	13
523.593	1	10
523.934	1	25
524.274	1	15
524.614	1	22
524.955	1	21
525.295	1	13
525.635	1	30
525.975	1	19
526.316	1	16
526.656	1	36
526.996	1	27
527.337	1	20
527.677	1	36
528.017	1	15
528.357	1	26
528.698	1	12
529.038	1	28
529.378	1	29
529.718	1	27
530.058	1	19
530.399	1	30
530.739	1	17
531.079	1	18
531.419	1	25
531.760	1	29
532.100	1	25
532.440	1	14
532.780	1	24
533.120	1	15
533.461	1	26
533.801	1	26
534.141	1	29
534.481	1	21
534.821	1	22
535.162	1	26
535.502	1	22
535.842	1	24
536.182	1	16
536.522	1	20
536.862	1	26
537.203	1	24
537.543	1	23
537.883	1	22
538.223	1	24
538.563	1	14
538.903	1	15
539.243	1	16
539.584	1	21
539.924	1	17
540.264	1	34
540.604	1	21
540.944	1	8
541.284	1	21
541.624	1	20
541.964	1	14
542.305	1	13
542.645	1	13
542.985	1	9
543.325	1	21
543.665	1	34
544.005	1	15
544.345	1	21
544.685	1	21
545.025	1	18
545.365	1	18
545.705	1	23
546.045	1	17
546.386	1	25
546.726	1	17
547.066	1	6
547.406	1	31
547.746	1	21
548.086	1	25
548.426	1	7
548.766	1	17
549.106	1	17
549.446	1	20
549.786	1	18
550.126	1	14
550.466	1	18
550.806	1	19
551.146	1	10
551.486	1	24
551.826	1	28
552.166	1	18
552.506	1	16
552.846	1	20
553.186	1	16
553.526	1	15
553.866	1	14
554.206	1	19
554.546	1	2
554.886	1	22
555.226	1	10
555.566	1	21
555.906	1	19
556.246	1	22
556.586	1	22
556.926	1	18
557.266	1	22
557.606	1	12
557.946	1	20
558.286	1	24
558.626	1	23
558.966	1	12
559.306	1	13
559.646	1	4
559.986	1	18
560.325	1	4
560.665	1	12
561.005	1	11
561.345	1	15
561.685	1	16
562.025	1	2
562.365	1	15
562.705	1	14
563.045	1	19
563.385	1	14
563.725	1	17
564.064	1	22
564.404	1	4
564.744	1	16
565.084	1	7
565.424	1	19
565.764	1	27
566.104	1	16
566.444	1	22
566.783	1	8
567.123	1	26
567.463	1	10
567.803	1	3
568.143	1	9
568.483	1	12
568.823	1	14
569.162	1	21
569.502	1	6
569.842	1	3
570.182	1	-5
570.522	1	22
570.862	1	14
571.201	1	16
571.541	1	-1
571.881	1	17
572.221	1	19
572.561	1	10
572.900	1	18
573.240	1	9
573.580	1	8
573.920	1	11
574.260	1	9
574.599	1	10
574.939	1	1
575.279	1	6
575.619	1	11
575.959	1	8
576.298	1	4
576.638	1	11
576.978	1	7
577.318	1	17
577.657	1	7
577.997	1	-3
578.337	1	11
578.677	1	11
579.016	1	17
579.356	1	4
579.696	1	9
580.036	1	7
580.375	1	2
580.715	1	14
581.055	1	10
581.394	1	4
581.734	1	14
582.074	1	7
582.414	1	5
582.753	1	13
583.093	1	11
583.433	1	0
583.772	1	-1
584.112	1	7
584.452	1	14
584.791	1	17
585.131	1	3
585.471	1	9
585.811	1	2
586.150	1	14
586.490	1	1
586.830	1	7
587.169	1	7
587.509	1	13
587.849	1	20
588.188	1	10
588.528	1	9
588.867	1	12
589.207	1	-11
589.547	1	12
589.886	1	-4
590.226	1	8
590.566	1	-3
590.905	1	17
591.245	1	8
591.585	1	4
591.924	1	4
592.264	1	-4
592.603	1	0
592.943	1	-2
593.283	1	5
593.622	1	3
593.962	1	14
594.301	1	16
594.641	1	-5
594.981	1	9
595.320	1	16
595.660	1	2
595.999	1	15
596.339	1	8
596.678	1	-1
597.018	1	14
597.358	1	8
597.697	1	3
598.037	1	1
598.376	1	6
598.716	1	-2
599.055	1	12
599.395	1	9
599.734	1	5
600.074	1	3
600.413	1	4
600.753	1	12
601.092	1	-2
601.432	1	6
601.771	1	12
602.111	1	3
602.451	1	4
602.790	1	9
603.130	1	12
603.469	1	5
603.809	1	12
604.148	1	11
604.487	1	5
604.827	1	-1
605.166	1	-2
605.506	1	7
605.845	1	8
606.185	1	3
606.524	1	2
606.864	1	3
607.203	1	17
607.543	1	-10
607.882	1	2
608.222	1	4
608.561	1	11
608.901	1	8
609.240	1	11
609.579	1	6
609.919	1	-8
610.258	1	11
610.598	1	11
610.937	1	-7
611.277	1	17
611.616	1	-2
611.955	1	7
612.295	1	9
612.634	1	2
612.974	1	5
613.313	1	4
613.652	1	-7
613.992	1	12
614.331	1	4
614.671	1	13
615.010	1	-2
615.349	1	4
615.689	1	12
616.028	1	1
616.368	1	-2
616.707	1	0
617.046	1	12
617.386	1	8
617.725	1	17
618.064	1	8
618.404	1	4
618.743	1	10
619.082	1	12
619.422	1	16
619.761	1	6
620.100	1	-2
620.440	1	7
620.779	1	0
621.118	1	9
621.458	1	11
621.797	1	15
622.136	1	11
622.476	1	5
622.815	1	3
623.154	1	6
623.494	1	10
623.833	1	0
624.172	1	12
624.511	1	2
624.851	1	0
625.190	1	3
625.529	1	9
625.869	1	8
626.208	1	3
626.547	1	6
626.886	1	2
627.226	1	5
627.565	1	10
627.904	1	8
628.243	1	-5
628.583	1	2
628.922	1	2
629.261	1	7
629.600	1	8
629.940	1	10
630.279	1	2
630.618	1	3
630.957	1	5
631.297	1	-7
631.636	1	4
631.975	1	11
632.314	1	11
632.653	1	4
632.993	1	8
633.332	1	12
633.671	1	4
634.010	1	10
634.349	1	4
634.689	1	16
635.028	1	3
635.367	1	0
635.706	1	-12
636.045	1	6
636.384	1	14
636.724	1	3
637.063	1	8
637.402	1	9
637.741	1	14
638.080	1	2
638.419	1	18
638.759	1	9
639.098	1	-2
639.437	1	-1
639.776	1	-1
640.115	1	6
640.454	1	20
640.793	1	16
641.132	1	3
641.472	1	4
641.811	1	6
642.150	1	6
642.489	1	-1
642.828	1	8
643.167	1	16
643.506	1	-1
643.845	1	10
644.184	1	17
644.524	1	-4
644.863	1	0
645.202	1	14
645.541	1	-4
645.880	1	0
646.219	1	8
646.558	1	9
646.897	1	-6
647.236	1	6
647.575	1	6
647.914	1	-1
648.253	1	1
648.592	1	6
648.931	1	12
649.270	1	14
649.610	1	12
649.949	1	4
650.288	1	3
650.627	1	-2
650.966	1	3
651.305	1	-2
651.644	1	4
651.983	1	7
652.322	1	12
652.661	1	1
653.000	1	2
653.339	1	9
653.678	1	-5
654.017	1	-1
654.356	1	24
654.695	1	15
655.034	1	5
655.373	1	-2
655.712	1	-5
656.051	1	17
656.390	1	5
656.729	1	5
657.068	1	3
657.406	1	5
657.745	1	2
658.084	1	9
658.423	1	4
658.762	1	2
659.101	1	3
659.440	1	11
659.779	1	6
660.118	1	10
660.457	1	0
660.796	1	1
661.135	1	1
661.474	1	7
661.813	1	8
662.152	1	8
662.491	1	4
662.829	1	5
663.168	1	6
663.507	1	-5
663.846	1	11
664.185	1	4
664.524	1	1
664.863	1	10
665.202	1	-13
665.541	1	2
665.879	1	8
666.218	1	-11
666.557	1	9
666.896	1	-6
667.235	1	3
667.574	1	6
667.913	1	3
668.251	1	6
668.590	1	4
668.929	1	15
669.268	1	13
669.607	1	-3
669.946	1	5
670.285	1	7
670.623	1	12
670.962	1	2
671.301	1	0
671.640	1	1
671.979	1	15
672.317	1	-3
672.656	1	3
672.995	1	11
673.334	1	10
673.673	1	16
674.011	1	0
674.350	1	1
674.689	1	10
675.028	1	-2
675.367	1	10
675.705	1	-4
676.044	1	7
676.383	1	4
676.722	1	7
677.060	1	10
677.399	1	0
677.738	1	1
678.077	1	16
678.416	1	5
678.754	1	3
679.093	1	0
679.432	1	3
679.771	1	4
680.109	1	16
680.448	1	-3
680.787	1	-4
681.125	1	9
681.464	1	4
681.803	1	-8
682.142	1	8
682.480	1	0
682.819	1	16
683.158	1	8
683.496	1	3
683.835	1	-4
684.174	1	3
684.512	1	-2
684.851	1	-4
685.190	1	13
685.529	1	10
685.867	1	1
686.206	1	6
686.545	1	17
686.883	1	4
687.222	1	0
687.561	1	5
687.899	1	6
688.238	1	9
688.577	1	-7
688.746	1	8