File: Analysis/GaN_68K_200ms/GaN_sample E_spot4_UVVIS_68 K_200um_200 ms 2x2mm1_587.txt
340.368	1	-1
340.710	1	-11
341.052	1	3
341.394	1	-6
341.737	1	3
342.079	1	-9
342.421	1	-6
342.763	1	-5
343.105	1	8
343.447	1	-4
343.789	1	-8
344.131	1	4
344.473	1	-2
344.815	1	6
345.157	1	6
345.499	1	0
345.841	1	9
346.183	1	0
346.526	1	3
346.868	1	1
347.210	1	-5
347.552	1	2
347.894	1	7
348.236	1	-2
348.578	1	8
348.920	1	7
349.262	1	1
349.604	1	12
349.946	1	6
350.288	1	-1
350.630	1	1
350.972	1	0
351.314	1	-9
351.656	1	-1
351.998	1	7
352.340	1	2
352.682	1	-6
353.024	1	-5
353.366	1	4
353.708	1	3
354.050	1	5
354.392	1	9
354.734	1	-8
355.076	1	10
355.418	1	-6
355.760	1	5
356.102	1	-5
356.444	1	5
356.785	1	8
357.127	1	1
357.469	1	-2
357.811	1	14
358.153	1	5
358.495	1	4
358.837	1	2
359.179	1	8
359.521	1	5
359.863	1	-5
360.205	1	2
360.547	1	1
360.889	1	-2
361.231	1	2
361.572	1	-3
361.914	1	3
362.256	1	-1
362.598	1	4
362.940	1	-4
363.282	1	8
363.624	1	3
363.966	1	2
364.308	1	-3
364.649	1	1
364.991	1	-1
365.333	1	11
365.675	1	0
366.017	1	3
366.359	1	-9
366.701	1	-11
367.042	1	14
367.384	1	4
367.726	1	3
368.068	1	-1
368.410	1	2
368.752	1	-2
369.093	1	-2
369.435	1	-10
369.777	1	-3
370.119	1	14
370.461	1	2
370.803	1	-5
371.144	1	4
371.486	1	-2
371.828	1	2
372.170	1	6
372.512	1	1
372.853	1	-1
373.195	1	-9
373.537	1	-8
373.879	1	7
374.220	1	1
374.562	1	4
374.904	1	5
375.246	1	-2
375.588	1	-7
375.929	1	0
376.271	1	-5
376.613	1	-3
376.955	1	3
377.296	1	11
377.638	1	1
377.980	1	7
378.321	1	-2
378.663	1	2
379.005	1	10
379.347	1	4
379.688	1	-9
380.030	1	-7
380.372	1	-1
380.714	1	2
381.055	1	3
381.397	1	-5
381.739	1	10
382.080	1	-6
382.422	1	17
382.764	1	-11
383.105	1	2
383.447	1	11
383.789	1	8
384.130	1	-2
384.472	1	2
384.814	1	6
385.156	1	10
385.497	1	10
385.839	1	4
386.180	1	10
386.522	1	-1
386.864	1	-3
387.205	1	-5
387.547	1	-8
387.889	1	7
388.230	1	0
388.572	1	4
388.914	1	16
389.255	1	3
389.597	1	3
389.939	1	8
390.280	1	9
390.622	1	-2
390.963	1	8
391.305	1	11
391.647	1	3
391.988	1	-3
392.330	1	7
392.671	1	6
393.013	1	11
393.355	1	9
393.696	1	-1
394.038	1	-2
394.379	1	-1
394.721	1	11
395.062	1	-7
395.404	1	4
395.746	1	-11
396.087	1	-6
396.429	1	4
396.770	1	10
397.112	1	-3
397.453	1	-8
397.795	1	-2
398.136	1	12
398.478	1	-7
398.819	1	9
399.161	1	-1
399.503	1	-10
399.844	1	-6
400.186	1	-4
400.527	1	1
400.869	1	9
401.210	1	-1
401.552	1	16
401.893	1	-1
402.235	1	0
402.576	1	8
402.918	1	-11
403.259	1	-2
403.601	1	-3
403.942	1	3
404.284	1	5
404.625	1	12
404.967	1	-1
405.308	1	-2
405.649	1	-1
405.991	1	6
406.332	1	2
406.674	1	-1
407.015	1	-7
407.357	1	6
407.698	1	2
408.040	1	-1
408.381	1	11
408.722	1	4
409.064	1	3
409.405	1	15
409.747	1	-9
410.088	1	4
410.430	1	6
410.771	1	4
411.112	1	9
411.454	1	6
411.795	1	8
412.137	1	13
412.478	1	5
412.819	1	-1
413.161	1	-8
413.502	1	-6
413.844	1	0
414.185	1	4
414.526	1	2
414.868	1	-1
415.209	1	2
415.550	1	-5
415.892	1	2
416.233	1	-7
416.575	1	3
416.916	1	0
417.257	1	9
417.599	1	-1
417.940	1	-6
418.281	1	-2
418.623	1	-12
418.964	1	5
419.305	1	-5
419.647	1	3
419.988	1	5
420.329	1	-3
420.671	1	0
421.012	1	9
421.353	1	9
421.695	1	1
422.036	1	9
422.377	1	1
422.718	1	-3
423.060	1	1
423.401	1	3
423.742	1	3
424.084	1	-5
424.425	1	1
424.766	1	3
425.107	1	1
425.449	1	7
425.790	1	-7
426.131	1	1
426.472	1	5
426.814	1	12
427.155	1	-2
427.496	1	11
427.837	1	-1
428.179	1	-7
428.520	1	-6
428.861	1	-2
429.202	1	8
429.544	1	-2
429.885	1	1
430.226	1	-9
430.567	1	11
430.909	1	-3
431.250	1	-9
431.591	1	2
431.932	1	11
432.273	1	-4
432.615	1	6
432.956	1	-6
433.297	1	7
433.638	1	6
433.979	1	5
434.320	1	0
434.662	1	-2
435.003	1	6
435.344	1	4
435.685	1	0
436.026	1	1
436.368	1	7
436.709	1	-7
437.050	1	4
437.391	1	3
437.732	1	7
438.073	1	12
438.414	1	3
438.756	1	4
439.097	1	3
439.438	1	12
439.779	1	1
440.120	1	2
440.461	1	-5
440.802	1	6
441.143	1	13
441.485	1	0
441.826	1	-8
442.167	1	-5
442.508	1	3
442.849	1	0
443.190	1	-4
443.531	1	-2
443.872	1	1
444.213	1	-3
444.554	1	-7
444.895	1	-6
445.237	1	2
445.578	1	6
445.919	1	5
446.260	1	3
446.601	1	-3
446.942	1	8
447.283	1	2
447.624	1	4
447.965	1	-6
448.306	1	1
448.647	1	15
448.988	1	-14
449.329	1	-3
449.670	1	1
450.011	1	3
450.352	1	8
450.693	1	-8
451.034	1	12
451.375	1	6
451.716	1	-1
452.057	1	8
452.398	1	7
452.739	1	-1
453.080	1	13
453.421	1	-2
453.762	1	6
454.103	1	2
454.444	1	7
454.785	1	-11
455.126	1	5
455.467	1	9
455.808	1	1
456.149	1	-3
456.490	1	11
456.831	1	6
457.172	1	-2
457.513	1	11
457.854	1	-10
458.195	1	-9
458.536	1	0
458.877	1	-10
459.218	1	0
459.559	1	0
459.899	1	3
460.240	1	5
460.581	1	11
460.922	1	-1
461.263	1	-1
461.604	1	-6
461.945	1	11
462.286	1	9
462.627	1	0
462.968	1	-6
463.309	1	2
463.649	1	8
463.990	1	4
464.331	1	8
464.672	1	-6
465.013	1	-13
465.354	1	1
465.695	1	17
466.036	1	0
466.376	1	-2
466.717	1	-11
467.058	1	6
467.399	1	5
467.740	1	-10
468.081	1	7
468.422	1	11
468.762	1	-15
469.103	1	-8
469.444	1	3
469.785	1	9
470.126	1	1
470.467	1	-5
470.807	1	5
471.148	1	0
471.489	1	-3
471.830	1	17
472.171	1	0
472.511	1	7
472.852	1	-5
473.193	1	2
473.534	1	3
473.875	1	6
474.215	1	-10
474.556	1	-7
474.897	1	9
475.238	1	2
475.578	1	-1
475.919	1	1
476.260	1	-6
476.601	1	1
476.942	1	-2
477.282	1	-14
477.623	1	1
477.964	1	8
478.305	1	1
478.645	1	0
478.986	1	-5
479.327	1	0
479.667	1	0
480.008	1	7
480.349	1	3
480.690	1	3
481.030	1	-1
481.371	1	2
481.712	1	-8
482.053	1	9
482.393	1	-10
482.734	1	8
483.075	1	6
483.415	1	6
483.756	1	13
484.097	1	-9
484.437	1	-11
484.778	1	6
485.119	1	4
485.459	1	5
485.800	1	-8
486.141	1	-9
486.481	1	4
486.822	1	1
487.163	1	-5
487.503	1	-9
487.844	1	2
488.185	1	-9
488.525	1	-4
488.866	1	4
489.207	1	4
489.547	1	-8
489.888	1	0
490.228	1	-11
490.569	1	8
490.910	1	-3
491.250	1	4
491.591	1	-13
491.932	1	4
492.272	1	12
492.613	1	5
492.953	1	7
493.294	1	-1
493.635	1	-3
493.975	1	4
494.316	1	-4
494.656	1	9
494.997	1	-15
495.337	1	2
495.678	1	11
496.019	1	-6
496.359	1	5
496.700	1	-2
497.040	1	-1
497.381	1	-16
497.721	1	7
498.062	1	3
498.403	1	5
498.743	1	7
499.084	1	-6
499.424	1	16
499.765	1	-3
500.105	1	-1
500.446	1	8
500.786	1	1
501.127	1	5
501.467	1	4
501.808	1	-8
502.148	1	1
502.489	1	-3
502.829	1	-6
503.170	1	-6
503.510	1	-4
503.851	1	-11
504.191	1	10
504.532	1	-8
504.872	1	-6
505.213	1	-4
505.553	1	7
505.894	1	0
506.234	1	8
506.575	1	2
506.915	1	1
507.256	1	-8
507.596	1	2
507.936	1	-1
508.277	1	5
508.617	1	7
508.958	1	13
509.298	1	9
509.639	1	6
509.979	1	-1
510.319	1	-4
510.660	1	9
511.000	1	5
511.341	1	-5
511.681	1	5
512.022	1	-5
512.362	1	6
512.702	1	-5
513.043	1	2
513.383	1	2
513.724	1	-4
514.064	1	1
514.404	1	3
514.745	1	-3
515.085	1	1
515.425	1	-1
515.766	1	5
516.106	1	4
516.447	1	4
516.787	1	-9
517.127	1	-1
517.468	1	-2
517.808	1	0
518.148	1	1
518.489	1	7
518.829	1	-11
519.169	1	12
519.510	1	-2
519.850	1	-11
520.190	1	-6
520.531	1	5
520.871	1	-5
521.211	1	-3
521.552	1	2
521.892	1	-8
522.232	1	-11
522.573	1	-7
522.913	1	5
523.253	1	-9
523.593	1	-10
523.934	1	1
524.274	1	-8
524.614	1	2
524.955	1	-1
525.295	1	-6
525.635	1	10
525.975	1	-3
526.316	1	-1
526.656	1	13
526.996	1	-2
527.337	1	-2
527.677	1	-2
528.017	1	-6
528.357	1	11
528.698	1	-5
529.038	1	3
529.378	1	12
529.718	1	8
530.058	1	3
530.399	1	5
530.739	1	3
531.079	1	4
531.419	1	8
531.760	1	2
532.100	1	4
532.440	1	-8
532.780	1	1
533.120	1	-1
533.461	1	15
533.801	1	-4
534.141	1	2
534.481	1	2
534.821	1	3
535.162	1	5
535.502	1	4
535.842	1	-1
536.182	1	-3
536.522	1	4
536.862	1	3
537.203	1	12
537.543	1	8
537.883	1	5
538.223	1	9
538.563	1	5
538.903	1	-2
539.243	1	-2
539.584	1	-2
539.924	1	5
540.264	1	4
540.604	1	7
540.944	1	-2
541.284	1	-7
541.624	1	-6
541.964	1	-2
542.305	1	-4
542.645	1	0
542.985	1	-11
543.325	1	2
543.665	1	19
544.005	1	5
544.345	1	-13
544.685	1	3
545.025	1	-3
545.365	1	0
545.705	1	7
546.045	1	6
546.386	1	3
546.726	1	-4
547.066	1	-11
547.406	1	11
547.746	1	7
548.086	1	-3
548.426	1	-4
548.766	1	11
549.106	1	3
549.446	1	5
549.786	1	4
550.126	1	-1
550.466	1	0
550.806	1	9
551.146	1	1
551.486	1	6
551.826	1	3
552.166	1	1
552.506	1	0
552.846	1	-7
553.186	1	-1
553.526	1	1
553.866	1	-2
554.206	1	5
554.546	1	-2
554.886	1	9
555.226	1	-4
555.566	1	1
555.906	1	-7
556.246	1	-1
556.586	1	3
556.926	1	5
557.266	1	8
557.606	1	0
557.946	1	10
558.286	1	7
558.626	1	5
558.966	1	-5
559.306	1	-1
559.646	1	-3
559.986	1	-3
560.325	1	-7
560.665	1	9
561.005	1	1
561.345	1	3
561.685	1	4
562.025	1	-7
562.365	1	1
562.705	1	-3
563.045	1	8
563.385	1	1
563.725	1	7
564.064	1	4
564.404	1	-6
564.744	1	3
565.084	1	-7
565.424	1	-1
565.764	1	11
566.104	1	-6
566.444	1	5
566.783	1	-6
567.123	1	4
567.463	1	1
567.803	1	-3
568.143	1	-14
568.483	1	-8
568.823	1	7
569.162	1	8
569.502	1	2
569.842	1	-2
570.182	1	-3
570.522	1	0
570.862	1	-2
571.201	1	-1
571.541	1	-9
571.881	1	-5
572.221	1	2
572.561	1	-7
572.900	1	11
573.240	1	7
573.580	1	0
573.920	1	-2
574.260	1	-1
574.599	1	-11
574.939	1	3
575.279	1	5
575.619	1	-1
575.959	1	-3
576.298	1	-3
576.638	1	2
576.978	1	5
577.318	1	1
577.657	1	-17
577.997	1	-4
578.337	1	1
578.677	1	-2
579.016	1	17
579.356	1	-10
579.696	1	8
580.036	1	2
580.375	1	0
580.715	1	4
581.055	1	9
581.394	1	-5
581.734	1	5
582.074	1	-2
582.414	1	0
582.753	1	9
583.093	1	-11
583.433	1	-3
583.772	1	2
584.112	1	7
584.452	1	2
584.791	1	1
585.131	1	2
585.471	1	3
585.811	1	1
586.150	1	-2
586.490	1	-2
586.830	1	-12
587.169	1	3
587.509	1	2
587.849	1	6
588.188	1	1
588.528	1	5
588.867	1	4
589.207	1	-18
589.547	1	-4
589.886	1	-11
590.226	1	1
590.566	1	2
590.905	1	10
591.245	1	-4
591.585	1	-6
591.924	1	-5
592.264	1	2
592.603	1	-4
592.943	1	-5
593.283	1	7
593.622	1	4
593.962	1	0
594.301	1	11
594.641	1	-3
594.981	1	3
595.320	1	4
595.660	1	-11
595.999	1	0
596.339	1	5
596.678	1	-1
597.018	1	4
597.358	1	3
597.697	1	-3
598.037	1	-6
598.376	1	7
598.716	1	-2
599.055	1	5
599.395	1	7
599.734	1	0
600.074	1	-1
600.413	1	2
600.753	1	3
601.092	1	-14
601.432	1	-1
601.771	1	7
602.111	1	-4
602.451	1	-7
602.790	1	-2
603.130	1	12
603.469	1	-5
603.809	1	13
604.148	1	7
604.487	1	3
604.827	1	-6
605.166	1	2
605.506	1	0
605.845	1	3
606.185	1	-6
606.524	1	-7
606.864	1	-3
607.203	1	5
607.543	1	-7
607.882	1	-11
608.222	1	1
608.561	1	4
608.901	1	8
609.240	1	4
609.579	1	1
609.919	1	1
610.258	1	16
610.598	1	2
610.937	1	2
611.277	1	-4
611.616	1	-5
611.955	1	7
612.295	1	-3
612.634	1	-7
612.974	1	6
613.313	1	3
613.652	1	-5
613.992	1	7
614.331	1	4
614.671	1	2
615.010	1	7
615.349	1	-1
615.689	1	2
616.028	1	0
616.368	1	-3
616.707	1	-8
617.046	1	1
617.386	1	-4
617.725	1	7
618.064	1	-2
618.404	1	14
618.743	1	-4
619.082	1	-1
619.422	1	9
619.761	1	-1
620.100	1	4
620.440	1	6
620.779	1	-9
621.118	1	3
621.458	1	7
621.797	1	-7
622.136	1	3
622.476	1	-3
622.815	1	-3
623.154	1	2
623.494	1	3
623.833	1	-2
624.172	1	12
624.511	1	-3
624.851	1	-19
625.190	1	0
625.529	1	7
625.869	1	6
626.208	1	1
626.547	1	-5
626.886	1	-3
627.226	1	6
627.565	1	3
627.904	1	-4
628.243	1	3
628.583	1	-3
628.922	1	-4
629.261	1	0
629.600	1	3
629.940	1	4
630.279	1	-2
630.618	1	-3
630.957	1	-1
631.297	1	-12
631.636	1	-10
631.975	1	4
632.314	1	7
632.653	1	4
632.993	1	-1
633.332	1	0
633.671	1	7
634.010	1	3
634.349	1	1
634.689	1	2
635.028	1	-5
635.367	1	-1
635.706	1	-3
636.045	1	5
636.384	1	-1
636.724	1	-2
637.063	1	7
637.402	1	4
637.741	1	7
638.080	1	2
638.419	1	7
638.759	1	0
639.098	1	9
639.437	1	-1
639.776	1	4
640.115	1	0
640.454	1	10
640.793	1	8
641.132	1	9
641.472	1	-1
641.811	1	-2
642.150	1	6
642.489	1	-7
642.828	1	12
643.167	1	0
643.506	1	-2
643.845	1	-7
644.184	1	-1
644.524	1	-1
644.863	1	0
645.202	1	7
645.541	1	-12
645.880	1	-6
646.219	1	5
646.558	1	-4
646.897	1	-2
647.236	1	2
647.575	1	10
647.914	1	-6
648.253	1	4
648.592	1	-6
648.931	1	3
649.270	1	8
649.610	1	0
649.949	1	1
650.288	1	2
650.627	1	-6
650.966	1	1
651.305	1	3
651.644	1	-7
651.983	1	-3
652.322	1	7
652.661	1	-7
653.000	1	-2
653.339	1	3
653.678	1	-3
654.017	1	4
654.356	1	7
654.695	1	-10
655.034	1	6
655.373	1	-8
655.712	1	-5
656.051	1	12
656.390	1	7
656.729	1	11
657.068	1	-6
657.406	1	0
657.745	1	4
658.084	1	8
658.423	1	-7
658.762	1	-14
659.101	1	6
659.440	1	8
659.779	1	2
660.118	1	2
660.457	1	-8
660.796	1	-1
661.135	1	3
661.474	1	-3
661.813	1	-5
662.152	1	14
662.491	1	-5
662.829	1	-3
663.168	1	1
663.507	1	4
663.846	1	4
664.185	1	-6
664.524	1	-8
664.863	1	1
665.202	1	0
665.541	1	-5
665.879	1	-2
666.218	1	-4
666.557	1	-7
666.896	1	-2
667.235	1	2
667.574	1	0
667.913	1	-2
668.251	1	-1
668.590	1	0
668.929	1	2
669.268	1	-5
669.607	1	-8
669.946	1	12
670.285	1	-2
670.623	1	6
670.962	1	-4
671.301	1	-9
671.640	1	-10
671.979	1	2
672.317	1	-12
672.656	1	4
672.995	1	-2
673.334	1	7
673.673	1	16
674.011	1	4
674.350	1	-4
674.689	1	-2
675.028	1	1
675.367	1	15
675.705	1	-6
676.044	1	-4
676.383	1	-10
676.722	1	5
677.060	1	5
677.399	1	1
677.738	1	3
678.077	1	-1
678.416	1	-2
678.754	1	-5
679.093	1	4
679.432	1	0
679.771	1	-2
680.109	1	4
680.448	1	0
680.787	1	5
681.125	1	4
681.464	1	2
681.803	1	-5
682.142	1	7
682.480	1	-1
682.819	1	-8
683.158	1	2
683.496	1	-5
683.835	1	7
684.174	1	-10
684.512	1	0
684.851	1	1
685.190	1	10
685.529	1	0
685.867	1	-2
686.206	1	1
686.545	1	6
686.883	1	-7
687.222	1	-5
687.561	1	7
687.899	1	5
688.238	1	-4
688.577	1	1
688.746	1	0