File: Analysis/GaN_68K_200ms/GaN_sample E_spot4_UVVIS_68 K_200um_200 ms 2x2mm1_221.txt
340.368	1	-3
340.710	1	-5
341.052	1	2
341.394	1	9
341.737	1	4
342.079	1	-9
342.421	1	-4
342.763	1	-3
343.105	1	10
343.447	1	11
343.789	1	-2
344.131	1	-7
344.473	1	2
344.815	1	9
345.157	1	5
345.499	1	10
345.841	1	5
346.183	1	2
346.526	1	11
346.868	1	2
347.210	1	3
347.552	1	1
347.894	1	5
348.236	1	3
348.578	1	7
348.920	1	13
349.262	1	0
349.604	1	15
349.946	1	9
350.288	1	6
350.630	1	-7
350.972	1	5
351.314	1	-4
351.656	1	2
351.998	1	1
352.340	1	-3
352.682	1	4
353.024	1	3
353.366	1	16
353.708	1	1
354.050	1	5
354.392	1	14
354.734	1	5
355.076	1	12
355.418	1	4
355.760	1	12
356.102	1	2
356.444	1	8
356.785	1	11
357.127	1	2
357.469	1	-5
357.811	1	19
358.153	1	6
358.495	1	8
358.837	1	12
359.179	1	1
359.521	1	6
359.863	1	-9
360.205	1	-3
360.547	1	9
360.889	1	10
361.231	1	8
361.572	1	9
361.914	1	8
362.256	1	22
362.598	1	8
362.940	1	10
363.282	1	8
363.624	1	7
363.966	1	11
364.308	1	1
364.649	1	13
364.991	1	10
365.333	1	18
365.675	1	5
366.017	1	21
366.359	1	13
366.701	1	9
367.042	1	23
367.384	1	19
367.726	1	20
368.068	1	16
368.410	1	14
368.752	1	13
369.093	1	22
369.435	1	4
369.777	1	11
370.119	1	6
370.461	1	15
370.803	1	7
371.144	1	17
371.486	1	14
371.828	1	11
372.170	1	15
372.512	1	11
372.853	1	18
373.195	1	2
373.537	1	10
373.879	1	15
374.220	1	6
374.562	1	7
374.904	1	16
375.246	1	8
375.588	1	8
375.929	1	13
376.271	1	13
376.613	1	8
376.955	1	1
377.296	1	15
377.638	1	11
377.980	1	13
378.321	1	19
378.663	1	8
379.005	1	13
379.347	1	8
379.688	1	9
380.030	1	0
380.372	1	0
380.714	1	10
381.055	1	9
381.397	1	2
381.739	1	9
382.080	1	2
382.422	1	12
382.764	1	6
383.105	1	3
383.447	1	16
383.789	1	7
384.130	1	7
384.472	1	12
384.814	1	17
385.156	1	27
385.497	1	18
385.839	1	22
386.180	1	21
386.522	1	23
386.864	1	9
387.205	1	19
387.547	1	14
387.889	1	24
388.230	1	13
388.572	1	20
388.914	1	28
389.255	1	28
389.597	1	12
389.939	1	22
390.280	1	29
390.622	1	18
390.963	1	21
391.305	1	16
391.647	1	15
391.988	1	7
392.330	1	18
392.671	1	24
393.013	1	24
393.355	1	28
393.696	1	7
394.038	1	13
394.379	1	7
394.721	1	16
395.062	1	6
395.404	1	19
395.746	1	15
396.087	1	17
396.429	1	21
396.770	1	10
397.112	1	8
397.453	1	3
397.795	1	25
398.136	1	22
398.478	1	5
398.819	1	24
399.161	1	26
399.503	1	13
399.844	1	14
400.186	1	21
400.527	1	15
400.869	1	24
401.210	1	12
401.552	1	28
401.893	1	10
402.235	1	20
402.576	1	22
402.918	1	4
403.259	1	19
403.601	1	10
403.942	1	8
404.284	1	10
404.625	1	19
404.967	1	14
405.308	1	5
405.649	1	8
405.991	1	19
406.332	1	9
406.674	1	15
407.015	1	2
407.357	1	5
407.698	1	-3
408.040	1	4
408.381	1	18
408.722	1	11
409.064	1	13
409.405	1	10
409.747	1	7
410.088	1	15
410.430	1	15
410.771	1	15
411.112	1	14
411.454	1	25
411.795	1	18
412.137	1	19
412.478	1	13
412.819	1	6
413.161	1	14
413.502	1	8
413.844	1	17
414.185	1	16
414.526	1	10
414.868	1	16
415.209	1	3
415.550	1	6
415.892	1	21
416.233	1	13
416.575	1	15
416.916	1	8
417.257	1	8
417.599	1	16
417.940	1	9
418.281	1	16
418.623	1	5
418.964	1	9
419.305	1	11
419.647	1	10
419.988	1	3
420.329	1	23
420.671	1	5
421.012	1	20
421.353	1	16
421.695	1	9
422.036	1	-5
422.377	1	12
422.718	1	15
423.060	1	8
423.401	1	14
423.742	1	10
424.084	1	11
424.425	1	15
424.766	1	10
425.107	1	9
425.449	1	12
425.790	1	11
426.131	1	12
426.472	1	10
426.814	1	18
427.155	1	-1
427.496	1	14
427.837	1	-5
428.179	1	3
428.520	1	2
428.861	1	5
429.202	1	18
429.544	1	6
429.885	1	2
430.226	1	3
430.567	1	11
430.909	1	10
431.250	1	-2
431.591	1	3
431.932	1	7
432.273	1	0
432.615	1	7
432.956	1	0
433.297	1	16
433.638	1	5
433.979	1	10
434.320	1	6
434.662	1	-3
435.003	1	5
435.344	1	9
435.685	1	16
436.026	1	6
436.368	1	11
436.709	1	-2
437.050	1	12
437.391	1	10
437.732	1	14
438.073	1	14
438.414	1	5
438.756	1	19
439.097	1	15
439.438	1	11
439.779	1	7
440.120	1	5
440.461	1	0
440.802	1	8
441.143	1	10
441.485	1	1
441.826	1	5
442.167	1	4
442.508	1	12
442.849	1	12
443.190	1	1
443.531	1	2
443.872	1	3
444.213	1	-5
444.554	1	5
444.895	1	9
445.237	1	-1
445.578	1	22
445.919	1	9
446.260	1	11
446.601	1	1
446.942	1	7
447.283	1	3
447.624	1	13
447.965	1	-5
448.306	1	10
448.647	1	20
448.988	1	-5
449.329	1	8
449.670	1	17
450.011	1	10
450.352	1	18
450.693	1	5
451.034	1	2
451.375	1	12
451.716	1	18
452.057	1	17
452.398	1	6
452.739	1	-3
453.080	1	16
453.421	1	-1
453.762	1	1
454.103	1	11
454.444	1	19
454.785	1	-7
455.126	1	2
455.467	1	3
455.808	1	4
456.149	1	-3
456.490	1	9
456.831	1	15
457.172	1	2
457.513	1	16
457.854	1	0
458.195	1	-2
458.536	1	10
458.877	1	2
459.218	1	8
459.559	1	2
459.899	1	13
460.240	1	6
460.581	1	15
460.922	1	11
461.263	1	1
461.604	1	4
461.945	1	14
462.286	1	4
462.627	1	7
462.968	1	-7
463.309	1	1
463.649	1	9
463.990	1	6
464.331	1	-1
464.672	1	5
465.013	1	0
465.354	1	4
465.695	1	18
466.036	1	12
466.376	1	-8
466.717	1	7
467.058	1	15
467.399	1	1
467.740	1	5
468.081	1	-2
468.422	1	13
468.762	1	-5
469.103	1	2
469.444	1	3
469.785	1	8
470.126	1	8
470.467	1	2
470.807	1	6
471.148	1	3
471.489	1	-6
471.830	1	21
472.171	1	4
472.511	1	8
472.852	1	3
473.193	1	-3
473.534	1	1
473.875	1	12
474.215	1	-4
474.556	1	-8
474.897	1	5
475.238	1	2
475.578	1	0
475.919	1	8
476.260	1	9
476.601	1	9
476.942	1	4
477.282	1	-8
477.623	1	5
477.964	1	11
478.305	1	12
478.645	1	-7
478.986	1	-1
479.327	1	0
479.667	1	8
480.008	1	6
480.349	1	-1
480.690	1	1
481.030	1	5
481.371	1	11
481.712	1	6
482.053	1	8
482.393	1	-8
482.734	1	2
483.075	1	17
483.415	1	1
483.756	1	13
484.097	1	-1
484.437	1	-4
484.778	1	12
485.119	1	9
485.459	1	8
485.800	1	0
486.141	1	-2
486.481	1	0
486.822	1	3
487.163	1	0
487.503	1	-3
487.844	1	5
488.185	1	-2
488.525	1	-2
488.866	1	16
489.207	1	14
489.547	1	9
489.888	1	4
490.228	1	1
490.569	1	8
490.910	1	6
491.250	1	-2
491.591	1	-8
491.932	1	9
492.272	1	15
492.613	1	8
492.953	1	11
493.294	1	17
493.635	1	1
493.975	1	3
494.316	1	15
494.656	1	6
494.997	1	10
495.337	1	10
495.678	1	17
496.019	1	2
496.359	1	7
496.700	1	7
497.040	1	-2
497.381	1	-9
497.721	1	0
498.062	1	-1
498.403	1	9
498.743	1	14
499.084	1	-8
499.424	1	12
499.765	1	7
500.105	1	10
500.446	1	10
500.786	1	11
501.127	1	14
501.467	1	9
501.808	1	-7
502.148	1	13
502.489	1	14
502.829	1	5
503.170	1	13
503.510	1	2
503.851	1	3
504.191	1	10
504.532	1	1
504.872	1	5
505.213	1	4
505.553	1	15
505.894	1	12
506.234	1	13
506.575	1	9
506.915	1	3
507.256	1	6
507.596	1	22
507.936	1	13
508.277	1	-1
508.617	1	12
508.958	1	20
509.298	1	17
509.639	1	11
509.979	1	4
510.319	1	20
510.660	1	5
511.000	1	13
511.341	1	-1
511.681	1	13
512.022	1	7
512.362	1	7
512.702	1	7
513.043	1	9
513.383	1	4
513.724	1	16
514.064	1	14
514.404	1	6
514.745	1	1
515.085	1	10
515.425	1	10
515.766	1	1
516.106	1	-1
516.447	1	8
516.787	1	-3
517.127	1	12
517.468	1	6
517.808	1	16
518.148	1	12
518.489	1	10
518.829	1	7
519.169	1	22
519.510	1	13
519.850	1	-1
520.190	1	15
520.531	1	7
520.871	1	6
521.211	1	11
521.552	1	15
521.892	1	3
522.232	1	-2
522.573	1	15
522.913	1	16
523.253	1	-4
523.593	1	10
523.934	1	20
524.274	1	1
524.614	1	26
524.955	1	11
525.295	1	6
525.635	1	18
525.975	1	1
526.316	1	15
526.656	1	24
526.996	1	27
527.337	1	13
527.677	1	20
528.017	1	7
528.357	1	21
528.698	1	7
529.038	1	21
529.378	1	17
529.718	1	14
530.058	1	12
530.399	1	21
530.739	1	13
531.079	1	21
531.419	1	27
531.760	1	14
532.100	1	10
532.440	1	8
532.780	1	10
533.120	1	13
533.461	1	16
533.801	1	13
534.141	1	19
534.481	1	16
534.821	1	16
535.162	1	11
535.502	1	13
535.842	1	15
536.182	1	11
536.522	1	14
536.862	1	18
537.203	1	22
537.543	1	13
537.883	1	20
538.223	1	25
538.563	1	11
538.903	1	12
539.243	1	14
539.584	1	12
539.924	1	18
540.264	1	15
540.604	1	19
540.944	1	20
541.284	1	9
541.624	1	4
541.964	1	25
542.305	1	3
542.645	1	2
542.985	1	7
543.325	1	3
543.665	1	13
544.005	1	15
544.345	1	7
544.685	1	11
545.025	1	4
545.365	1	14
545.705	1	13
546.045	1	17
546.386	1	19
546.726	1	8
547.066	1	8
547.406	1	15
547.746	1	18
548.086	1	15
548.426	1	13
548.766	1	18
549.106	1	16
549.446	1	5
549.786	1	18
550.126	1	16
550.466	1	4
550.806	1	29
551.146	1	2
551.486	1	8
551.826	1	18
552.166	1	12
552.506	1	3
552.846	1	13
553.186	1	8
553.526	1	6
553.866	1	20
554.206	1	6
554.546	1	2
554.886	1	9
555.226	1	3
555.566	1	14
555.906	1	11
556.246	1	6
556.586	1	16
556.926	1	16
557.266	1	14
557.606	1	5
557.946	1	18
558.286	1	18
558.626	1	7
558.966	1	10
559.306	1	2
559.646	1	13
559.986	1	11
560.325	1	-9
560.665	1	16
561.005	1	17
561.345	1	7
561.685	1	7
562.025	1	6
562.365	1	12
562.705	1	6
563.045	1	11
563.385	1	7
563.725	1	5
564.064	1	12
564.404	1	4
564.744	1	12
565.084	1	7
565.424	1	2
565.764	1	7
566.104	1	9
566.444	1	15
566.783	1	-1
567.123	1	23
567.463	1	2
567.803	1	-6
568.143	1	0
568.483	1	-7
568.823	1	15
569.162	1	11
569.502	1	9
569.842	1	2
570.182	1	5
570.522	1	7
570.862	1	8
571.201	1	10
571.541	1	4
571.881	1	15
572.221	1	3
572.561	1	2
572.900	1	26
573.240	1	-3
573.580	1	2
573.920	1	6
574.260	1	6
574.599	1	8
574.939	1	6
575.279	1	3
575.619	1	6
575.959	1	3
576.298	1	0
576.638	1	10
576.978	1	2
577.318	1	7
577.657	1	-7
577.997	1	-2
578.337	1	0
578.677	1	2
579.016	1	19
579.356	1	3
579.696	1	9
580.036	1	2
580.375	1	3
580.715	1	9
581.055	1	3
581.394	1	2
581.734	1	11
582.074	1	5
582.414	1	7
582.753	1	5
583.093	1	-1
583.433	1	-6
583.772	1	7
584.112	1	6
584.452	1	2
584.791	1	8
585.131	1	-3
585.471	1	5
585.811	1	-2
586.150	1	6
586.490	1	-3
586.830	1	0
587.169	1	-4
587.509	1	5
587.849	1	12
588.188	1	3
588.528	1	11
588.867	1	7
589.207	1	-8
589.547	1	0
589.886	1	-8
590.226	1	11
590.566	1	6
590.905	1	10
591.245	1	5
591.585	1	7
591.924	1	5
592.264	1	10
592.603	1	-4
592.943	1	4
593.283	1	5
593.622	1	1
593.962	1	10
594.301	1	15
594.641	1	6
594.981	1	1
595.320	1	18
595.660	1	-1
595.999	1	9
596.339	1	8
596.678	1	8
597.018	1	4
597.358	1	5
597.697	1	-4
598.037	1	2
598.376	1	16
598.716	1	0
599.055	1	12
599.395	1	7
599.734	1	-3
600.074	1	-4
600.413	1	-2
600.753	1	5
601.092	1	1
601.432	1	7
601.771	1	4
602.111	1	0
602.451	1	-3
602.790	1	1
603.130	1	15
603.469	1	0
603.809	1	19
604.148	1	12
604.487	1	5
604.827	1	-2
605.166	1	-6
605.506	1	9
605.845	1	4
606.185	1	7
606.524	1	-4
606.864	1	-1
607.203	1	17
607.543	1	-3
607.882	1	-2
608.222	1	6
608.561	1	13
608.901	1	13
609.240	1	3
609.579	1	9
609.919	1	-1
610.258	1	20
610.598	1	7
610.937	1	5
611.277	1	12
611.616	1	-7
611.955	1	21
612.295	1	3
612.634	1	-2
612.974	1	6
613.313	1	7
613.652	1	-7
613.992	1	5
614.331	1	2
614.671	1	10
615.010	1	6
615.349	1	-4
615.689	1	5
616.028	1	15
616.368	1	4
616.707	1	4
617.046	1	6
617.386	1	1
617.725	1	16
618.064	1	10
618.404	1	12
618.743	1	10
619.082	1	4
619.422	1	2
619.761	1	2
620.100	1	0
620.440	1	10
620.779	1	10
621.118	1	7
621.458	1	3
621.797	1	2
622.136	1	5
622.476	1	7
622.815	1	4
623.154	1	5
623.494	1	2
623.833	1	2
624.172	1	14
624.511	1	5
624.851	1	-4
625.190	1	7
625.529	1	7
625.869	1	8
626.208	1	3
626.547	1	8
626.886	1	3
627.226	1	7
627.565	1	7
627.904	1	-2
628.243	1	-1
628.583	1	5
628.922	1	7
629.261	1	17
629.600	1	4
629.940	1	2
630.279	1	-8
630.618	1	-1
630.957	1	2
631.297	1	2
631.636	1	3
631.975	1	4
632.314	1	16
632.653	1	-2
632.993	1	13
633.332	1	12
633.671	1	-1
634.010	1	-4
634.349	1	6
634.689	1	2
635.028	1	3
635.367	1	-2
635.706	1	2
636.045	1	6
636.384	1	16
636.724	1	2
637.063	1	14
637.402	1	6
637.741	1	13
638.080	1	7
638.419	1	9
638.759	1	0
639.098	1	12
639.437	1	-6
639.776	1	-2
640.115	1	7
640.454	1	17
640.793	1	8
641.132	1	15
641.472	1	-3
641.811	1	1
642.150	1	8
642.489	1	2
642.828	1	-4
643.167	1	12
643.506	1	5
643.845	1	1
644.184	1	12
644.524	1	-10
644.863	1	0
645.202	1	4
645.541	1	-5
645.880	1	4
646.219	1	2
646.558	1	4
646.897	1	4
647.236	1	0
647.575	1	0
647.914	1	-10
648.253	1	5
648.592	1	5
648.931	1	6
649.270	1	10
649.610	1	7
649.949	1	3
650.288	1	6
650.627	1	5
650.966	1	3
651.305	1	-4
651.644	1	9
651.983	1	10
652.322	1	17
652.661	1	10
653.000	1	-3
653.339	1	-6
653.678	1	-2
654.017	1	9
654.356	1	12
654.695	1	12
655.034	1	4
655.373	1	2
655.712	1	-5
656.051	1	11
656.390	1	3
656.729	1	9
657.068	1	-3
657.406	1	0
657.745	1	8
658.084	1	8
658.423	1	2
658.762	1	-7
659.101	1	-8
659.440	1	4
659.779	1	1
660.118	1	5
660.457	1	0
660.796	1	8
661.135	1	5
661.474	1	7
661.813	1	3
662.152	1	-1
662.491	1	3
662.829	1	0
663.168	1	3
663.507	1	-1
663.846	1	12
664.185	1	4
664.524	1	-7
664.863	1	9
665.202	1	-5
665.541	1	2
665.879	1	3
666.218	1	-7
666.557	1	-3
666.896	1	7
667.235	1	1
667.574	1	-1
667.913	1	7
668.251	1	4
668.590	1	0
668.929	1	-1
669.268	1	2
669.607	1	-7
669.946	1	12
670.285	1	11
670.623	1	16
670.962	1	5
671.301	1	-2
671.640	1	-9
671.979	1	16
672.317	1	4
672.656	1	8
672.995	1	7
673.334	1	5
673.673	1	21
674.011	1	3
674.350	1	-2
674.689	1	-6
675.028	1	8
675.367	1	4
675.705	1	-10
676.044	1	-3
676.383	1	-3
676.722	1	11
677.060	1	3
677.399	1	5
677.738	1	6
678.077	1	4
678.416	1	7
678.754	1	-11
679.093	1	1
679.432	1	-2
679.771	1	-2
680.109	1	7
680.448	1	10
680.787	1	10
681.125	1	14
681.464	1	9
681.803	1	-2
682.142	1	8
682.480	1	5
682.819	1	4
683.158	1	-2
683.496	1	-8
683.835	1	-2
684.174	1	10
684.512	1	3
684.851	1	1
685.190	1	3
685.529	1	10
685.867	1	2
686.206	1	9
686.545	1	13
686.883	1	-5
687.222	1	-3
687.561	1	7
687.899	1	12
688.238	1	3
688.577	1	-4
688.746	1	4