File: Analysis/GaN_68K_200ms/GaN_sample E_spot4_UVVIS_68 K_200um_200 ms 2x2mm1_275.txt
340.368	1	5
340.710	1	-4
341.052	1	10
341.394	1	-3
341.737	1	3
342.079	1	-9
342.421	1	1
342.763	1	13
343.105	1	4
343.447	1	4
343.789	1	-2
344.131	1	0
344.473	1	5
344.815	1	7
345.157	1	14
345.499	1	10
345.841	1	14
346.183	1	2
346.526	1	-4
346.868	1	7
347.210	1	-3
347.552	1	5
347.894	1	8
348.236	1	5
348.578	1	5
348.920	1	14
349.262	1	-7
349.604	1	3
349.946	1	14
350.288	1	6
350.630	1	-6
350.972	1	1
351.314	1	-3
351.656	1	-2
351.998	1	0
352.340	1	3
352.682	1	5
353.024	1	5
353.366	1	-1
353.708	1	0
354.050	1	6
354.392	1	12
354.734	1	8
355.076	1	3
355.418	1	-8
355.760	1	1
356.102	1	-2
356.444	1	11
356.785	1	14
357.127	1	8
357.469	1	4
357.811	1	21
358.153	1	7
358.495	1	3
358.837	1	-2
359.179	1	11
359.521	1	14
359.863	1	0
360.205	1	-3
360.547	1	-2
360.889	1	-1
361.231	1	4
361.572	1	-7
361.914	1	12
362.256	1	8
362.598	1	5
362.940	1	10
363.282	1	8
363.624	1	-2
363.966	1	9
364.308	1	-1
364.649	1	15
364.991	1	14
365.333	1	19
365.675	1	2
366.017	1	8
366.359	1	6
366.701	1	2
367.042	1	17
367.384	1	19
367.726	1	8
368.068	1	5
368.410	1	15
368.752	1	4
369.093	1	9
369.435	1	6
369.777	1	10
370.119	1	8
370.461	1	8
370.803	1	7
371.144	1	10
371.486	1	16
371.828	1	9
372.170	1	14
372.512	1	-1
372.853	1	9
373.195	1	-3
373.537	1	12
373.879	1	27
374.220	1	5
374.562	1	5
374.904	1	7
375.246	1	8
375.588	1	6
375.929	1	4
376.271	1	0
376.613	1	1
376.955	1	-1
377.296	1	5
377.638	1	0
377.980	1	6
378.321	1	4
378.663	1	-3
379.005	1	10
379.347	1	12
379.688	1	-1
380.030	1	-8
380.372	1	9
380.714	1	14
381.055	1	-3
381.397	1	3
381.739	1	7
382.080	1	-2
382.422	1	17
382.764	1	3
383.105	1	11
383.447	1	13
383.789	1	16
384.130	1	4
384.472	1	10
384.814	1	15
385.156	1	11
385.497	1	12
385.839	1	8
386.180	1	13
386.522	1	12
386.864	1	12
387.205	1	10
387.547	1	2
387.889	1	26
388.230	1	15
388.572	1	7
388.914	1	19
389.255	1	18
389.597	1	2
389.939	1	22
390.280	1	11
390.622	1	9
390.963	1	18
391.305	1	9
391.647	1	9
391.988	1	4
392.330	1	16
392.671	1	17
393.013	1	12
393.355	1	22
393.696	1	12
394.038	1	4
394.379	1	-1
394.721	1	10
395.062	1	2
395.404	1	23
395.746	1	7
396.087	1	8
396.429	1	16
396.770	1	14
397.112	1	10
397.453	1	8
397.795	1	9
398.136	1	12
398.478	1	7
398.819	1	23
399.161	1	13
399.503	1	1
399.844	1	-4
400.186	1	16
400.527	1	6
400.869	1	21
401.210	1	2
401.552	1	20
401.893	1	19
402.235	1	21
402.576	1	18
402.918	1	2
403.259	1	3
403.601	1	6
403.942	1	23
404.284	1	8
404.625	1	4
404.967	1	11
405.308	1	9
405.649	1	13
405.991	1	18
406.332	1	9
406.674	1	14
407.015	1	0
407.357	1	13
407.698	1	6
408.040	1	7
408.381	1	9
408.722	1	9
409.064	1	-1
409.405	1	4
409.747	1	2
410.088	1	7
410.430	1	19
410.771	1	9
411.112	1	9
411.454	1	10
411.795	1	8
412.137	1	12
412.478	1	15
412.819	1	3
413.161	1	12
413.502	1	3
413.844	1	-1
414.185	1	9
414.526	1	10
414.868	1	15
415.209	1	6
415.550	1	8
415.892	1	0
416.233	1	3
416.575	1	3
416.916	1	10
417.257	1	9
417.599	1	10
417.940	1	-1
418.281	1	9
418.623	1	2
418.964	1	2
419.305	1	8
419.647	1	16
419.988	1	-2
420.329	1	7
420.671	1	7
421.012	1	23
421.353	1	13
421.695	1	4
422.036	1	1
422.377	1	17
422.718	1	2
423.060	1	-2
423.401	1	18
423.742	1	8
424.084	1	8
424.425	1	3
424.766	1	8
425.107	1	6
425.449	1	11
425.790	1	-1
426.131	1	9
426.472	1	-2
426.814	1	10
427.155	1	7
427.496	1	17
427.837	1	0
428.179	1	-2
428.520	1	2
428.861	1	6
429.202	1	7
429.544	1	7
429.885	1	9
430.226	1	6
430.567	1	17
430.909	1	-1
431.250	1	-5
431.591	1	9
431.932	1	10
432.273	1	-6
432.615	1	8
432.956	1	0
433.297	1	14
433.638	1	5
433.979	1	6
434.320	1	3
434.662	1	1
435.003	1	13
435.344	1	13
435.685	1	3
436.026	1	2
436.368	1	2
436.709	1	5
437.050	1	13
437.391	1	6
437.732	1	5
438.073	1	14
438.414	1	6
438.756	1	6
439.097	1	13
439.438	1	11
439.779	1	4
440.120	1	8
440.461	1	-2
440.802	1	5
441.143	1	11
441.485	1	-1
441.826	1	-2
442.167	1	8
442.508	1	-3
442.849	1	10
443.190	1	-4
443.531	1	7
443.872	1	5
444.213	1	-2
444.554	1	4
444.895	1	-3
445.237	1	1
445.578	1	12
445.919	1	-3
446.260	1	9
446.601	1	2
446.942	1	4
447.283	1	7
447.624	1	6
447.965	1	-4
448.306	1	5
448.647	1	6
448.988	1	-8
449.329	1	-2
449.670	1	13
450.011	1	5
450.352	1	7
450.693	1	0
451.034	1	8
451.375	1	15
451.716	1	3
452.057	1	17
452.398	1	4
452.739	1	3
453.080	1	12
453.421	1	6
453.762	1	2
454.103	1	16
454.444	1	10
454.785	1	-2
455.126	1	-3
455.467	1	4
455.808	1	7
456.149	1	-4
456.490	1	0
456.831	1	13
457.172	1	6
457.513	1	6
457.854	1	-4
458.195	1	3
458.536	1	2
458.877	1	-2
459.218	1	11
459.559	1	5
459.899	1	12
460.240	1	5
460.581	1	8
460.922	1	6
461.263	1	13
461.604	1	-1
461.945	1	5
462.286	1	5
462.627	1	2
462.968	1	-8
463.309	1	10
463.649	1	8
463.990	1	11
464.331	1	16
464.672	1	6
465.013	1	2
465.354	1	10
465.695	1	10
466.036	1	7
466.376	1	2
466.717	1	4
467.058	1	6
467.399	1	3
467.740	1	7
468.081	1	5
468.422	1	1
468.762	1	-10
469.103	1	1
469.444	1	1
469.785	1	13
470.126	1	6
470.467	1	5
470.807	1	4
471.148	1	2
471.489	1	5
471.830	1	16
472.171	1	5
472.511	1	12
472.852	1	-3
473.193	1	-7
473.534	1	-2
473.875	1	-1
474.215	1	-2
474.556	1	0
474.897	1	11
475.238	1	7
475.578	1	7
475.919	1	0
476.260	1	-4
476.601	1	5
476.942	1	8
477.282	1	-2
477.623	1	13
477.964	1	7
478.305	1	10
478.645	1	2
478.986	1	-2
479.327	1	2
479.667	1	5
480.008	1	7
480.349	1	0
480.690	1	-2
481.030	1	0
481.371	1	5
481.712	1	1
482.053	1	12
482.393	1	0
482.734	1	10
483.075	1	7
483.415	1	0
483.756	1	4
484.097	1	3
484.437	1	-1
484.778	1	5
485.119	1	10
485.459	1	4
485.800	1	-8
486.141	1	-1
486.481	1	4
486.822	1	7
487.163	1	-4
487.503	1	-1
487.844	1	2
488.185	1	-5
488.525	1	2
488.866	1	12
489.207	1	21
489.547	1	1
489.888	1	-9
490.228	1	-10
490.569	1	10
490.910	1	0
491.250	1	7
491.591	1	-9
491.932	1	3
492.272	1	1
492.613	1	14
492.953	1	5
493.294	1	8
493.635	1	3
493.975	1	1
494.316	1	12
494.656	1	2
494.997	1	2
495.337	1	18
495.678	1	14
496.019	1	3
496.359	1	5
496.700	1	0
497.040	1	11
497.381	1	-11
497.721	1	-4
498.062	1	-9
498.403	1	8
498.743	1	-3
499.084	1	-8
499.424	1	18
499.765	1	8
500.105	1	-1
500.446	1	4
500.786	1	10
501.127	1	12
501.467	1	1
501.808	1	-2
502.148	1	9
502.489	1	9
502.829	1	6
503.170	1	2
503.510	1	11
503.851	1	-1
504.191	1	-5
504.532	1	3
504.872	1	-2
505.213	1	3
505.553	1	7
505.894	1	8
506.234	1	6
506.575	1	6
506.915	1	10
507.256	1	5
507.596	1	0
507.936	1	14
508.277	1	1
508.617	1	8
508.958	1	8
509.298	1	23
509.639	1	3
509.979	1	6
510.319	1	-2
510.660	1	15
511.000	1	11
511.341	1	-3
511.681	1	4
512.022	1	-7
512.362	1	10
512.702	1	-2
513.043	1	7
513.383	1	-2
513.724	1	10
514.064	1	5
514.404	1	12
514.745	1	3
515.085	1	8
515.425	1	0
515.766	1	4
516.106	1	3
516.447	1	2
516.787	1	-1
517.127	1	10
517.468	1	3
517.808	1	5
518.148	1	3
518.489	1	5
518.829	1	-3
519.169	1	13
519.510	1	9
519.850	1	0
520.190	1	9
520.531	1	6
520.871	1	-2
521.211	1	9
521.552	1	9
521.892	1	4
522.232	1	-6
522.573	1	8
522.913	1	12
523.253	1	11
523.593	1	-10
523.934	1	13
524.274	1	3
524.614	1	10
524.955	1	11
525.295	1	-4
525.635	1	14
525.975	1	1
526.316	1	5
526.656	1	14
526.996	1	16
527.337	1	4
527.677	1	21
528.017	1	-1
528.357	1	18
528.698	1	2
529.038	1	14
529.378	1	9
529.718	1	9
530.058	1	9
530.399	1	11
530.739	1	2
531.079	1	10
531.419	1	14
531.760	1	14
532.100	1	15
532.440	1	3
532.780	1	6
533.120	1	3
533.461	1	17
533.801	1	13
534.141	1	13
534.481	1	2
534.821	1	12
535.162	1	13
535.502	1	16
535.842	1	14
536.182	1	2
536.522	1	13
536.862	1	12
537.203	1	14
537.543	1	10
537.883	1	12
538.223	1	19
538.563	1	8
538.903	1	12
539.243	1	10
539.584	1	6
539.924	1	1
540.264	1	13
540.604	1	11
540.944	1	4
541.284	1	7
541.624	1	6
541.964	1	5
542.305	1	-1
542.645	1	12
542.985	1	4
543.325	1	7
543.665	1	8
544.005	1	7
544.345	1	-4
544.685	1	15
545.025	1	1
545.365	1	6
545.705	1	6
546.045	1	13
546.386	1	14
546.726	1	5
547.066	1	6
547.406	1	14
547.746	1	12
548.086	1	12
548.426	1	-4
548.766	1	12
549.106	1	13
549.446	1	8
549.786	1	7
550.126	1	5
550.466	1	4
550.806	1	13
551.146	1	11
551.486	1	6
551.826	1	10
552.166	1	8
552.506	1	4
552.846	1	6
553.186	1	8
553.526	1	13
553.866	1	13
554.206	1	0
554.546	1	3
554.886	1	9
555.226	1	-1
555.566	1	12
555.906	1	10
556.246	1	-3
556.586	1	13
556.926	1	11
557.266	1	11
557.606	1	6
557.946	1	19
558.286	1	7
558.626	1	9
558.966	1	2
559.306	1	4
559.646	1	2
559.986	1	0
560.325	1	-6
560.665	1	18
561.005	1	9
561.345	1	11
561.685	1	4
562.025	1	13
562.365	1	4
562.705	1	6
563.045	1	10
563.385	1	6
563.725	1	8
564.064	1	12
564.404	1	4
564.744	1	5
565.084	1	2
565.424	1	5
565.764	1	11
566.104	1	4
566.444	1	7
566.783	1	3
567.123	1	11
567.463	1	9
567.803	1	-4
568.143	1	-3
568.483	1	-4
568.823	1	14
569.162	1	5
569.502	1	10
569.842	1	12
570.182	1	1
570.522	1	5
570.862	1	19
571.201	1	11
571.541	1	-8
571.881	1	8
572.221	1	9
572.561	1	-6
572.900	1	18
573.240	1	3
573.580	1	11
573.920	1	6
574.260	1	3
574.599	1	1
574.939	1	0
575.279	1	5
575.619	1	5
575.959	1	1
576.298	1	-6
576.638	1	4
576.978	1	4
577.318	1	11
577.657	1	-15
577.997	1	2
578.337	1	5
578.677	1	5
579.016	1	7
579.356	1	-2
579.696	1	1
580.036	1	4
580.375	1	3
580.715	1	19
581.055	1	11
581.394	1	-2
581.734	1	10
582.074	1	-1
582.414	1	11
582.753	1	9
583.093	1	-4
583.433	1	-4
583.772	1	7
584.112	1	10
584.452	1	7
584.791	1	10
585.131	1	0
585.471	1	3
585.811	1	-1
586.150	1	11
586.490	1	-6
586.830	1	3
587.169	1	-7
587.509	1	7
587.849	1	4
588.188	1	-7
588.528	1	5
588.867	1	10
589.207	1	-3
589.547	1	-1
589.886	1	0
590.226	1	7
590.566	1	6
590.905	1	-1
591.245	1	3
591.585	1	0
591.924	1	7
592.264	1	2
592.603	1	-2
592.943	1	0
593.283	1	8
593.622	1	9
593.962	1	9
594.301	1	22
594.641	1	-6
594.981	1	11
595.320	1	9
595.660	1	1
595.999	1	-3
596.339	1	10
596.678	1	3
597.018	1	14
597.358	1	5
597.697	1	1
598.037	1	12
598.376	1	6
598.716	1	-1
599.055	1	8
599.395	1	2
599.734	1	4
600.074	1	-5
600.413	1	5
600.753	1	0
601.092	1	-18
601.432	1	-2
601.771	1	7
602.111	1	-5
602.451	1	6
602.790	1	9
603.130	1	2
603.469	1	1
603.809	1	5
604.148	1	8
604.487	1	15
604.827	1	-10
605.166	1	3
605.506	1	0
605.845	1	4
606.185	1	5
606.524	1	0
606.864	1	-1
607.203	1	13
607.543	1	-1
607.882	1	-7
608.222	1	-5
608.561	1	11
608.901	1	1
609.240	1	2
609.579	1	5
609.919	1	7
610.258	1	9
610.598	1	10
610.937	1	5
611.277	1	5
611.616	1	-1
611.955	1	4
612.295	1	8
612.634	1	0
612.974	1	9
613.313	1	2
613.652	1	-9
613.992	1	2
614.331	1	-2
614.671	1	-1
615.010	1	9
615.349	1	7
615.689	1	-1
616.028	1	3
616.368	1	2
616.707	1	-1
617.046	1	17
617.386	1	-9
617.725	1	14
618.064	1	8
618.404	1	5
618.743	1	2
619.082	1	6
619.422	1	7
619.761	1	9
620.100	1	6
620.440	1	9
620.779	1	-3
621.118	1	-1
621.458	1	10
621.797	1	10
622.136	1	9
622.476	1	8
622.815	1	13
623.154	1	1
623.494	1	10
623.833	1	-4
624.172	1	15
624.511	1	-3
624.851	1	-3
625.190	1	6
625.529	1	10
625.869	1	1
626.208	1	-2
626.547	1	4
626.886	1	-2
627.226	1	-4
627.565	1	9
627.904	1	9
628.243	1	-1
628.583	1	4
628.922	1	-3
629.261	1	11
629.600	1	8
629.940	1	3
630.279	1	2
630.618	1	1
630.957	1	-4
631.297	1	-1
631.636	1	3
631.975	1	1
632.314	1	9
632.653	1	-3
632.993	1	5
633.332	1	0
633.671	1	-1
634.010	1	2
634.349	1	4
634.689	1	11
635.028	1	8
635.367	1	-4
635.706	1	-7
636.045	1	4
636.384	1	7
636.724	1	1
637.063	1	4
637.402	1	14
637.741	1	14
638.080	1	-2
638.419	1	7
638.759	1	7
639.098	1	-2
639.437	1	-3
639.776	1	-1
640.115	1	1
640.454	1	11
640.793	1	5
641.132	1	2
641.472	1	-7
641.811	1	9
642.150	1	-2
642.489	1	-1
642.828	1	0
643.167	1	11
643.506	1	0
643.845	1	-3
644.184	1	13
644.524	1	-11
644.863	1	-4
645.202	1	3
645.541	1	-11
645.880	1	-3
646.219	1	1
646.558	1	3
646.897	1	4
647.236	1	6
647.575	1	3
647.914	1	-5
648.253	1	19
648.592	1	5
648.931	1	11
649.270	1	9
649.610	1	14
649.949	1	3
650.288	1	5
650.627	1	17
650.966	1	-1
651.305	1	6
651.644	1	1
651.983	1	7
652.322	1	5
652.661	1	3
653.000	1	6
653.339	1	5
653.678	1	-2
654.017	1	17
654.356	1	12
654.695	1	-2
655.034	1	3
655.373	1	-7
655.712	1	-1
656.051	1	0
656.390	1	1
656.729	1	6
657.068	1	0
657.406	1	9
657.745	1	2
658.084	1	9
658.423	1	-14
658.762	1	-7
659.101	1	6
659.440	1	12
659.779	1	1
660.118	1	-7
660.457	1	3
660.796	1	3
661.135	1	10
661.474	1	-5
661.813	1	3
662.152	1	5
662.491	1	7
662.829	1	-2
663.168	1	-13
663.507	1	-7
663.846	1	6
664.185	1	3
664.524	1	0
664.863	1	-1
665.202	1	-5
665.541	1	-1
665.879	1	6
666.218	1	-3
666.557	1	1
666.896	1	-4
667.235	1	9
667.574	1	5
667.913	1	3
668.251	1	6
668.590	1	-3
668.929	1	4
669.268	1	1
669.607	1	0
669.946	1	8
670.285	1	7
670.623	1	9
670.962	1	1
671.301	1	0
671.640	1	-13
671.979	1	16
672.317	1	-5
672.656	1	10
672.995	1	1
673.334	1	10
673.673	1	20
674.011	1	8
674.350	1	-8
674.689	1	-1
675.028	1	0
675.367	1	11
675.705	1	-10
676.044	1	1
676.383	1	-5
676.722	1	0
677.060	1	-1
677.399	1	5
677.738	1	-4
678.077	1	2
678.416	1	-5
678.754	1	-3
679.093	1	0
679.432	1	-6
679.771	1	7
680.109	1	10
680.448	1	5
680.787	1	4
681.125	1	0
681.464	1	-4
681.803	1	1
682.142	1	16
682.480	1	4
682.819	1	2
683.158	1	-3
683.496	1	-9
683.835	1	-1
684.174	1	1
684.512	1	-9
684.851	1	-7
685.190	1	8
685.529	1	-5
685.867	1	0
686.206	1	11
686.545	1	9
686.883	1	-6
687.222	1	0
687.561	1	0
687.899	1	-3
688.238	1	8
688.577	1	-12
688.746	1	2