File: Analysis/GaN_68K_200ms/GaN_sample E_spot4_UVVIS_68 K_200um_200 ms 2x2mm1_272.txt
340.368	1	-1
340.710	1	-4
341.052	1	9
341.394	1	7
341.737	1	7
342.079	1	-2
342.421	1	-4
342.763	1	-1
343.105	1	15
343.447	1	2
343.789	1	1
344.131	1	-5
344.473	1	-2
344.815	1	12
345.157	1	6
345.499	1	-1
345.841	1	9
346.183	1	-1
346.526	1	14
346.868	1	-1
347.210	1	5
347.552	1	-2
347.894	1	1
348.236	1	5
348.578	1	8
348.920	1	9
349.262	1	2
349.604	1	10
349.946	1	11
350.288	1	8
350.630	1	4
350.972	1	-4
351.314	1	-3
351.656	1	4
351.998	1	-3
352.340	1	1
352.682	1	-4
353.024	1	1
353.366	1	9
353.708	1	9
354.050	1	8
354.392	1	15
354.734	1	3
355.076	1	2
355.418	1	-1
355.760	1	0
356.102	1	6
356.444	1	2
356.785	1	15
357.127	1	13
357.469	1	8
357.811	1	11
358.153	1	-1
358.495	1	15
358.837	1	3
359.179	1	5
359.521	1	1
359.863	1	-4
360.205	1	13
360.547	1	0
360.889	1	5
361.231	1	10
361.572	1	3
361.914	1	9
362.256	1	1
362.598	1	6
362.940	1	8
363.282	1	8
363.624	1	13
363.966	1	-6
364.308	1	8
364.649	1	2
364.991	1	8
365.333	1	20
365.675	1	6
366.017	1	9
366.359	1	5
366.701	1	3
367.042	1	20
367.384	1	15
367.726	1	17
368.068	1	12
368.410	1	13
368.752	1	2
369.093	1	7
369.435	1	9
369.777	1	1
370.119	1	13
370.461	1	7
370.803	1	8
371.144	1	14
371.486	1	11
371.828	1	5
372.170	1	12
372.512	1	6
372.853	1	5
373.195	1	-2
373.537	1	10
373.879	1	14
374.220	1	7
374.562	1	5
374.904	1	10
375.246	1	5
375.588	1	3
375.929	1	10
376.271	1	4
376.613	1	11
376.955	1	-4
377.296	1	18
377.638	1	2
377.980	1	11
378.321	1	7
378.663	1	-8
379.005	1	13
379.347	1	10
379.688	1	1
380.030	1	1
380.372	1	1
380.714	1	16
381.055	1	13
381.397	1	-2
381.739	1	15
382.080	1	-7
382.422	1	14
382.764	1	6
383.105	1	15
383.447	1	13
383.789	1	13
384.130	1	5
384.472	1	4
384.814	1	14
385.156	1	21
385.497	1	15
385.839	1	16
386.180	1	12
386.522	1	20
386.864	1	6
387.205	1	10
387.547	1	8
387.889	1	24
388.230	1	20
388.572	1	19
388.914	1	28
389.255	1	20
389.597	1	8
389.939	1	23
390.280	1	16
390.622	1	13
390.963	1	22
391.305	1	14
391.647	1	19
391.988	1	11
392.330	1	15
392.671	1	14
393.013	1	22
393.355	1	26
393.696	1	10
394.038	1	8
394.379	1	14
394.721	1	19
395.062	1	1
395.404	1	11
395.746	1	5
396.087	1	6
396.429	1	9
396.770	1	17
397.112	1	9
397.453	1	7
397.795	1	18
398.136	1	16
398.478	1	16
398.819	1	21
399.161	1	12
399.503	1	6
399.844	1	8
400.186	1	23
400.527	1	17
400.869	1	19
401.210	1	4
401.552	1	25
401.893	1	14
402.235	1	19
402.576	1	14
402.918	1	8
403.259	1	-1
403.601	1	1
403.942	1	15
404.284	1	6
404.625	1	9
404.967	1	15
405.308	1	5
405.649	1	4
405.991	1	17
406.332	1	7
406.674	1	19
407.015	1	8
407.357	1	8
407.698	1	1
408.040	1	7
408.381	1	14
408.722	1	11
409.064	1	11
409.405	1	15
409.747	1	7
410.088	1	6
410.430	1	15
410.771	1	14
411.112	1	14
411.454	1	17
411.795	1	8
412.137	1	8
412.478	1	7
412.819	1	2
413.161	1	8
413.502	1	9
413.844	1	6
414.185	1	12
414.526	1	9
414.868	1	15
415.209	1	0
415.550	1	7
415.892	1	7
416.233	1	9
416.575	1	1
416.916	1	2
417.257	1	3
417.599	1	11
417.940	1	-6
418.281	1	9
418.623	1	0
418.964	1	11
419.305	1	9
419.647	1	3
419.988	1	-2
420.329	1	17
420.671	1	13
421.012	1	7
421.353	1	9
421.695	1	7
422.036	1	4
422.377	1	12
422.718	1	7
423.060	1	0
423.401	1	14
423.742	1	5
424.084	1	9
424.425	1	7
424.766	1	6
425.107	1	3
425.449	1	12
425.790	1	2
426.131	1	6
426.472	1	8
426.814	1	10
427.155	1	3
427.496	1	9
427.837	1	-3
428.179	1	-3
428.520	1	1
428.861	1	3
429.202	1	8
429.544	1	9
429.885	1	6
430.226	1	-2
430.567	1	15
430.909	1	1
431.250	1	1
431.591	1	8
431.932	1	8
432.273	1	1
432.615	1	5
432.956	1	8
433.297	1	3
433.638	1	0
433.979	1	4
434.320	1	0
434.662	1	-2
435.003	1	15
435.344	1	12
435.685	1	13
436.026	1	1
436.368	1	10
436.709	1	2
437.050	1	5
437.391	1	8
437.732	1	6
438.073	1	20
438.414	1	4
438.756	1	11
439.097	1	13
439.438	1	6
439.779	1	-2
440.120	1	-1
440.461	1	-1
440.802	1	8
441.143	1	17
441.485	1	2
441.826	1	-11
442.167	1	-4
442.508	1	-5
442.849	1	3
443.190	1	-7
443.531	1	4
443.872	1	-2
444.213	1	2
444.554	1	-5
444.895	1	1
445.237	1	-4
445.578	1	7
445.919	1	5
446.260	1	3
446.601	1	-1
446.942	1	4
447.283	1	-6
447.624	1	9
447.965	1	-1
448.306	1	6
448.647	1	10
448.988	1	-2
449.329	1	6
449.670	1	11
450.011	1	8
450.352	1	12
450.693	1	6
451.034	1	3
451.375	1	13
451.716	1	11
452.057	1	9
452.398	1	3
452.739	1	4
453.080	1	18
453.421	1	6
453.762	1	4
454.103	1	1
454.444	1	10
454.785	1	-4
455.126	1	3
455.467	1	8
455.808	1	0
456.149	1	2
456.490	1	8
456.831	1	17
457.172	1	7
457.513	1	3
457.854	1	-2
458.195	1	2
458.536	1	-3
458.877	1	-1
459.218	1	0
459.559	1	2
459.899	1	5
460.240	1	0
460.581	1	3
460.922	1	9
461.263	1	10
461.604	1	1
461.945	1	9
462.286	1	5
462.627	1	1
462.968	1	-12
463.309	1	3
463.649	1	9
463.990	1	5
464.331	1	10
464.672	1	-3
465.013	1	-2
465.354	1	2
465.695	1	10
466.036	1	7
466.376	1	-4
466.717	1	-3
467.058	1	13
467.399	1	10
467.740	1	0
468.081	1	1
468.422	1	8
468.762	1	-5
469.103	1	-7
469.444	1	1
469.785	1	10
470.126	1	7
470.467	1	1
470.807	1	0
471.148	1	-2
471.489	1	5
471.830	1	22
472.171	1	1
472.511	1	5
472.852	1	-5
473.193	1	-1
473.534	1	0
473.875	1	18
474.215	1	3
474.556	1	-3
474.897	1	6
475.238	1	1
475.578	1	7
475.919	1	5
476.260	1	9
476.601	1	5
476.942	1	-2
477.282	1	-1
477.623	1	9
477.964	1	6
478.305	1	5
478.645	1	-7
478.986	1	5
479.327	1	-10
479.667	1	5
480.008	1	7
480.349	1	1
480.690	1	1
481.030	1	3
481.371	1	2
481.712	1	1
482.053	1	4
482.393	1	-7
482.734	1	3
483.075	1	9
483.415	1	-1
483.756	1	14
484.097	1	-8
484.437	1	0
484.778	1	3
485.119	1	3
485.459	1	4
485.800	1	1
486.141	1	-6
486.481	1	-1
486.822	1	8
487.163	1	5
487.503	1	-3
487.844	1	-2
488.185	1	3
488.525	1	6
488.866	1	15
489.207	1	12
489.547	1	-6
489.888	1	5
490.228	1	0
490.569	1	11
490.910	1	7
491.250	1	5
491.591	1	8
491.932	1	5
492.272	1	18
492.613	1	-2
492.953	1	3
493.294	1	8
493.635	1	-2
493.975	1	4
494.316	1	7
494.656	1	1
494.997	1	9
495.337	1	12
495.678	1	6
496.019	1	0
496.359	1	2
496.700	1	0
497.040	1	8
497.381	1	-5
497.721	1	-5
498.062	1	4
498.403	1	12
498.743	1	8
499.084	1	-1
499.424	1	9
499.765	1	2
500.105	1	11
500.446	1	7
500.786	1	3
501.127	1	12
501.467	1	7
501.808	1	-10
502.148	1	14
502.489	1	12
502.829	1	5
503.170	1	10
503.510	1	3
503.851	1	-11
504.191	1	8
504.532	1	1
504.872	1	-2
505.213	1	2
505.553	1	7
505.894	1	8
506.234	1	20
506.575	1	9
506.915	1	1
507.256	1	1
507.596	1	9
507.936	1	10
508.277	1	7
508.617	1	17
508.958	1	12
509.298	1	13
509.639	1	9
509.979	1	2
510.319	1	7
510.660	1	8
511.000	1	8
511.341	1	0
511.681	1	8
512.022	1	4
512.362	1	12
512.702	1	0
513.043	1	7
513.383	1	6
513.724	1	10
514.064	1	13
514.404	1	5
514.745	1	6
515.085	1	6
515.425	1	11
515.766	1	4
516.106	1	5
516.447	1	14
516.787	1	6
517.127	1	9
517.468	1	-2
517.808	1	12
518.148	1	11
518.489	1	8
518.829	1	-4
519.169	1	12
519.510	1	0
519.850	1	9
520.190	1	8
520.531	1	18
520.871	1	10
521.211	1	7
521.552	1	18
521.892	1	-2
522.232	1	5
522.573	1	7
522.913	1	13
523.253	1	13
523.593	1	-1
523.934	1	14
524.274	1	-2
524.614	1	12
524.955	1	6
525.295	1	-4
525.635	1	14
525.975	1	7
526.316	1	0
526.656	1	23
526.996	1	12
527.337	1	5
527.677	1	23
528.017	1	1
528.357	1	11
528.698	1	4
529.038	1	16
529.378	1	15
529.718	1	13
530.058	1	8
530.399	1	21
530.739	1	13
531.079	1	20
531.419	1	11
531.760	1	13
532.100	1	21
532.440	1	10
532.780	1	12
533.120	1	10
533.461	1	14
533.801	1	9
534.141	1	10
534.481	1	1
534.821	1	13
535.162	1	9
535.502	1	22
535.842	1	15
536.182	1	7
536.522	1	9
536.862	1	4
537.203	1	10
537.543	1	13
537.883	1	13
538.223	1	17
538.563	1	10
538.903	1	0
539.243	1	2
539.584	1	7
539.924	1	10
540.264	1	5
540.604	1	18
540.944	1	-4
541.284	1	12
541.624	1	19
541.964	1	5
542.305	1	3
542.645	1	7
542.985	1	17
543.325	1	15
543.665	1	18
544.005	1	11
544.345	1	0
544.685	1	17
545.025	1	2
545.365	1	13
545.705	1	7
546.045	1	15
546.386	1	17
546.726	1	7
547.066	1	4
547.406	1	19
547.746	1	11
548.086	1	15
548.426	1	8
548.766	1	17
549.106	1	13
549.446	1	11
549.786	1	11
550.126	1	-1
550.466	1	7
550.806	1	7
551.146	1	3
551.486	1	11
551.826	1	21
552.166	1	5
552.506	1	5
552.846	1	12
553.186	1	5
553.526	1	18
553.866	1	5
554.206	1	4
554.546	1	-9
554.886	1	2
555.226	1	-1
555.566	1	12
555.906	1	18
556.246	1	-1
556.586	1	14
556.926	1	6
557.266	1	10
557.606	1	-6
557.946	1	11
558.286	1	20
558.626	1	9
558.966	1	3
559.306	1	7
559.646	1	-6
559.986	1	6
560.325	1	0
560.665	1	11
561.005	1	13
561.345	1	8
561.685	1	8
562.025	1	4
562.365	1	10
562.705	1	12
563.045	1	10
563.385	1	-2
563.725	1	4
564.064	1	9
564.404	1	7
564.744	1	10
565.084	1	3
565.424	1	0
565.764	1	14
566.104	1	7
566.444	1	9
566.783	1	-3
567.123	1	20
567.463	1	1
567.803	1	2
568.143	1	-3
568.483	1	-6
568.823	1	12
569.162	1	13
569.502	1	3
569.842	1	-1
570.182	1	2
570.522	1	14
570.862	1	6
571.201	1	1
571.541	1	1
571.881	1	9
572.221	1	12
572.561	1	-2
572.900	1	8
573.240	1	0
573.580	1	7
573.920	1	0
574.260	1	16
574.599	1	-1
574.939	1	3
575.279	1	8
575.619	1	1
575.959	1	-1
576.298	1	-3
576.638	1	7
576.978	1	3
577.318	1	11
577.657	1	-5
577.997	1	-2
578.337	1	1
578.677	1	9
579.016	1	14
579.356	1	-5
579.696	1	11
580.036	1	6
580.375	1	5
580.715	1	9
581.055	1	10
581.394	1	0
581.734	1	23
582.074	1	0
582.414	1	6
582.753	1	2
583.093	1	-2
583.433	1	-1
583.772	1	-1
584.112	1	5
584.452	1	5
584.791	1	2
585.131	1	-3
585.471	1	-2
585.811	1	8
586.150	1	5
586.490	1	0
586.830	1	7
587.169	1	3
587.509	1	1
587.849	1	13
588.188	1	-4
588.528	1	1
588.867	1	5
589.207	1	-5
589.547	1	0
589.886	1	0
590.226	1	0
590.566	1	2
590.905	1	2
591.245	1	3
591.585	1	0
591.924	1	-10
592.264	1	7
592.603	1	8
592.943	1	-1
593.283	1	-1
593.622	1	-1
593.962	1	8
594.301	1	11
594.641	1	-5
594.981	1	-1
595.320	1	13
595.660	1	11
595.999	1	-6
596.339	1	5
596.678	1	-11
597.018	1	12
597.358	1	5
597.697	1	-7
598.037	1	-1
598.376	1	4
598.716	1	-7
599.055	1	20
599.395	1	11
599.734	1	-1
600.074	1	-4
600.413	1	8
600.753	1	2
601.092	1	-6
601.432	1	-2
601.771	1	14
602.111	1	-1
602.451	1	10
602.790	1	-1
603.130	1	8
603.469	1	3
603.809	1	12
604.148	1	10
604.487	1	9
604.827	1	-6
605.166	1	-2
605.506	1	9
605.845	1	1
606.185	1	2
606.524	1	4
606.864	1	-2
607.203	1	24
607.543	1	-5
607.882	1	2
608.222	1	4
608.561	1	8
608.901	1	8
609.240	1	4
609.579	1	2
609.919	1	2
610.258	1	12
610.598	1	0
610.937	1	8
611.277	1	5
611.616	1	-1
611.955	1	9
612.295	1	0
612.634	1	9
612.974	1	7
613.313	1	2
613.652	1	-7
613.992	1	9
614.331	1	6
614.671	1	3
615.010	1	3
615.349	1	4
615.689	1	4
616.028	1	-3
616.368	1	2
616.707	1	-3
617.046	1	10
617.386	1	-4
617.725	1	9
618.064	1	4
618.404	1	11
618.743	1	4
619.082	1	1
619.422	1	1
619.761	1	5
620.100	1	11
620.440	1	-5
620.779	1	8
621.118	1	3
621.458	1	9
621.797	1	-2
622.136	1	3
622.476	1	5
622.815	1	1
623.154	1	4
623.494	1	3
623.833	1	4
624.172	1	4
624.511	1	2
624.851	1	-2
625.190	1	3
625.529	1	5
625.869	1	5
626.208	1	6
626.547	1	3
626.886	1	-4
627.226	1	1
627.565	1	10
627.904	1	-4
628.243	1	-9
628.583	1	8
628.922	1	1
629.261	1	12
629.600	1	13
629.940	1	12
630.279	1	1
630.618	1	7
630.957	1	-8
631.297	1	-6
631.636	1	-2
631.975	1	7
632.314	1	17
632.653	1	-4
632.993	1	9
633.332	1	7
633.671	1	6
634.010	1	-1
634.349	1	9
634.689	1	13
635.028	1	1
635.367	1	5
635.706	1	0
636.045	1	7
636.384	1	6
636.724	1	8
637.063	1	10
637.402	1	12
637.741	1	7
638.080	1	10
638.419	1	13
638.759	1	-1
639.098	1	3
639.437	1	7
639.776	1	3
640.115	1	0
640.454	1	12
640.793	1	7
641.132	1	13
641.472	1	-3
641.811	1	-3
642.150	1	8
642.489	1	7
642.828	1	0
643.167	1	11
643.506	1	0
643.845	1	12
644.184	1	9
644.524	1	-6
644.863	1	-3
645.202	1	8
645.541	1	-2
645.880	1	6
646.219	1	11
646.558	1	-4
646.897	1	-4
647.236	1	8
647.575	1	6
647.914	1	-6
648.253	1	5
648.592	1	13
648.931	1	4
649.270	1	12
649.610	1	4
649.949	1	8
650.288	1	0
650.627	1	1
650.966	1	-3
651.305	1	0
651.644	1	-4
651.983	1	9
652.322	1	13
652.661	1	10
653.000	1	1
653.339	1	10
653.678	1	0
654.017	1	2
654.356	1	6
654.695	1	7
655.034	1	-2
655.373	1	3
655.712	1	4
656.051	1	9
656.390	1	2
656.729	1	3
657.068	1	6
657.406	1	-4
657.745	1	1
658.084	1	9
658.423	1	-9
658.762	1	1
659.101	1	4
659.440	1	18
659.779	1	0
660.118	1	2
660.457	1	-4
660.796	1	-4
661.135	1	5
661.474	1	9
661.813	1	-1
662.152	1	12
662.491	1	2
662.829	1	-3
663.168	1	-5
663.507	1	7
663.846	1	10
664.185	1	5
664.524	1	-4
664.863	1	0
665.202	1	-6
665.541	1	0
665.879	1	5
666.218	1	1
666.557	1	9
666.896	1	3
667.235	1	1
667.574	1	7
667.913	1	2
668.251	1	2
668.590	1	1
668.929	1	4
669.268	1	1
669.607	1	0
669.946	1	12
670.285	1	-1
670.623	1	2
670.962	1	0
671.301	1	2
671.640	1	-9
671.979	1	5
672.317	1	-1
672.656	1	8
672.995	1	2
673.334	1	7
673.673	1	16
674.011	1	14
674.350	1	-4
674.689	1	-4
675.028	1	5
675.367	1	2
675.705	1	-2
676.044	1	-7
676.383	1	-5
676.722	1	-5
677.060	1	13
677.399	1	-1
677.738	1	7
678.077	1	6
678.416	1	3
678.754	1	-1
679.093	1	-8
679.432	1	-3
679.771	1	3
680.109	1	7
680.448	1	2
680.787	1	4
681.125	1	9
681.464	1	1
681.803	1	-11
682.142	1	15
682.480	1	5
682.819	1	2
683.158	1	3
683.496	1	-3
683.835	1	5
684.174	1	4
684.512	1	-1
684.851	1	8
685.190	1	7
685.529	1	-1
685.867	1	-1
686.206	1	8
686.545	1	9
686.883	1	-5
687.222	1	-6
687.561	1	-4
687.899	1	2
688.238	1	6
688.577	1	-1
688.746	1	2