File: Analysis/GaN_68K_200ms/GaN_sample E_spot4_UVVIS_68 K_200um_200 ms 2x2mm1_124.txt
340.368	1	4
340.710	1	-5
341.052	1	11
341.394	1	5
341.737	1	6
342.079	1	0
342.421	1	4
342.763	1	11
343.105	1	5
343.447	1	-3
343.789	1	8
344.131	1	2
344.473	1	-1
344.815	1	5
345.157	1	12
345.499	1	12
345.841	1	8
346.183	1	5
346.526	1	10
346.868	1	6
347.210	1	6
347.552	1	3
347.894	1	15
348.236	1	14
348.578	1	3
348.920	1	17
349.262	1	13
349.604	1	16
349.946	1	13
350.288	1	11
350.630	1	2
350.972	1	12
351.314	1	3
351.656	1	8
351.998	1	11
352.340	1	10
352.682	1	16
353.024	1	7
353.366	1	10
353.708	1	15
354.050	1	18
354.392	1	28
354.734	1	13
355.076	1	24
355.418	1	12
355.760	1	24
356.102	1	19
356.444	1	22
356.785	1	25
357.127	1	21
357.469	1	23
357.811	1	31
358.153	1	29
358.495	1	38
358.837	1	28
359.179	1	35
359.521	1	37
359.863	1	44
360.205	1	38
360.547	1	56
360.889	1	55
361.231	1	66
361.572	1	71
361.914	1	66
362.256	1	88
362.598	1	95
362.940	1	115
363.282	1	140
363.624	1	151
363.966	1	162
364.308	1	181
364.649	1	215
364.991	1	249
365.333	1	288
365.675	1	292
366.017	1	302
366.359	1	325
366.701	1	337
367.042	1	347
367.384	1	346
367.726	1	333
368.068	1	308
368.410	1	295
368.752	1	287
369.093	1	274
369.435	1	239
369.777	1	227
370.119	1	219
370.461	1	188
370.803	1	180
371.144	1	196
371.486	1	175
371.828	1	157
372.170	1	158
372.512	1	130
372.853	1	148
373.195	1	119
373.537	1	131
373.879	1	134
374.220	1	99
374.562	1	107
374.904	1	111
375.246	1	101
375.588	1	101
375.929	1	113
376.271	1	88
376.613	1	91
376.955	1	77
377.296	1	82
377.638	1	86
377.980	1	81
378.321	1	77
378.663	1	77
379.005	1	77
379.347	1	81
379.688	1	72
380.030	1	80
380.372	1	90
380.714	1	96
381.055	1	109
381.397	1	101
381.739	1	141
382.080	1	121
382.422	1	168
382.764	1	170
383.105	1	197
383.447	1	234
383.789	1	242
384.130	1	271
384.472	1	291
384.814	1	329
385.156	1	372
385.497	1	411
385.839	1	418
386.180	1	450
386.522	1	472
386.864	1	461
387.205	1	475
387.547	1	460
387.889	1	475
388.230	1	462
388.572	1	466
388.914	1	466
389.255	1	462
389.597	1	428
389.939	1	460
390.280	1	443
390.622	1	429
390.963	1	426
391.305	1	421
391.647	1	412
391.988	1	403
392.330	1	381
392.671	1	385
393.013	1	390
393.355	1	377
393.696	1	352
394.038	1	359
394.379	1	349
394.721	1	364
395.062	1	344
395.404	1	384
395.746	1	383
396.087	1	387
396.429	1	393
396.770	1	404
397.112	1	420
397.453	1	400
397.795	1	434
398.136	1	432
398.478	1	432
398.819	1	452
399.161	1	414
399.503	1	417
399.844	1	399
400.186	1	386
400.527	1	379
400.869	1	371
401.210	1	326
401.552	1	343
401.893	1	324
402.235	1	308
402.576	1	296
402.918	1	286
403.259	1	275
403.601	1	274
403.942	1	279
404.284	1	277
404.625	1	281
404.967	1	281
405.308	1	260
405.649	1	270
405.991	1	271
406.332	1	269
406.674	1	269
407.015	1	248
407.357	1	261
407.698	1	234
408.040	1	248
408.381	1	258
408.722	1	243
409.064	1	245
409.405	1	246
409.747	1	238
410.088	1	232
410.430	1	237
410.771	1	230
411.112	1	228
411.454	1	225
411.795	1	205
412.137	1	219
412.478	1	191
412.819	1	195
413.161	1	192
413.502	1	185
413.844	1	181
414.185	1	181
414.526	1	166
414.868	1	179
415.209	1	151
415.550	1	143
415.892	1	157
416.233	1	152
416.575	1	155
416.916	1	145
417.257	1	159
417.599	1	146
417.940	1	147
418.281	1	142
418.623	1	142
418.964	1	148
419.305	1	142
419.647	1	138
419.988	1	115
420.329	1	133
420.671	1	136
421.012	1	134
421.353	1	132
421.695	1	133
422.036	1	120
422.377	1	110
422.718	1	111
423.060	1	114
423.401	1	105
423.742	1	120
424.084	1	106
424.425	1	103
424.766	1	97
425.107	1	102
425.449	1	103
425.790	1	96
426.131	1	95
426.472	1	81
426.814	1	95
427.155	1	90
427.496	1	94
427.837	1	78
428.179	1	79
428.520	1	77
428.861	1	85
429.202	1	95
429.544	1	80
429.885	1	78
430.226	1	76
430.567	1	88
430.909	1	64
431.250	1	67
431.591	1	72
431.932	1	75
432.273	1	62
432.615	1	71
432.956	1	61
433.297	1	81
433.638	1	62
433.979	1	63
434.320	1	62
434.662	1	59
435.003	1	66
435.344	1	65
435.685	1	63
436.026	1	70
436.368	1	57
436.709	1	45
437.050	1	60
437.391	1	63
437.732	1	59
438.073	1	66
438.414	1	47
438.756	1	60
439.097	1	58
439.438	1	56
439.779	1	46
440.120	1	52
440.461	1	42
440.802	1	56
441.143	1	45
441.485	1	41
441.826	1	42
442.167	1	40
442.508	1	50
442.849	1	47
443.190	1	30
443.531	1	45
443.872	1	39
444.213	1	36
444.554	1	41
444.895	1	40
445.237	1	39
445.578	1	47
445.919	1	36
446.260	1	48
446.601	1	44
446.942	1	50
447.283	1	43
447.624	1	38
447.965	1	38
448.306	1	43
448.647	1	62
448.988	1	22
449.329	1	33
449.670	1	40
450.011	1	38
450.352	1	34
450.693	1	36
451.034	1	41
451.375	1	47
451.716	1	37
452.057	1	29
452.398	1	42
452.739	1	32
453.080	1	48
453.421	1	35
453.762	1	27
454.103	1	39
454.444	1	31
454.785	1	29
455.126	1	37
455.467	1	38
455.808	1	37
456.149	1	22
456.490	1	35
456.831	1	35
457.172	1	36
457.513	1	33
457.854	1	31
458.195	1	21
458.536	1	33
458.877	1	37
459.218	1	38
459.559	1	29
459.899	1	37
460.240	1	36
460.581	1	30
460.922	1	23
461.263	1	38
461.604	1	32
461.945	1	32
462.286	1	25
462.627	1	34
462.968	1	30
463.309	1	23
463.649	1	28
463.990	1	35
464.331	1	25
464.672	1	25
465.013	1	15
465.354	1	18
465.695	1	35
466.036	1	26
466.376	1	27
466.717	1	24
467.058	1	43
467.399	1	25
467.740	1	21
468.081	1	32
468.422	1	33
468.762	1	18
469.103	1	21
469.444	1	24
469.785	1	36
470.126	1	31
470.467	1	26
470.807	1	24
471.148	1	11
471.489	1	18
471.830	1	38
472.171	1	26
472.511	1	29
472.852	1	25
473.193	1	19
473.534	1	20
473.875	1	24
474.215	1	20
474.556	1	20
474.897	1	32
475.238	1	23
475.578	1	26
475.919	1	27
476.260	1	25
476.601	1	21
476.942	1	28
477.282	1	19
477.623	1	30
477.964	1	26
478.305	1	22
478.645	1	24
478.986	1	11
479.327	1	20
479.667	1	30
480.008	1	34
480.349	1	28
480.690	1	19
481.030	1	14
481.371	1	26
481.712	1	28
482.053	1	28
482.393	1	20
482.734	1	30
483.075	1	34
483.415	1	31
483.756	1	37
484.097	1	19
484.437	1	17
484.778	1	36
485.119	1	29
485.459	1	34
485.800	1	22
486.141	1	22
486.481	1	26
486.822	1	40
487.163	1	17
487.503	1	20
487.844	1	40
488.185	1	20
488.525	1	26
488.866	1	59
489.207	1	42
489.547	1	27
489.888	1	40
490.228	1	26
490.569	1	52
490.910	1	44
491.250	1	45
491.591	1	45
491.932	1	49
492.272	1	50
492.613	1	51
492.953	1	48
493.294	1	51
493.635	1	50
493.975	1	50
494.316	1	45
494.656	1	50
494.997	1	47
495.337	1	48
495.678	1	53
496.019	1	52
496.359	1	56
496.700	1	52
497.040	1	58
497.381	1	43
497.721	1	53
498.062	1	57
498.403	1	70
498.743	1	69
499.084	1	45
499.424	1	70
499.765	1	55
500.105	1	77
500.446	1	80
500.786	1	82
501.127	1	82
501.467	1	67
501.808	1	74
502.148	1	87
502.489	1	85
502.829	1	72
503.170	1	76
503.510	1	80
503.851	1	69
504.191	1	79
504.532	1	72
504.872	1	77
505.213	1	90
505.553	1	102
505.894	1	102
506.234	1	89
506.575	1	92
506.915	1	93
507.256	1	95
507.596	1	89
507.936	1	108
508.277	1	93
508.617	1	123
508.958	1	120
509.298	1	114
509.639	1	115
509.979	1	112
510.319	1	109
510.660	1	119
511.000	1	114
511.341	1	108
511.681	1	113
512.022	1	100
512.362	1	123
512.702	1	109
513.043	1	112
513.383	1	115
513.724	1	124
514.064	1	120
514.404	1	132
514.745	1	119
515.085	1	125
515.425	1	115
515.766	1	134
516.106	1	125
516.447	1	129
516.787	1	134
517.127	1	141
517.468	1	134
517.808	1	136
518.148	1	140
518.489	1	153
518.829	1	143
519.169	1	158
519.510	1	148
519.850	1	138
520.190	1	147
520.531	1	166
520.871	1	141
521.211	1	161
521.552	1	161
521.892	1	138
522.232	1	161
522.573	1	154
522.913	1	154
523.253	1	153
523.593	1	141
523.934	1	162
524.274	1	156
524.614	1	159
524.955	1	156
525.295	1	155
525.635	1	156
525.975	1	160
526.316	1	156
526.656	1	184
526.996	1	173
527.337	1	176
527.677	1	167
528.017	1	172
528.357	1	179
528.698	1	155
529.038	1	183
529.378	1	176
529.718	1	165
530.058	1	176
530.399	1	194
530.739	1	179
531.079	1	183
531.419	1	201
531.760	1	191
532.100	1	185
532.440	1	180
532.780	1	182
533.120	1	177
533.461	1	186
533.801	1	184
534.141	1	175
534.481	1	165
534.821	1	184
535.162	1	187
535.502	1	186
535.842	1	183
536.182	1	175
536.522	1	167
536.862	1	176
537.203	1	180
537.543	1	168
537.883	1	186
538.223	1	167
538.563	1	159
538.903	1	163
539.243	1	167
539.584	1	170
539.924	1	157
540.264	1	163
540.604	1	170
540.944	1	151
541.284	1	155
541.624	1	153
541.964	1	173
542.305	1	136
542.645	1	158
542.985	1	143
543.325	1	137
543.665	1	151
544.005	1	139
544.345	1	140
544.685	1	149
545.025	1	149
545.365	1	147
545.705	1	141
546.045	1	153
546.386	1	135
546.726	1	154
547.066	1	136
547.406	1	150
547.746	1	161
548.086	1	144
548.426	1	141
548.766	1	151
549.106	1	139
549.446	1	134
549.786	1	145
550.126	1	144
550.466	1	140
550.806	1	132
551.146	1	131
551.486	1	142
551.826	1	134
552.166	1	136
552.506	1	130
552.846	1	143
553.186	1	138
553.526	1	133
553.866	1	142
554.206	1	127
554.546	1	117
554.886	1	121
555.226	1	120
555.566	1	142
555.906	1	132
556.246	1	124
556.586	1	129
556.926	1	121
557.266	1	123
557.606	1	116
557.946	1	118
558.286	1	126
558.626	1	114
558.966	1	114
559.306	1	101
559.646	1	100
559.986	1	108
560.325	1	92
560.665	1	122
561.005	1	100
561.345	1	102
561.685	1	107
562.025	1	101
562.365	1	105
562.705	1	111
563.045	1	109
563.385	1	96
563.725	1	105
564.064	1	100
564.404	1	100
564.744	1	109
565.084	1	92
565.424	1	100
565.764	1	110
566.104	1	88
566.444	1	96
566.783	1	95
567.123	1	109
567.463	1	95
567.803	1	81
568.143	1	79
568.483	1	83
568.823	1	93
569.162	1	91
569.502	1	94
569.842	1	78
570.182	1	74
570.522	1	93
570.862	1	93
571.201	1	88
571.541	1	75
571.881	1	90
572.221	1	84
572.561	1	65
572.900	1	91
573.240	1	67
573.580	1	83
573.920	1	74
574.260	1	69
574.599	1	72
574.939	1	67
575.279	1	83
575.619	1	73
575.959	1	70
576.298	1	59
576.638	1	77
576.978	1	71
577.318	1	75
577.657	1	55
577.997	1	65
578.337	1	61
578.677	1	58
579.016	1	73
579.356	1	67
579.696	1	72
580.036	1	62
580.375	1	61
580.715	1	73
581.055	1	69
581.394	1	59
581.734	1	69
582.074	1	53
582.414	1	73
582.753	1	62
583.093	1	66
583.433	1	54
583.772	1	64
584.112	1	55
584.452	1	59
584.791	1	51
585.131	1	59
585.471	1	48
585.811	1	51
586.150	1	58
586.490	1	48
586.830	1	46
587.169	1	56
587.509	1	47
587.849	1	63
588.188	1	60
588.528	1	52
588.867	1	58
589.207	1	44
589.547	1	50
589.886	1	42
590.226	1	60
590.566	1	30
590.905	1	48
591.245	1	54
591.585	1	45
591.924	1	51
592.264	1	40
592.603	1	41
592.943	1	44
593.283	1	51
593.622	1	46
593.962	1	48
594.301	1	51
594.641	1	33
594.981	1	41
595.320	1	48
595.660	1	53
595.999	1	42
596.339	1	43
596.678	1	41
597.018	1	45
597.358	1	50
597.697	1	35
598.037	1	41
598.376	1	47
598.716	1	28
599.055	1	30
599.395	1	37
599.734	1	45
600.074	1	30
600.413	1	29
600.753	1	31
601.092	1	29
601.432	1	46
601.771	1	41
602.111	1	31
602.451	1	38
602.790	1	36
603.130	1	45
603.469	1	40
603.809	1	37
604.148	1	49
604.487	1	33
604.827	1	31
605.166	1	25
605.506	1	39
605.845	1	41
606.185	1	36
606.524	1	34
606.864	1	36
607.203	1	33
607.543	1	28
607.882	1	22
608.222	1	39
608.561	1	38
608.901	1	43
609.240	1	32
609.579	1	35
609.919	1	37
610.258	1	41
610.598	1	28
610.937	1	29
611.277	1	37
611.616	1	23
611.955	1	34
612.295	1	27
612.634	1	22
612.974	1	42
613.313	1	40
613.652	1	28
613.992	1	24
614.331	1	31
614.671	1	30
615.010	1	28
615.349	1	36
615.689	1	21
616.028	1	32
616.368	1	28
616.707	1	25
617.046	1	23
617.386	1	14
617.725	1	30
618.064	1	19
618.404	1	34
618.743	1	24
619.082	1	19
619.422	1	27
619.761	1	26
620.100	1	22
620.440	1	27
620.779	1	19
621.118	1	21
621.458	1	20
621.797	1	22
622.136	1	25
622.476	1	25
622.815	1	22
623.154	1	21
623.494	1	24
623.833	1	19
624.172	1	24
624.511	1	19
624.851	1	14
625.190	1	23
625.529	1	33
625.869	1	20
626.208	1	11
626.547	1	24
626.886	1	9
627.226	1	20
627.565	1	20
627.904	1	25
628.243	1	12
628.583	1	23
628.922	1	22
629.261	1	23
629.600	1	34
629.940	1	18
630.279	1	16
630.618	1	12
630.957	1	20
631.297	1	16
631.636	1	23
631.975	1	20
632.314	1	27
632.653	1	13
632.993	1	19
633.332	1	24
633.671	1	24
634.010	1	16
634.349	1	12
634.689	1	22
635.028	1	20
635.367	1	20
635.706	1	14
636.045	1	16
636.384	1	21
636.724	1	23
637.063	1	23
637.402	1	22
637.741	1	32
638.080	1	11
638.419	1	23
638.759	1	19
639.098	1	21
639.437	1	7
639.776	1	14
640.115	1	9
640.454	1	25
640.793	1	15
641.132	1	35
641.472	1	12
641.811	1	15
642.150	1	19
642.489	1	9
642.828	1	16
643.167	1	20
643.506	1	8
643.845	1	15
644.184	1	18
644.524	1	9
644.863	1	9
645.202	1	17
645.541	1	8
645.880	1	21
646.219	1	16
646.558	1	21
646.897	1	17
647.236	1	13
647.575	1	17
647.914	1	12
648.253	1	18
648.592	1	14
648.931	1	20
649.270	1	22
649.610	1	20
649.949	1	12
650.288	1	7
650.627	1	21
650.966	1	9
651.305	1	10
651.644	1	18
651.983	1	14
652.322	1	21
652.661	1	19
653.000	1	10
653.339	1	9
653.678	1	12
654.017	1	1
654.356	1	14
654.695	1	18
655.034	1	19
655.373	1	17
655.712	1	6
656.051	1	22
656.390	1	9
656.729	1	19
657.068	1	1
657.406	1	10
657.745	1	8
658.084	1	28
658.423	1	8
658.762	1	6
659.101	1	6
659.440	1	17
659.779	1	4
660.118	1	14
660.457	1	1
660.796	1	9
661.135	1	20
661.474	1	16
661.813	1	3
662.152	1	19
662.491	1	11
662.829	1	7
663.168	1	7
663.507	1	10
663.846	1	28
664.185	1	10
664.524	1	10
664.863	1	10
665.202	1	4
665.541	1	14
665.879	1	5
666.218	1	4
666.557	1	19
666.896	1	5
667.235	1	13
667.574	1	16
667.913	1	10
668.251	1	15
668.590	1	9
668.929	1	16
669.268	1	16
669.607	1	8
669.946	1	17
670.285	1	17
670.623	1	12
670.962	1	9
671.301	1	12
671.640	1	-2
671.979	1	23
672.317	1	16
672.656	1	25
672.995	1	15
673.334	1	21
673.673	1	25
674.011	1	11
674.350	1	14
674.689	1	11
675.028	1	13
675.367	1	15
675.705	1	2
676.044	1	1
676.383	1	18
676.722	1	11
677.060	1	15
677.399	1	4
677.738	1	8
678.077	1	6
678.416	1	18
678.754	1	4
679.093	1	6
679.432	1	8
679.771	1	12
680.109	1	15
680.448	1	3
680.787	1	13
681.125	1	16
681.464	1	17
681.803	1	7
682.142	1	22
682.480	1	22
682.819	1	15
683.158	1	10
683.496	1	7
683.835	1	10
684.174	1	3
684.512	1	10
684.851	1	11
685.190	1	17
685.529	1	5
685.867	1	10
686.206	1	6
686.545	1	8
686.883	1	14
687.222	1	12
687.561	1	20
687.899	1	16
688.238	1	27
688.577	1	12
688.746	1	23