File: Analysis/GaN_68K_200ms/GaN_sample E_spot4_UVVIS_68 K_200um_200 ms 2x2mm1_675.txt
340.368	1	-1
340.710	1	-8
341.052	1	5
341.394	1	-9
341.737	1	-3
342.079	1	-5
342.421	1	-11
342.763	1	-6
343.105	1	22
343.447	1	3
343.789	1	-4
344.131	1	-5
344.473	1	-1
344.815	1	3
345.157	1	7
345.499	1	4
345.841	1	6
346.183	1	-2
346.526	1	4
346.868	1	-1
347.210	1	-2
347.552	1	5
347.894	1	-5
348.236	1	-4
348.578	1	6
348.920	1	10
349.262	1	1
349.604	1	9
349.946	1	3
350.288	1	-10
350.630	1	3
350.972	1	-2
351.314	1	-9
351.656	1	-4
351.998	1	-1
352.340	1	-2
352.682	1	0
353.024	1	-4
353.366	1	10
353.708	1	-3
354.050	1	-1
354.392	1	9
354.734	1	5
355.076	1	-2
355.418	1	5
355.760	1	6
356.102	1	0
356.444	1	5
356.785	1	10
357.127	1	3
357.469	1	-5
357.811	1	9
358.153	1	0
358.495	1	3
358.837	1	-8
359.179	1	3
359.521	1	6
359.863	1	-4
360.205	1	-1
360.547	1	-4
360.889	1	7
361.231	1	-3
361.572	1	-4
361.914	1	-3
362.256	1	7
362.598	1	0
362.940	1	-12
363.282	1	11
363.624	1	2
363.966	1	5
364.308	1	-6
364.649	1	-5
364.991	1	2
365.333	1	11
365.675	1	-2
366.017	1	7
366.359	1	-2
366.701	1	-11
367.042	1	11
367.384	1	1
367.726	1	14
368.068	1	-9
368.410	1	-1
368.752	1	-13
369.093	1	2
369.435	1	2
369.777	1	3
370.119	1	-2
370.461	1	-5
370.803	1	-9
371.144	1	6
371.486	1	14
371.828	1	8
372.170	1	4
372.512	1	-8
372.853	1	1
373.195	1	-7
373.537	1	9
373.879	1	10
374.220	1	0
374.562	1	1
374.904	1	0
375.246	1	6
375.588	1	-1
375.929	1	3
376.271	1	-5
376.613	1	-2
376.955	1	-7
377.296	1	4
377.638	1	-3
377.980	1	11
378.321	1	6
378.663	1	-11
379.005	1	10
379.347	1	5
379.688	1	-2
380.030	1	4
380.372	1	0
380.714	1	-6
381.055	1	-6
381.397	1	-3
381.739	1	11
382.080	1	-10
382.422	1	11
382.764	1	-5
383.105	1	7
383.447	1	12
383.789	1	13
384.130	1	-16
384.472	1	1
384.814	1	9
385.156	1	10
385.497	1	4
385.839	1	8
386.180	1	9
386.522	1	7
386.864	1	10
387.205	1	-6
387.547	1	1
387.889	1	1
388.230	1	0
388.572	1	-2
388.914	1	3
389.255	1	3
389.597	1	-8
389.939	1	8
390.280	1	4
390.622	1	-4
390.963	1	7
391.305	1	4
391.647	1	7
391.988	1	-2
392.330	1	6
392.671	1	6
393.013	1	2
393.355	1	9
393.696	1	4
394.038	1	-5
394.379	1	-6
394.721	1	3
395.062	1	-2
395.404	1	0
395.746	1	-11
396.087	1	2
396.429	1	1
396.770	1	-3
397.112	1	-2
397.453	1	-8
397.795	1	-6
398.136	1	8
398.478	1	-10
398.819	1	6
399.161	1	-6
399.503	1	-6
399.844	1	3
400.186	1	10
400.527	1	-4
400.869	1	9
401.210	1	-7
401.552	1	16
401.893	1	0
402.235	1	7
402.576	1	9
402.918	1	0
403.259	1	-6
403.601	1	-9
403.942	1	8
404.284	1	4
404.625	1	-3
404.967	1	1
405.308	1	-10
405.649	1	-1
405.991	1	10
406.332	1	-4
406.674	1	0
407.015	1	-9
407.357	1	-1
407.698	1	-2
408.040	1	-13
408.381	1	-2
408.722	1	-7
409.064	1	8
409.405	1	3
409.747	1	3
410.088	1	-2
410.430	1	8
410.771	1	2
411.112	1	1
411.454	1	2
411.795	1	2
412.137	1	4
412.478	1	2
412.819	1	-6
413.161	1	-3
413.502	1	2
413.844	1	-3
414.185	1	-5
414.526	1	4
414.868	1	7
415.209	1	-5
415.550	1	-11
415.892	1	2
416.233	1	4
416.575	1	1
416.916	1	-3
417.257	1	4
417.599	1	3
417.940	1	-1
418.281	1	-2
418.623	1	0
418.964	1	6
419.305	1	5
419.647	1	8
419.988	1	-2
420.329	1	1
420.671	1	1
421.012	1	0
421.353	1	15
421.695	1	-4
422.036	1	-2
422.377	1	4
422.718	1	-7
423.060	1	-8
423.401	1	-6
423.742	1	0
424.084	1	-3
424.425	1	10
424.766	1	5
425.107	1	1
425.449	1	9
425.790	1	-1
426.131	1	1
426.472	1	-4
426.814	1	12
427.155	1	-6
427.496	1	9
427.837	1	-1
428.179	1	-5
428.520	1	-2
428.861	1	-6
429.202	1	-1
429.544	1	-3
429.885	1	0
430.226	1	3
430.567	1	7
430.909	1	-4
431.250	1	-11
431.591	1	-2
431.932	1	5
432.273	1	-3
432.615	1	5
432.956	1	-3
433.297	1	-6
433.638	1	0
433.979	1	3
434.320	1	2
434.662	1	-7
435.003	1	3
435.344	1	-1
435.685	1	10
436.026	1	5
436.368	1	2
436.709	1	-11
437.050	1	1
437.391	1	17
437.732	1	-1
438.073	1	9
438.414	1	7
438.756	1	6
439.097	1	-7
439.438	1	9
439.779	1	-2
440.120	1	-9
440.461	1	-15
440.802	1	5
441.143	1	6
441.485	1	-4
441.826	1	-2
442.167	1	2
442.508	1	1
442.849	1	-2
443.190	1	-18
443.531	1	-5
443.872	1	-1
444.213	1	-4
444.554	1	3
444.895	1	-5
445.237	1	2
445.578	1	17
445.919	1	-6
446.260	1	6
446.601	1	-14
446.942	1	-8
447.283	1	-5
447.624	1	2
447.965	1	-5
448.306	1	-12
448.647	1	8
448.988	1	-15
449.329	1	5
449.670	1	13
450.011	1	5
450.352	1	4
450.693	1	0
451.034	1	7
451.375	1	9
451.716	1	3
452.057	1	5
452.398	1	11
452.739	1	-4
453.080	1	8
453.421	1	-3
453.762	1	9
454.103	1	-2
454.444	1	13
454.785	1	0
455.126	1	7
455.467	1	5
455.808	1	8
456.149	1	-5
456.490	1	-3
456.831	1	13
457.172	1	1
457.513	1	3
457.854	1	0
458.195	1	0
458.536	1	8
458.877	1	1
459.218	1	5
459.559	1	-1
459.899	1	7
460.240	1	5
460.581	1	0
460.922	1	-2
461.263	1	0
461.604	1	6
461.945	1	15
462.286	1	0
462.627	1	-3
462.968	1	-4
463.309	1	-3
463.649	1	4
463.990	1	4
464.331	1	4
464.672	1	-3
465.013	1	-6
465.354	1	0
465.695	1	1
466.036	1	2
466.376	1	-6
466.717	1	-5
467.058	1	9
467.399	1	5
467.740	1	6
468.081	1	-3
468.422	1	4
468.762	1	-10
469.103	1	-9
469.444	1	-4
469.785	1	3
470.126	1	6
470.467	1	-2
470.807	1	-1
471.148	1	0
471.489	1	3
471.830	1	14
472.171	1	3
472.511	1	12
472.852	1	-1
473.193	1	2
473.534	1	-5
473.875	1	1
474.215	1	-5
474.556	1	-16
474.897	1	1
475.238	1	-7
475.578	1	-5
475.919	1	7
476.260	1	1
476.601	1	3
476.942	1	-7
477.282	1	-3
477.623	1	0
477.964	1	13
478.305	1	0
478.645	1	0
478.986	1	-2
479.327	1	-5
479.667	1	-2
480.008	1	4
480.349	1	-6
480.690	1	-1
481.030	1	-9
481.371	1	-2
481.712	1	-1
482.053	1	4
482.393	1	-8
482.734	1	7
483.075	1	9
483.415	1	2
483.756	1	5
484.097	1	-7
484.437	1	-6
484.778	1	3
485.119	1	1
485.459	1	4
485.800	1	-9
486.141	1	-6
486.481	1	1
486.822	1	9
487.163	1	-3
487.503	1	-11
487.844	1	2
488.185	1	-10
488.525	1	-2
488.866	1	14
489.207	1	7
489.547	1	-1
489.888	1	-6
490.228	1	-7
490.569	1	0
490.910	1	-2
491.250	1	3
491.591	1	-9
491.932	1	6
492.272	1	6
492.613	1	9
492.953	1	-2
493.294	1	13
493.635	1	-5
493.975	1	-5
494.316	1	2
494.656	1	3
494.997	1	5
495.337	1	1
495.678	1	9
496.019	1	-4
496.359	1	-2
496.700	1	1
497.040	1	-1
497.381	1	-17
497.721	1	-5
498.062	1	-1
498.403	1	5
498.743	1	3
499.084	1	-16
499.424	1	9
499.765	1	-3
500.105	1	10
500.446	1	3
500.786	1	3
501.127	1	12
501.467	1	1
501.808	1	-11
502.148	1	1
502.489	1	7
502.829	1	8
503.170	1	-4
503.510	1	-3
503.851	1	-10
504.191	1	3
504.532	1	-14
504.872	1	-4
505.213	1	-4
505.553	1	-5
505.894	1	6
506.234	1	11
506.575	1	-3
506.915	1	-4
507.256	1	-1
507.596	1	4
507.936	1	10
508.277	1	-1
508.617	1	11
508.958	1	13
509.298	1	7
509.639	1	11
509.979	1	2
510.319	1	5
510.660	1	11
511.000	1	1
511.341	1	-5
511.681	1	-6
512.022	1	-3
512.362	1	-5
512.702	1	-1
513.043	1	-2
513.383	1	-2
513.724	1	-4
514.064	1	-5
514.404	1	-9
514.745	1	2
515.085	1	0
515.425	1	-3
515.766	1	-1
516.106	1	3
516.447	1	6
516.787	1	-10
517.127	1	2
517.468	1	3
517.808	1	6
518.148	1	-1
518.489	1	-3
518.829	1	-10
519.169	1	6
519.510	1	4
519.850	1	-9
520.190	1	-2
520.531	1	8
520.871	1	4
521.211	1	-6
521.552	1	2
521.892	1	-10
522.232	1	-4
522.573	1	-3
522.913	1	2
523.253	1	5
523.593	1	-16
523.934	1	0
524.274	1	-4
524.614	1	5
524.955	1	0
525.295	1	-5
525.635	1	7
525.975	1	-8
526.316	1	-2
526.656	1	15
526.996	1	12
527.337	1	1
527.677	1	8
528.017	1	-4
528.357	1	3
528.698	1	0
529.038	1	8
529.378	1	4
529.718	1	-4
530.058	1	3
530.399	1	7
530.739	1	-8
531.079	1	12
531.419	1	9
531.760	1	13
532.100	1	5
532.440	1	4
532.780	1	-6
533.120	1	1
533.461	1	9
533.801	1	-1
534.141	1	4
534.481	1	4
534.821	1	4
535.162	1	-3
535.502	1	1
535.842	1	-1
536.182	1	-6
536.522	1	1
536.862	1	0
537.203	1	6
537.543	1	7
537.883	1	-1
538.223	1	7
538.563	1	-7
538.903	1	-4
539.243	1	3
539.584	1	6
539.924	1	-5
540.264	1	3
540.604	1	17
540.944	1	-8
541.284	1	-4
541.624	1	-3
541.964	1	-3
542.305	1	-5
542.645	1	4
542.985	1	-6
543.325	1	-7
543.665	1	0
544.005	1	2
544.345	1	-10
544.685	1	6
545.025	1	0
545.365	1	2
545.705	1	6
546.045	1	7
546.386	1	-6
546.726	1	-3
547.066	1	-5
547.406	1	8
547.746	1	6
548.086	1	4
548.426	1	1
548.766	1	3
549.106	1	14
549.446	1	-5
549.786	1	0
550.126	1	-4
550.466	1	-4
550.806	1	1
551.146	1	-3
551.486	1	9
551.826	1	-6
552.166	1	-3
552.506	1	0
552.846	1	4
553.186	1	0
553.526	1	-3
553.866	1	2
554.206	1	4
554.546	1	-9
554.886	1	7
555.226	1	-1
555.566	1	6
555.906	1	5
556.246	1	-3
556.586	1	20
556.926	1	10
557.266	1	11
557.606	1	-10
557.946	1	9
558.286	1	7
558.626	1	8
558.966	1	-5
559.306	1	-11
559.646	1	-4
559.986	1	2
560.325	1	-12
560.665	1	-1
561.005	1	-5
561.345	1	4
561.685	1	-9
562.025	1	-4
562.365	1	3
562.705	1	14
563.045	1	11
563.385	1	-5
563.725	1	0
564.064	1	7
564.404	1	2
564.744	1	6
565.084	1	-7
565.424	1	0
565.764	1	13
566.104	1	3
566.444	1	11
566.783	1	-4
567.123	1	12
567.463	1	-4
567.803	1	-5
568.143	1	0
568.483	1	-6
568.823	1	-1
569.162	1	5
569.502	1	-1
569.842	1	-6
570.182	1	-3
570.522	1	-1
570.862	1	6
571.201	1	2
571.541	1	-13
571.881	1	7
572.221	1	8
572.561	1	-13
572.900	1	8
573.240	1	-6
573.580	1	2
573.920	1	0
574.260	1	3
574.599	1	-4
574.939	1	-1
575.279	1	17
575.619	1	-5
575.959	1	-10
576.298	1	-13
576.638	1	-3
576.978	1	-2
577.318	1	5
577.657	1	-17
577.997	1	-13
578.337	1	-3
578.677	1	-1
579.016	1	12
579.356	1	-13
579.696	1	2
580.036	1	-9
580.375	1	3
580.715	1	13
581.055	1	3
581.394	1	-6
581.734	1	5
582.074	1	-6
582.414	1	-2
582.753	1	7
583.093	1	0
583.433	1	-2
583.772	1	-2
584.112	1	-2
584.452	1	6
584.791	1	2
585.131	1	-4
585.471	1	0
585.811	1	-9
586.150	1	4
586.490	1	-5
586.830	1	-11
587.169	1	1
587.509	1	-2
587.849	1	9
588.188	1	-11
588.528	1	-2
588.867	1	7
589.207	1	-18
589.547	1	-9
589.886	1	-3
590.226	1	6
590.566	1	0
590.905	1	9
591.245	1	-7
591.585	1	4
591.924	1	-2
592.264	1	1
592.603	1	-1
592.943	1	-12
593.283	1	9
593.622	1	2
593.962	1	10
594.301	1	2
594.641	1	-6
594.981	1	-4
595.320	1	8
595.660	1	5
595.999	1	3
596.339	1	5
596.678	1	-1
597.018	1	1
597.358	1	3
597.697	1	-3
598.037	1	2
598.376	1	2
598.716	1	-2
599.055	1	4
599.395	1	-3
599.734	1	-7
600.074	1	-2
600.413	1	2
600.753	1	-2
601.092	1	-9
601.432	1	-4
601.771	1	5
602.111	1	-4
602.451	1	5
602.790	1	-1
603.130	1	8
603.469	1	-1
603.809	1	7
604.148	1	9
604.487	1	14
604.827	1	-10
605.166	1	-3
605.506	1	9
605.845	1	-1
606.185	1	-2
606.524	1	-16
606.864	1	-5
607.203	1	0
607.543	1	-9
607.882	1	-7
608.222	1	-5
608.561	1	-2
608.901	1	-1
609.240	1	-4
609.579	1	8
609.919	1	-5
610.258	1	4
610.598	1	-1
610.937	1	3
611.277	1	5
611.616	1	-2
611.955	1	0
612.295	1	-3
612.634	1	-2
612.974	1	6
613.313	1	5
613.652	1	-8
613.992	1	7
614.331	1	2
614.671	1	1
615.010	1	-1
615.349	1	4
615.689	1	3
616.028	1	-9
616.368	1	7
616.707	1	-7
617.046	1	5
617.386	1	-4
617.725	1	3
618.064	1	3
618.404	1	7
618.743	1	8
619.082	1	1
619.422	1	0
619.761	1	4
620.100	1	5
620.440	1	4
620.779	1	-9
621.118	1	4
621.458	1	-7
621.797	1	6
622.136	1	-3
622.476	1	0
622.815	1	-6
623.154	1	8
623.494	1	4
623.833	1	2
624.172	1	5
624.511	1	-4
624.851	1	-6
625.190	1	-4
625.529	1	-3
625.869	1	0
626.208	1	-7
626.547	1	7
626.886	1	-6
627.226	1	-2
627.565	1	8
627.904	1	4
628.243	1	-10
628.583	1	-4
628.922	1	-3
629.261	1	-1
629.600	1	8
629.940	1	-1
630.279	1	1
630.618	1	0
630.957	1	-8
631.297	1	-11
631.636	1	-3
631.975	1	-6
632.314	1	10
632.653	1	-11
632.993	1	4
633.332	1	15
633.671	1	-1
634.010	1	0
634.349	1	2
634.689	1	6
635.028	1	4
635.367	1	-4
635.706	1	-6
636.045	1	-7
636.384	1	8
636.724	1	0
637.063	1	-2
637.402	1	2
637.741	1	13
638.080	1	6
638.419	1	12
638.759	1	6
639.098	1	3
639.437	1	-14
639.776	1	4
640.115	1	-1
640.454	1	13
640.793	1	6
641.132	1	12
641.472	1	-2
641.811	1	2
642.150	1	-1
642.489	1	-5
642.828	1	-5
643.167	1	4
643.506	1	-4
643.845	1	6
644.184	1	7
644.524	1	-2
644.863	1	0
645.202	1	2
645.541	1	-17
645.880	1	2
646.219	1	1
646.558	1	-2
646.897	1	-6
647.236	1	0
647.575	1	2
647.914	1	0
648.253	1	-1
648.592	1	-1
648.931	1	4
649.270	1	8
649.610	1	9
649.949	1	0
650.288	1	1
650.627	1	-6
650.966	1	4
651.305	1	-5
651.644	1	-2
651.983	1	6
652.322	1	3
652.661	1	4
653.000	1	-4
653.339	1	10
653.678	1	-5
654.017	1	1
654.356	1	7
654.695	1	-4
655.034	1	0
655.373	1	-4
655.712	1	-8
656.051	1	8
656.390	1	-6
656.729	1	-8
657.068	1	-8
657.406	1	-1
657.745	1	-6
658.084	1	14
658.423	1	-6
658.762	1	-11
659.101	1	-4
659.440	1	18
659.779	1	-12
660.118	1	8
660.457	1	-4
660.796	1	1
661.135	1	0
661.474	1	-2
661.813	1	0
662.152	1	4
662.491	1	2
662.829	1	-5
663.168	1	-12
663.507	1	-3
663.846	1	0
664.185	1	-5
664.524	1	-6
664.863	1	0
665.202	1	-2
665.541	1	0
665.879	1	-4
666.218	1	-13
666.557	1	-4
666.896	1	-13
667.235	1	-1
667.574	1	2
667.913	1	7
668.251	1	6
668.590	1	-7
668.929	1	0
669.268	1	9
669.607	1	-3
669.946	1	7
670.285	1	4
670.623	1	4
670.962	1	-3
671.301	1	-5
671.640	1	-14
671.979	1	11
672.317	1	2
672.656	1	-1
672.995	1	-1
673.334	1	2
673.673	1	8
674.011	1	3
674.350	1	-2
674.689	1	1
675.028	1	6
675.367	1	11
675.705	1	-5
676.044	1	-6
676.383	1	-8
676.722	1	2
677.060	1	1
677.399	1	-5
677.738	1	-1
678.077	1	2
678.416	1	-2
678.754	1	1
679.093	1	1
679.432	1	-3
679.771	1	-6
680.109	1	4
680.448	1	4
680.787	1	3
681.125	1	4
681.464	1	-9
681.803	1	-8
682.142	1	11
682.480	1	1
682.819	1	3
683.158	1	-3
683.496	1	0
683.835	1	3
684.174	1	-3
684.512	1	1
684.851	1	-5
685.190	1	19
685.529	1	6
685.867	1	1
686.206	1	3
686.545	1	5
686.883	1	-4
687.222	1	-4
687.561	1	-1
687.899	1	0
688.238	1	1
688.577	1	-6
688.746	1	-3