File: Analysis/GaN_68K_200ms/GaN_sample E_spot4_UVVIS_68 K_200um_200 ms 2x2mm1_744.txt
340.368	1	1
340.710	1	-14
341.052	1	1
341.394	1	-5
341.737	1	5
342.079	1	-10
342.421	1	-7
342.763	1	-5
343.105	1	2
343.447	1	5
343.789	1	-6
344.131	1	-1
344.473	1	0
344.815	1	5
345.157	1	2
345.499	1	-2
345.841	1	-4
346.183	1	-4
346.526	1	4
346.868	1	-10
347.210	1	-4
347.552	1	-13
347.894	1	-5
348.236	1	8
348.578	1	4
348.920	1	11
349.262	1	-8
349.604	1	17
349.946	1	9
350.288	1	6
350.630	1	-9
350.972	1	-5
351.314	1	-3
351.656	1	-1
351.998	1	-3
352.340	1	-7
352.682	1	-7
353.024	1	-8
353.366	1	12
353.708	1	6
354.050	1	8
354.392	1	-1
354.734	1	-2
355.076	1	10
355.418	1	-7
355.760	1	1
356.102	1	-13
356.444	1	7
356.785	1	4
357.127	1	1
357.469	1	-3
357.811	1	10
358.153	1	4
358.495	1	8
358.837	1	1
359.179	1	0
359.521	1	-3
359.863	1	-7
360.205	1	6
360.547	1	6
360.889	1	7
361.231	1	-7
361.572	1	0
361.914	1	-1
362.256	1	1
362.598	1	6
362.940	1	1
363.282	1	-4
363.624	1	7
363.966	1	4
364.308	1	-4
364.649	1	2
364.991	1	8
365.333	1	4
365.675	1	-4
366.017	1	7
366.359	1	-2
366.701	1	-14
367.042	1	8
367.384	1	8
367.726	1	9
368.068	1	-6
368.410	1	2
368.752	1	-9
369.093	1	4
369.435	1	-1
369.777	1	-16
370.119	1	-6
370.461	1	0
370.803	1	-4
371.144	1	11
371.486	1	5
371.828	1	-1
372.170	1	12
372.512	1	1
372.853	1	2
373.195	1	-6
373.537	1	-1
373.879	1	5
374.220	1	-8
374.562	1	3
374.904	1	-2
375.246	1	-5
375.588	1	0
375.929	1	0
376.271	1	-2
376.613	1	0
376.955	1	-4
377.296	1	8
377.638	1	1
377.980	1	-2
378.321	1	1
378.663	1	-11
379.005	1	12
379.347	1	4
379.688	1	-4
380.030	1	-11
380.372	1	-4
380.714	1	7
381.055	1	-2
381.397	1	-8
381.739	1	4
382.080	1	-14
382.422	1	0
382.764	1	-10
383.105	1	8
383.447	1	12
383.789	1	-8
384.130	1	2
384.472	1	-1
384.814	1	4
385.156	1	6
385.497	1	8
385.839	1	7
386.180	1	4
386.522	1	7
386.864	1	-10
387.205	1	-2
387.547	1	2
387.889	1	13
388.230	1	0
388.572	1	5
388.914	1	-1
389.255	1	7
389.597	1	-5
389.939	1	3
390.280	1	7
390.622	1	-8
390.963	1	5
391.305	1	17
391.647	1	4
391.988	1	-11
392.330	1	4
392.671	1	2
393.013	1	7
393.355	1	10
393.696	1	-5
394.038	1	-6
394.379	1	-1
394.721	1	5
395.062	1	-11
395.404	1	7
395.746	1	-7
396.087	1	7
396.429	1	4
396.770	1	18
397.112	1	0
397.453	1	-7
397.795	1	-1
398.136	1	7
398.478	1	7
398.819	1	4
399.161	1	3
399.503	1	8
399.844	1	-1
400.186	1	11
400.527	1	8
400.869	1	9
401.210	1	-1
401.552	1	14
401.893	1	7
402.235	1	5
402.576	1	20
402.918	1	-1
403.259	1	-6
403.601	1	-12
403.942	1	9
404.284	1	-6
404.625	1	6
404.967	1	1
405.308	1	5
405.649	1	-5
405.991	1	4
406.332	1	-7
406.674	1	-2
407.015	1	-14
407.357	1	-5
407.698	1	-2
408.040	1	5
408.381	1	-3
408.722	1	-3
409.064	1	-7
409.405	1	-3
409.747	1	3
410.088	1	4
410.430	1	10
410.771	1	5
411.112	1	12
411.454	1	1
411.795	1	-4
412.137	1	6
412.478	1	5
412.819	1	-2
413.161	1	-4
413.502	1	-11
413.844	1	-3
414.185	1	0
414.526	1	-2
414.868	1	9
415.209	1	-4
415.550	1	-5
415.892	1	6
416.233	1	1
416.575	1	-2
416.916	1	0
417.257	1	4
417.599	1	0
417.940	1	0
418.281	1	-1
418.623	1	-4
418.964	1	-1
419.305	1	6
419.647	1	3
419.988	1	3
420.329	1	6
420.671	1	2
421.012	1	7
421.353	1	6
421.695	1	-2
422.036	1	1
422.377	1	-3
422.718	1	2
423.060	1	-5
423.401	1	-4
423.742	1	3
424.084	1	3
424.425	1	-2
424.766	1	7
425.107	1	5
425.449	1	-6
425.790	1	-8
426.131	1	8
426.472	1	-10
426.814	1	17
427.155	1	-8
427.496	1	7
427.837	1	-8
428.179	1	-2
428.520	1	-2
428.861	1	6
429.202	1	3
429.544	1	10
429.885	1	2
430.226	1	-3
430.567	1	13
430.909	1	-10
431.250	1	-9
431.591	1	3
431.932	1	6
432.273	1	-3
432.615	1	2
432.956	1	0
433.297	1	-3
433.638	1	-7
433.979	1	-4
434.320	1	7
434.662	1	-7
435.003	1	4
435.344	1	2
435.685	1	8
436.026	1	-4
436.368	1	-3
436.709	1	-6
437.050	1	-4
437.391	1	0
437.732	1	8
438.073	1	13
438.414	1	-6
438.756	1	11
439.097	1	2
439.438	1	12
439.779	1	-2
440.120	1	-2
440.461	1	-4
440.802	1	4
441.143	1	-1
441.485	1	4
441.826	1	-9
442.167	1	-9
442.508	1	2
442.849	1	9
443.190	1	-1
443.531	1	-4
443.872	1	0
444.213	1	-9
444.554	1	-11
444.895	1	-3
445.237	1	-1
445.578	1	5
445.919	1	3
446.260	1	-5
446.601	1	-1
446.942	1	8
447.283	1	-5
447.624	1	4
447.965	1	-10
448.306	1	5
448.647	1	13
448.988	1	-8
449.329	1	0
449.670	1	6
450.011	1	1
450.352	1	7
450.693	1	-3
451.034	1	-2
451.375	1	5
451.716	1	3
452.057	1	11
452.398	1	6
452.739	1	0
453.080	1	3
453.421	1	-4
453.762	1	6
454.103	1	5
454.444	1	14
454.785	1	-5
455.126	1	-4
455.467	1	5
455.808	1	4
456.149	1	-2
456.490	1	2
456.831	1	4
457.172	1	0
457.513	1	-3
457.854	1	2
458.195	1	-3
458.536	1	4
458.877	1	1
459.218	1	7
459.559	1	-5
459.899	1	-2
460.240	1	0
460.581	1	4
460.922	1	-2
461.263	1	7
461.604	1	4
461.945	1	7
462.286	1	-3
462.627	1	3
462.968	1	-11
463.309	1	0
463.649	1	1
463.990	1	1
464.331	1	5
464.672	1	1
465.013	1	-10
465.354	1	5
465.695	1	9
466.036	1	7
466.376	1	4
466.717	1	-3
467.058	1	7
467.399	1	7
467.740	1	-9
468.081	1	6
468.422	1	9
468.762	1	-13
469.103	1	-3
469.444	1	-6
469.785	1	7
470.126	1	1
470.467	1	-10
470.807	1	-3
471.148	1	-5
471.489	1	-1
471.830	1	10
472.171	1	-2
472.511	1	9
472.852	1	-4
473.193	1	1
473.534	1	5
473.875	1	3
474.215	1	-2
474.556	1	0
474.897	1	0
475.238	1	4
475.578	1	5
475.919	1	3
476.260	1	-1
476.601	1	4
476.942	1	-4
477.282	1	-9
477.623	1	6
477.964	1	14
478.305	1	-2
478.645	1	5
478.986	1	-4
479.327	1	-4
479.667	1	-1
480.008	1	2
480.349	1	-7
480.690	1	6
481.030	1	-7
481.371	1	8
481.712	1	4
482.053	1	7
482.393	1	-9
482.734	1	3
483.075	1	1
483.415	1	4
483.756	1	-5
484.097	1	-10
484.437	1	-10
484.778	1	3
485.119	1	2
485.459	1	9
485.800	1	-3
486.141	1	-12
486.481	1	-5
486.822	1	-1
487.163	1	-7
487.503	1	-12
487.844	1	1
488.185	1	-12
488.525	1	3
488.866	1	6
489.207	1	13
489.547	1	-12
489.888	1	1
490.228	1	-8
490.569	1	9
490.910	1	-4
491.250	1	1
491.591	1	-3
491.932	1	0
492.272	1	6
492.613	1	9
492.953	1	-3
493.294	1	5
493.635	1	2
493.975	1	-2
494.316	1	7
494.656	1	4
494.997	1	-8
495.337	1	0
495.678	1	8
496.019	1	-6
496.359	1	4
496.700	1	0
497.040	1	3
497.381	1	-15
497.721	1	-5
498.062	1	2
498.403	1	-11
498.743	1	5
499.084	1	-9
499.424	1	6
499.765	1	0
500.105	1	-3
500.446	1	6
500.786	1	-4
501.127	1	5
501.467	1	-3
501.808	1	-8
502.148	1	4
502.489	1	-6
502.829	1	3
503.170	1	1
503.510	1	1
503.851	1	-13
504.191	1	-1
504.532	1	-7
504.872	1	-18
505.213	1	-1
505.553	1	6
505.894	1	4
506.234	1	4
506.575	1	-3
506.915	1	-1
507.256	1	3
507.596	1	5
507.936	1	0
508.277	1	-9
508.617	1	-1
508.958	1	8
509.298	1	4
509.639	1	12
509.979	1	1
510.319	1	-9
510.660	1	7
511.000	1	9
511.341	1	0
511.681	1	-7
512.022	1	-6
512.362	1	4
512.702	1	-15
513.043	1	2
513.383	1	-10
513.724	1	8
514.064	1	-5
514.404	1	8
514.745	1	-2
515.085	1	-5
515.425	1	-2
515.766	1	-2
516.106	1	-1
516.447	1	-1
516.787	1	-4
517.127	1	0
517.468	1	2
517.808	1	1
518.148	1	-1
518.489	1	4
518.829	1	-9
519.169	1	6
519.510	1	-5
519.850	1	-5
520.190	1	8
520.531	1	-1
520.871	1	-11
521.211	1	4
521.552	1	7
521.892	1	-5
522.232	1	-3
522.573	1	-8
522.913	1	-1
523.253	1	10
523.593	1	-14
523.934	1	6
524.274	1	-8
524.614	1	-3
524.955	1	5
525.295	1	-4
525.635	1	18
525.975	1	-6
526.316	1	7
526.656	1	15
526.996	1	9
527.337	1	-2
527.677	1	11
528.017	1	-6
528.357	1	5
528.698	1	-5
529.038	1	5
529.378	1	7
529.718	1	-7
530.058	1	2
530.399	1	7
530.739	1	-4
531.079	1	8
531.419	1	-1
531.760	1	10
532.100	1	0
532.440	1	-8
532.780	1	-6
533.120	1	-5
533.461	1	11
533.801	1	-3
534.141	1	3
534.481	1	5
534.821	1	5
535.162	1	3
535.502	1	5
535.842	1	1
536.182	1	-5
536.522	1	6
536.862	1	5
537.203	1	4
537.543	1	0
537.883	1	3
538.223	1	2
538.563	1	9
538.903	1	5
539.243	1	-6
539.584	1	-6
539.924	1	-2
540.264	1	2
540.604	1	0
540.944	1	-8
541.284	1	-1
541.624	1	0
541.964	1	-3
542.305	1	-1
542.645	1	-4
542.985	1	1
543.325	1	-4
543.665	1	18
544.005	1	2
544.345	1	-7
544.685	1	-4
545.025	1	-11
545.365	1	-9
545.705	1	5
546.045	1	13
546.386	1	0
546.726	1	-3
547.066	1	-7
547.406	1	6
547.746	1	8
548.086	1	-2
548.426	1	5
548.766	1	7
549.106	1	11
549.446	1	-12
549.786	1	-5
550.126	1	-9
550.466	1	-6
550.806	1	6
551.146	1	0
551.486	1	6
551.826	1	-2
552.166	1	-7
552.506	1	-5
552.846	1	2
553.186	1	4
553.526	1	-4
553.866	1	0
554.206	1	2
554.546	1	-15
554.886	1	5
555.226	1	-7
555.566	1	15
555.906	1	5
556.246	1	3
556.586	1	7
556.926	1	7
557.266	1	4
557.606	1	-2
557.946	1	7
558.286	1	-3
558.626	1	0
558.966	1	2
559.306	1	-1
559.646	1	-5
559.986	1	-5
560.325	1	-15
560.665	1	6
561.005	1	-1
561.345	1	-4
561.685	1	-4
562.025	1	-7
562.365	1	-4
562.705	1	0
563.045	1	5
563.385	1	1
563.725	1	10
564.064	1	7
564.404	1	-2
564.744	1	3
565.084	1	-15
565.424	1	-5
565.764	1	6
566.104	1	-5
566.444	1	12
566.783	1	-2
567.123	1	13
567.463	1	-3
567.803	1	-10
568.143	1	-13
568.483	1	-2
568.823	1	2
569.162	1	8
569.502	1	3
569.842	1	-3
570.182	1	-3
570.522	1	5
570.862	1	-3
571.201	1	4
571.541	1	-7
571.881	1	6
572.221	1	6
572.561	1	-6
572.900	1	9
573.240	1	-2
573.580	1	4
573.920	1	-3
574.260	1	-4
574.599	1	-4
574.939	1	-6
575.279	1	-1
575.619	1	3
575.959	1	-4
576.298	1	-4
576.638	1	2
576.978	1	0
577.318	1	6
577.657	1	-14
577.997	1	-11
578.337	1	-8
578.677	1	2
579.016	1	18
579.356	1	-1
579.696	1	0
580.036	1	-5
580.375	1	8
580.715	1	15
581.055	1	0
581.394	1	8
581.734	1	10
582.074	1	-6
582.414	1	2
582.753	1	-4
583.093	1	-2
583.433	1	-2
583.772	1	7
584.112	1	9
584.452	1	7
584.791	1	-2
585.131	1	-7
585.471	1	-2
585.811	1	-2
586.150	1	2
586.490	1	-8
586.830	1	-10
587.169	1	-7
587.509	1	-3
587.849	1	3
588.188	1	-1
588.528	1	-2
588.867	1	1
589.207	1	0
589.547	1	-7
589.886	1	-9
590.226	1	8
590.566	1	0
590.905	1	4
591.245	1	-8
591.585	1	5
591.924	1	-8
592.264	1	4
592.603	1	-9
592.943	1	-3
593.283	1	9
593.622	1	1
593.962	1	0
594.301	1	2
594.641	1	-3
594.981	1	2
595.320	1	7
595.660	1	-2
595.999	1	-3
596.339	1	0
596.678	1	-2
597.018	1	7
597.358	1	7
597.697	1	-10
598.037	1	-1
598.376	1	-2
598.716	1	-2
599.055	1	-7
599.395	1	0
599.734	1	5
600.074	1	-5
600.413	1	1
600.753	1	-4
601.092	1	-3
601.432	1	-6
601.771	1	4
602.111	1	1
602.451	1	-2
602.790	1	4
603.130	1	8
603.469	1	-9
603.809	1	8
604.148	1	6
604.487	1	-7
604.827	1	-9
605.166	1	-6
605.506	1	1
605.845	1	-6
606.185	1	-14
606.524	1	-5
606.864	1	0
607.203	1	1
607.543	1	-4
607.882	1	-4
608.222	1	1
608.561	1	2
608.901	1	-2
609.240	1	3
609.579	1	3
609.919	1	-16
610.258	1	7
610.598	1	-2
610.937	1	7
611.277	1	-1
611.616	1	-9
611.955	1	4
612.295	1	5
612.634	1	-1
612.974	1	-1
613.313	1	13
613.652	1	-10
613.992	1	-7
614.331	1	2
614.671	1	4
615.010	1	4
615.349	1	-10
615.689	1	3
616.028	1	-7
616.368	1	7
616.707	1	0
617.046	1	-1
617.386	1	4
617.725	1	3
618.064	1	9
618.404	1	10
618.743	1	-7
619.082	1	4
619.422	1	4
619.761	1	-6
620.100	1	0
620.440	1	6
620.779	1	-9
621.118	1	0
621.458	1	7
621.797	1	5
622.136	1	-1
622.476	1	2
622.815	1	2
623.154	1	-1
623.494	1	-1
623.833	1	-9
624.172	1	11
624.511	1	4
624.851	1	-14
625.190	1	7
625.529	1	8
625.869	1	-6
626.208	1	-1
626.547	1	0
626.886	1	-8
627.226	1	2
627.565	1	2
627.904	1	5
628.243	1	-3
628.583	1	-3
628.922	1	0
629.261	1	-3
629.600	1	8
629.940	1	0
630.279	1	-5
630.618	1	3
630.957	1	-8
631.297	1	-7
631.636	1	0
631.975	1	6
632.314	1	14
632.653	1	1
632.993	1	-4
633.332	1	1
633.671	1	-2
634.010	1	-1
634.349	1	2
634.689	1	4
635.028	1	-2
635.367	1	0
635.706	1	-3
636.045	1	-6
636.384	1	2
636.724	1	-2
637.063	1	5
637.402	1	3
637.741	1	10
638.080	1	1
638.419	1	3
638.759	1	11
639.098	1	2
639.437	1	-14
639.776	1	-6
640.115	1	-3
640.454	1	0
640.793	1	-1
641.132	1	5
641.472	1	5
641.811	1	0
642.150	1	0
642.489	1	-4
642.828	1	10
643.167	1	9
643.506	1	-1
643.845	1	1
644.184	1	5
644.524	1	-3
644.863	1	-6
645.202	1	1
645.541	1	-5
645.880	1	-5
646.219	1	2
646.558	1	-1
646.897	1	-6
647.236	1	-2
647.575	1	3
647.914	1	-5
648.253	1	9
648.592	1	3
648.931	1	6
649.270	1	9
649.610	1	12
649.949	1	4
650.288	1	-2
650.627	1	0
650.966	1	4
651.305	1	-4
651.644	1	-5
651.983	1	2
652.322	1	4
652.661	1	5
653.000	1	-8
653.339	1	4
653.678	1	2
654.017	1	-1
654.356	1	0
654.695	1	-2
655.034	1	-2
655.373	1	-1
655.712	1	-6
656.051	1	-3
656.390	1	2
656.729	1	0
657.068	1	-3
657.406	1	1
657.745	1	-10
658.084	1	-1
658.423	1	-10
658.762	1	-6
659.101	1	1
659.440	1	3
659.779	1	0
660.118	1	4
660.457	1	-3
660.796	1	1
661.135	1	-2
661.474	1	-8
661.813	1	-7
662.152	1	-2
662.491	1	-2
662.829	1	1
663.168	1	-8
663.507	1	-3
663.846	1	10
664.185	1	-8
664.524	1	-10
664.863	1	-1
665.202	1	-8
665.541	1	1
665.879	1	-4
666.218	1	-5
666.557	1	3
666.896	1	4
667.235	1	0
667.574	1	3
667.913	1	-1
668.251	1	2
668.590	1	-7
668.929	1	0
669.268	1	-3
669.607	1	-10
669.946	1	-2
670.285	1	2
670.623	1	2
670.962	1	1
671.301	1	2
671.640	1	-12
671.979	1	12
672.317	1	-5
672.656	1	6
672.995	1	-7
673.334	1	1
673.673	1	11
674.011	1	-1
674.350	1	-4
674.689	1	-10
675.028	1	8
675.367	1	8
675.705	1	-11
676.044	1	-6
676.383	1	-10
676.722	1	-1
677.060	1	-5
677.399	1	-1
677.738	1	-7
678.077	1	0
678.416	1	2
678.754	1	-4
679.093	1	-1
679.432	1	-6
679.771	1	10
680.109	1	-2
680.448	1	-6
680.787	1	0
681.125	1	3
681.464	1	-4
681.803	1	-4
682.142	1	-4
682.480	1	-11
682.819	1	-6
683.158	1	-3
683.496	1	4
683.835	1	4
684.174	1	0
684.512	1	-4
684.851	1	5
685.190	1	6
685.529	1	-2
685.867	1	10
686.206	1	3
686.545	1	3
686.883	1	2
687.222	1	-6
687.561	1	2
687.899	1	3
688.238	1	-1
688.577	1	-9
688.746	1	6