File: Analysis/GaN_68K_200ms/GaN_sample E_spot4_UVVIS_68 K_200um_200 ms 2x2mm1_805.txt
340.368	1	7
340.710	1	-8
341.052	1	-7
341.394	1	-4
341.737	1	15
342.079	1	-6
342.421	1	-1
342.763	1	-7
343.105	1	13
343.447	1	1
343.789	1	-1
344.131	1	-8
344.473	1	-1
344.815	1	-2
345.157	1	10
345.499	1	1
345.841	1	1
346.183	1	-12
346.526	1	6
346.868	1	1
347.210	1	0
347.552	1	0
347.894	1	4
348.236	1	3
348.578	1	4
348.920	1	6
349.262	1	-5
349.604	1	12
349.946	1	5
350.288	1	-7
350.630	1	-6
350.972	1	3
351.314	1	0
351.656	1	-10
351.998	1	-6
352.340	1	-1
352.682	1	-12
353.024	1	-5
353.366	1	2
353.708	1	6
354.050	1	-2
354.392	1	5
354.734	1	-5
355.076	1	3
355.418	1	-10
355.760	1	-2
356.102	1	-1
356.444	1	-1
356.785	1	12
357.127	1	2
357.469	1	-6
357.811	1	9
358.153	1	1
358.495	1	9
358.837	1	-9
359.179	1	4
359.521	1	5
359.863	1	-19
360.205	1	-6
360.547	1	-6
360.889	1	1
361.231	1	-3
361.572	1	-3
361.914	1	0
362.256	1	8
362.598	1	6
362.940	1	1
363.282	1	1
363.624	1	0
363.966	1	3
364.308	1	-2
364.649	1	1
364.991	1	4
365.333	1	6
365.675	1	-6
366.017	1	2
366.359	1	9
366.701	1	-2
367.042	1	1
367.384	1	9
367.726	1	13
368.068	1	5
368.410	1	-12
368.752	1	-6
369.093	1	-3
369.435	1	0
369.777	1	-2
370.119	1	-1
370.461	1	-1
370.803	1	-4
371.144	1	3
371.486	1	5
371.828	1	4
372.170	1	7
372.512	1	-4
372.853	1	9
373.195	1	-11
373.537	1	4
373.879	1	9
374.220	1	0
374.562	1	-2
374.904	1	10
375.246	1	-6
375.588	1	0
375.929	1	0
376.271	1	-7
376.613	1	5
376.955	1	-7
377.296	1	2
377.638	1	-3
377.980	1	8
378.321	1	2
378.663	1	4
379.005	1	7
379.347	1	7
379.688	1	4
380.030	1	-2
380.372	1	10
380.714	1	2
381.055	1	8
381.397	1	-8
381.739	1	3
382.080	1	-9
382.422	1	13
382.764	1	-10
383.105	1	-8
383.447	1	5
383.789	1	-3
384.130	1	-15
384.472	1	-7
384.814	1	1
385.156	1	13
385.497	1	-2
385.839	1	-3
386.180	1	7
386.522	1	0
386.864	1	1
387.205	1	-3
387.547	1	-2
387.889	1	1
388.230	1	6
388.572	1	-1
388.914	1	13
389.255	1	8
389.597	1	7
389.939	1	8
390.280	1	6
390.622	1	-2
390.963	1	12
391.305	1	2
391.647	1	5
391.988	1	-1
392.330	1	4
392.671	1	2
393.013	1	4
393.355	1	7
393.696	1	3
394.038	1	-12
394.379	1	0
394.721	1	0
395.062	1	-8
395.404	1	6
395.746	1	4
396.087	1	-3
396.429	1	-5
396.770	1	4
397.112	1	-7
397.453	1	-9
397.795	1	1
398.136	1	1
398.478	1	0
398.819	1	-4
399.161	1	-3
399.503	1	-1
399.844	1	3
400.186	1	12
400.527	1	4
400.869	1	0
401.210	1	0
401.552	1	9
401.893	1	-2
402.235	1	11
402.576	1	8
402.918	1	-6
403.259	1	-11
403.601	1	-9
403.942	1	5
404.284	1	1
404.625	1	0
404.967	1	-3
405.308	1	2
405.649	1	-3
405.991	1	13
406.332	1	-5
406.674	1	4
407.015	1	-3
407.357	1	-1
407.698	1	-7
408.040	1	0
408.381	1	6
408.722	1	5
409.064	1	-4
409.405	1	7
409.747	1	0
410.088	1	8
410.430	1	1
410.771	1	4
411.112	1	-4
411.454	1	4
411.795	1	-9
412.137	1	7
412.478	1	8
412.819	1	-10
413.161	1	-2
413.502	1	-6
413.844	1	3
414.185	1	12
414.526	1	5
414.868	1	9
415.209	1	5
415.550	1	-6
415.892	1	-7
416.233	1	-5
416.575	1	-8
416.916	1	-6
417.257	1	6
417.599	1	1
417.940	1	-1
418.281	1	-1
418.623	1	7
418.964	1	-1
419.305	1	-1
419.647	1	-1
419.988	1	-1
420.329	1	5
420.671	1	1
421.012	1	6
421.353	1	4
421.695	1	4
422.036	1	-10
422.377	1	3
422.718	1	-8
423.060	1	-7
423.401	1	0
423.742	1	3
424.084	1	-2
424.425	1	-1
424.766	1	-1
425.107	1	6
425.449	1	-1
425.790	1	5
426.131	1	3
426.472	1	-8
426.814	1	6
427.155	1	2
427.496	1	10
427.837	1	-6
428.179	1	-8
428.520	1	-1
428.861	1	-4
429.202	1	4
429.544	1	-2
429.885	1	-3
430.226	1	-6
430.567	1	3
430.909	1	-8
431.250	1	-10
431.591	1	3
431.932	1	4
432.273	1	7
432.615	1	-5
432.956	1	-9
433.297	1	5
433.638	1	3
433.979	1	0
434.320	1	-4
434.662	1	-10
435.003	1	6
435.344	1	3
435.685	1	12
436.026	1	2
436.368	1	-2
436.709	1	-11
437.050	1	-1
437.391	1	7
437.732	1	1
438.073	1	1
438.414	1	0
438.756	1	6
439.097	1	12
439.438	1	7
439.779	1	-11
440.120	1	7
440.461	1	-9
440.802	1	-1
441.143	1	17
441.485	1	-5
441.826	1	-14
442.167	1	1
442.508	1	-1
442.849	1	2
443.190	1	-1
443.531	1	4
443.872	1	1
444.213	1	-6
444.554	1	2
444.895	1	-3
445.237	1	-7
445.578	1	9
445.919	1	2
446.260	1	-4
446.601	1	-10
446.942	1	8
447.283	1	-4
447.624	1	8
447.965	1	-2
448.306	1	-1
448.647	1	6
448.988	1	-20
449.329	1	-2
449.670	1	-2
450.011	1	-2
450.352	1	5
450.693	1	5
451.034	1	-3
451.375	1	6
451.716	1	6
452.057	1	5
452.398	1	6
452.739	1	-3
453.080	1	6
453.421	1	-4
453.762	1	13
454.103	1	9
454.444	1	4
454.785	1	-10
455.126	1	-5
455.467	1	1
455.808	1	-1
456.149	1	1
456.490	1	-4
456.831	1	12
457.172	1	2
457.513	1	7
457.854	1	-6
458.195	1	-3
458.536	1	3
458.877	1	-8
459.218	1	0
459.559	1	1
459.899	1	0
460.240	1	-1
460.581	1	6
460.922	1	1
461.263	1	6
461.604	1	-4
461.945	1	3
462.286	1	10
462.627	1	0
462.968	1	-8
463.309	1	-3
463.649	1	2
463.990	1	-6
464.331	1	10
464.672	1	-5
465.013	1	-4
465.354	1	3
465.695	1	10
466.036	1	2
466.376	1	-6
466.717	1	-1
467.058	1	9
467.399	1	-6
467.740	1	-8
468.081	1	10
468.422	1	1
468.762	1	-3
469.103	1	-11
469.444	1	-1
469.785	1	1
470.126	1	3
470.467	1	-7
470.807	1	-1
471.148	1	-2
471.489	1	-3
471.830	1	11
472.171	1	10
472.511	1	11
472.852	1	-8
473.193	1	-3
473.534	1	-2
473.875	1	5
474.215	1	4
474.556	1	-8
474.897	1	-1
475.238	1	-3
475.578	1	8
475.919	1	0
476.260	1	3
476.601	1	-8
476.942	1	5
477.282	1	-10
477.623	1	7
477.964	1	10
478.305	1	0
478.645	1	1
478.986	1	-8
479.327	1	-10
479.667	1	-1
480.008	1	6
480.349	1	0
480.690	1	-2
481.030	1	-2
481.371	1	2
481.712	1	4
482.053	1	-4
482.393	1	-8
482.734	1	-1
483.075	1	10
483.415	1	2
483.756	1	10
484.097	1	-1
484.437	1	-12
484.778	1	3
485.119	1	0
485.459	1	2
485.800	1	-7
486.141	1	-10
486.481	1	-2
486.822	1	1
487.163	1	-9
487.503	1	-6
487.844	1	4
488.185	1	-10
488.525	1	-6
488.866	1	-5
489.207	1	11
489.547	1	-7
489.888	1	-1
490.228	1	-12
490.569	1	0
490.910	1	1
491.250	1	2
491.591	1	-6
491.932	1	4
492.272	1	8
492.613	1	10
492.953	1	2
493.294	1	-2
493.635	1	-1
493.975	1	2
494.316	1	4
494.656	1	10
494.997	1	0
495.337	1	5
495.678	1	2
496.019	1	-3
496.359	1	-5
496.700	1	-7
497.040	1	0
497.381	1	-14
497.721	1	-7
498.062	1	-7
498.403	1	5
498.743	1	-5
499.084	1	-8
499.424	1	20
499.765	1	1
500.105	1	5
500.446	1	-1
500.786	1	7
501.127	1	10
501.467	1	-8
501.808	1	-12
502.148	1	5
502.489	1	7
502.829	1	1
503.170	1	0
503.510	1	1
503.851	1	-13
504.191	1	-7
504.532	1	-13
504.872	1	-9
505.213	1	-9
505.553	1	11
505.894	1	3
506.234	1	5
506.575	1	-2
506.915	1	-4
507.256	1	-10
507.596	1	7
507.936	1	-3
508.277	1	-6
508.617	1	14
508.958	1	5
509.298	1	14
509.639	1	1
509.979	1	-8
510.319	1	-8
510.660	1	10
511.000	1	3
511.341	1	-9
511.681	1	4
512.022	1	-5
512.362	1	-10
512.702	1	-6
513.043	1	-6
513.383	1	-11
513.724	1	2
514.064	1	-3
514.404	1	2
514.745	1	2
515.085	1	1
515.425	1	-8
515.766	1	1
516.106	1	-4
516.447	1	4
516.787	1	-3
517.127	1	2
517.468	1	-12
517.808	1	-8
518.148	1	0
518.489	1	-1
518.829	1	-14
519.169	1	15
519.510	1	6
519.850	1	0
520.190	1	-2
520.531	1	7
520.871	1	-6
521.211	1	11
521.552	1	6
521.892	1	-9
522.232	1	-3
522.573	1	-3
522.913	1	9
523.253	1	-3
523.593	1	-3
523.934	1	-3
524.274	1	-5
524.614	1	0
524.955	1	-8
525.295	1	-1
525.635	1	7
525.975	1	-9
526.316	1	-2
526.656	1	10
526.996	1	12
527.337	1	4
527.677	1	20
528.017	1	-17
528.357	1	5
528.698	1	-2
529.038	1	9
529.378	1	-4
529.718	1	-2
530.058	1	-2
530.399	1	13
530.739	1	-5
531.079	1	3
531.419	1	10
531.760	1	7
532.100	1	2
532.440	1	-6
532.780	1	-7
533.120	1	-10
533.461	1	15
533.801	1	8
534.141	1	11
534.481	1	2
534.821	1	3
535.162	1	2
535.502	1	3
535.842	1	2
536.182	1	-4
536.522	1	-1
536.862	1	0
537.203	1	11
537.543	1	1
537.883	1	1
538.223	1	2
538.563	1	-1
538.903	1	-10
539.243	1	-8
539.584	1	5
539.924	1	-5
540.264	1	2
540.604	1	4
540.944	1	-1
541.284	1	-4
541.624	1	-6
541.964	1	-1
542.305	1	-11
542.645	1	-2
542.985	1	3
543.325	1	1
543.665	1	10
544.005	1	1
544.345	1	-3
544.685	1	8
545.025	1	-1
545.365	1	-9
545.705	1	5
546.045	1	12
546.386	1	4
546.726	1	-6
547.066	1	-6
547.406	1	6
547.746	1	8
548.086	1	-3
548.426	1	-7
548.766	1	4
549.106	1	0
549.446	1	1
549.786	1	-5
550.126	1	-5
550.466	1	-3
550.806	1	4
551.146	1	-4
551.486	1	3
551.826	1	9
552.166	1	-3
552.506	1	-4
552.846	1	-1
553.186	1	-2
553.526	1	-5
553.866	1	13
554.206	1	10
554.546	1	-16
554.886	1	-6
555.226	1	-19
555.566	1	4
555.906	1	4
556.246	1	-6
556.586	1	2
556.926	1	7
557.266	1	1
557.606	1	-5
557.946	1	2
558.286	1	2
558.626	1	5
558.966	1	0
559.306	1	6
559.646	1	0
559.986	1	-6
560.325	1	-13
560.665	1	-3
561.005	1	1
561.345	1	0
561.685	1	-10
562.025	1	-2
562.365	1	2
562.705	1	17
563.045	1	1
563.385	1	-9
563.725	1	-1
564.064	1	3
564.404	1	3
564.744	1	3
565.084	1	-12
565.424	1	4
565.764	1	6
566.104	1	4
566.444	1	4
566.783	1	-1
567.123	1	10
567.463	1	-6
567.803	1	-3
568.143	1	-8
568.483	1	2
568.823	1	11
569.162	1	-5
569.502	1	3
569.842	1	1
570.182	1	-8
570.522	1	5
570.862	1	9
571.201	1	8
571.541	1	-7
571.881	1	11
572.221	1	10
572.561	1	-6
572.900	1	1
573.240	1	-7
573.580	1	3
573.920	1	-2
574.260	1	-5
574.599	1	-4
574.939	1	-13
575.279	1	5
575.619	1	9
575.959	1	-2
576.298	1	-6
576.638	1	5
576.978	1	-3
577.318	1	1
577.657	1	-12
577.997	1	-7
578.337	1	-2
578.677	1	-4
579.016	1	9
579.356	1	-9
579.696	1	4
580.036	1	-6
580.375	1	3
580.715	1	6
581.055	1	5
581.394	1	-10
581.734	1	-2
582.074	1	-6
582.414	1	0
582.753	1	6
583.093	1	-6
583.433	1	-7
583.772	1	-2
584.112	1	-1
584.452	1	0
584.791	1	6
585.131	1	-17
585.471	1	3
585.811	1	-10
586.150	1	0
586.490	1	-7
586.830	1	-8
587.169	1	3
587.509	1	5
587.849	1	-2
588.188	1	-2
588.528	1	9
588.867	1	4
589.207	1	-8
589.547	1	-5
589.886	1	-4
590.226	1	11
590.566	1	2
590.905	1	7
591.245	1	0
591.585	1	-1
591.924	1	-3
592.264	1	-2
592.603	1	-3
592.943	1	-9
593.283	1	0
593.622	1	1
593.962	1	5
594.301	1	3
594.641	1	-4
594.981	1	0
595.320	1	1
595.660	1	3
595.999	1	-1
596.339	1	9
596.678	1	0
597.018	1	10
597.358	1	7
597.697	1	-6
598.037	1	2
598.376	1	5
598.716	1	-4
599.055	1	-2
599.395	1	3
599.734	1	2
600.074	1	-5
600.413	1	-5
600.753	1	8
601.092	1	-5
601.432	1	-10
601.771	1	6
602.111	1	-5
602.451	1	0
602.790	1	4
603.130	1	1
603.469	1	-2
603.809	1	7
604.148	1	2
604.487	1	0
604.827	1	-4
605.166	1	-7
605.506	1	3
605.845	1	1
606.185	1	-2
606.524	1	1
606.864	1	-1
607.203	1	13
607.543	1	-8
607.882	1	-7
608.222	1	7
608.561	1	7
608.901	1	0
609.240	1	2
609.579	1	7
609.919	1	-10
610.258	1	7
610.598	1	4
610.937	1	-2
611.277	1	7
611.616	1	-18
611.955	1	-2
612.295	1	-5
612.634	1	2
612.974	1	10
613.313	1	-6
613.652	1	-12
613.992	1	3
614.331	1	0
614.671	1	-6
615.010	1	9
615.349	1	-2
615.689	1	-8
616.028	1	-3
616.368	1	8
616.707	1	0
617.046	1	4
617.386	1	-6
617.725	1	2
618.064	1	4
618.404	1	11
618.743	1	5
619.082	1	4
619.422	1	-5
619.761	1	2
620.100	1	6
620.440	1	6
620.779	1	-9
621.118	1	-7
621.458	1	-3
621.797	1	-3
622.136	1	1
622.476	1	2
622.815	1	3
623.154	1	0
623.494	1	-1
623.833	1	8
624.172	1	14
624.511	1	1
624.851	1	-12
625.190	1	2
625.529	1	10
625.869	1	2
626.208	1	-2
626.547	1	-1
626.886	1	0
627.226	1	2
627.565	1	7
627.904	1	-2
628.243	1	-14
628.583	1	-5
628.922	1	-3
629.261	1	-2
629.600	1	11
629.940	1	2
630.279	1	-14
630.618	1	-2
630.957	1	-6
631.297	1	-4
631.636	1	2
631.975	1	10
632.314	1	10
632.653	1	-8
632.993	1	5
633.332	1	8
633.671	1	-1
634.010	1	-6
634.349	1	5
634.689	1	4
635.028	1	7
635.367	1	0
635.706	1	-5
636.045	1	2
636.384	1	4
636.724	1	5
637.063	1	9
637.402	1	8
637.741	1	1
638.080	1	0
638.419	1	10
638.759	1	-3
639.098	1	-3
639.437	1	-6
639.776	1	5
640.115	1	0
640.454	1	15
640.793	1	4
641.132	1	8
641.472	1	-4
641.811	1	-4
642.150	1	1
642.489	1	-9
642.828	1	0
643.167	1	7
643.506	1	-1
643.845	1	4
644.184	1	7
644.524	1	-6
644.863	1	-9
645.202	1	-1
645.541	1	-14
645.880	1	-3
646.219	1	10
646.558	1	0
646.897	1	-7
647.236	1	1
647.575	1	3
647.914	1	-2
648.253	1	9
648.592	1	-4
648.931	1	7
649.270	1	8
649.610	1	6
649.949	1	-12
650.288	1	3
650.627	1	-4
650.966	1	-10
651.305	1	-1
651.644	1	-12
651.983	1	2
652.322	1	2
652.661	1	6
653.000	1	-2
653.339	1	9
653.678	1	-5
654.017	1	-4
654.356	1	8
654.695	1	1
655.034	1	5
655.373	1	-12
655.712	1	3
656.051	1	7
656.390	1	0
656.729	1	5
657.068	1	-1
657.406	1	6
657.745	1	-3
658.084	1	9
658.423	1	-9
658.762	1	-4
659.101	1	4
659.440	1	-1
659.779	1	0
660.118	1	-1
660.457	1	-7
660.796	1	-4
661.135	1	7
661.474	1	-4
661.813	1	-5
662.152	1	0
662.491	1	2
662.829	1	-4
663.168	1	-15
663.507	1	4
663.846	1	15
664.185	1	-8
664.524	1	-14
664.863	1	3
665.202	1	-21
665.541	1	-9
665.879	1	0
666.218	1	4
666.557	1	4
666.896	1	-6
667.235	1	6
667.574	1	3
667.913	1	4
668.251	1	-2
668.590	1	1
668.929	1	-4
669.268	1	2
669.607	1	-12
669.946	1	2
670.285	1	9
670.623	1	-5
670.962	1	5
671.301	1	-2
671.640	1	-5
671.979	1	14
672.317	1	-7
672.656	1	2
672.995	1	1
673.334	1	5
673.673	1	14
674.011	1	5
674.350	1	-4
674.689	1	-7
675.028	1	1
675.367	1	12
675.705	1	-13
676.044	1	-3
676.383	1	-5
676.722	1	1
677.060	1	8
677.399	1	2
677.738	1	-4
678.077	1	3
678.416	1	0
678.754	1	-4
679.093	1	5
679.432	1	-1
679.771	1	-9
680.109	1	5
680.448	1	1
680.787	1	5
681.125	1	1
681.464	1	-3
681.803	1	-13
682.142	1	10
682.480	1	-3
682.819	1	0
683.158	1	6
683.496	1	-12
683.835	1	2
684.174	1	-10
684.512	1	3
684.851	1	-6
685.190	1	-4
685.529	1	6
685.867	1	-1
686.206	1	-1
686.545	1	-7
686.883	1	-10
687.222	1	-1
687.561	1	2
687.899	1	-7
688.238	1	2
688.577	1	-10
688.746	1	-4