File: Analysis/GaN_68K_200ms/GaN_sample E_spot4_UVVIS_68 K_200um_200 ms 2x2mm1_492.txt
340.368	1	7
340.710	1	-4
341.052	1	6
341.394	1	-2
341.737	1	12
342.079	1	-2
342.421	1	5
342.763	1	-3
343.105	1	8
343.447	1	4
343.789	1	2
344.131	1	-3
344.473	1	8
344.815	1	4
345.157	1	9
345.499	1	4
345.841	1	2
346.183	1	-3
346.526	1	7
346.868	1	2
347.210	1	-1
347.552	1	-5
347.894	1	-4
348.236	1	2
348.578	1	8
348.920	1	14
349.262	1	-3
349.604	1	7
349.946	1	11
350.288	1	2
350.630	1	-1
350.972	1	-1
351.314	1	-4
351.656	1	1
351.998	1	-5
352.340	1	-2
352.682	1	3
353.024	1	1
353.366	1	6
353.708	1	7
354.050	1	10
354.392	1	-3
354.734	1	-7
355.076	1	2
355.418	1	-6
355.760	1	6
356.102	1	-4
356.444	1	-7
356.785	1	9
357.127	1	7
357.469	1	-2
357.811	1	15
358.153	1	-2
358.495	1	7
358.837	1	6
359.179	1	11
359.521	1	2
359.863	1	-8
360.205	1	4
360.547	1	1
360.889	1	4
361.231	1	-2
361.572	1	2
361.914	1	0
362.256	1	10
362.598	1	-1
362.940	1	-2
363.282	1	9
363.624	1	6
363.966	1	10
364.308	1	-6
364.649	1	7
364.991	1	5
365.333	1	4
365.675	1	8
366.017	1	8
366.359	1	6
366.701	1	-9
367.042	1	11
367.384	1	7
367.726	1	5
368.068	1	-2
368.410	1	7
368.752	1	-4
369.093	1	11
369.435	1	3
369.777	1	-2
370.119	1	2
370.461	1	4
370.803	1	-2
371.144	1	8
371.486	1	11
371.828	1	5
372.170	1	14
372.512	1	-4
372.853	1	2
373.195	1	-4
373.537	1	-1
373.879	1	12
374.220	1	7
374.562	1	0
374.904	1	-3
375.246	1	0
375.588	1	5
375.929	1	3
376.271	1	-2
376.613	1	0
376.955	1	-5
377.296	1	1
377.638	1	0
377.980	1	2
378.321	1	4
378.663	1	-1
379.005	1	6
379.347	1	5
379.688	1	2
380.030	1	-4
380.372	1	0
380.714	1	5
381.055	1	5
381.397	1	-2
381.739	1	9
382.080	1	-11
382.422	1	15
382.764	1	8
383.105	1	-5
383.447	1	13
383.789	1	13
384.130	1	4
384.472	1	-9
384.814	1	3
385.156	1	16
385.497	1	7
385.839	1	5
386.180	1	6
386.522	1	11
386.864	1	3
387.205	1	0
387.547	1	-6
387.889	1	15
388.230	1	3
388.572	1	3
388.914	1	6
389.255	1	5
389.597	1	-2
389.939	1	6
390.280	1	17
390.622	1	1
390.963	1	-4
391.305	1	19
391.647	1	0
391.988	1	-2
392.330	1	8
392.671	1	13
393.013	1	12
393.355	1	21
393.696	1	-3
394.038	1	3
394.379	1	-2
394.721	1	12
395.062	1	1
395.404	1	7
395.746	1	1
396.087	1	13
396.429	1	-1
396.770	1	5
397.112	1	9
397.453	1	-8
397.795	1	6
398.136	1	11
398.478	1	4
398.819	1	10
399.161	1	-3
399.503	1	2
399.844	1	1
400.186	1	13
400.527	1	7
400.869	1	5
401.210	1	-2
401.552	1	19
401.893	1	0
402.235	1	7
402.576	1	9
402.918	1	-6
403.259	1	-8
403.601	1	-6
403.942	1	4
404.284	1	6
404.625	1	1
404.967	1	6
405.308	1	9
405.649	1	-2
405.991	1	19
406.332	1	-7
406.674	1	-2
407.015	1	-4
407.357	1	2
407.698	1	-2
408.040	1	-14
408.381	1	-3
408.722	1	2
409.064	1	-8
409.405	1	-4
409.747	1	-3
410.088	1	0
410.430	1	8
410.771	1	4
411.112	1	12
411.454	1	24
411.795	1	12
412.137	1	11
412.478	1	13
412.819	1	-4
413.161	1	-5
413.502	1	3
413.844	1	1
414.185	1	0
414.526	1	12
414.868	1	5
415.209	1	-2
415.550	1	-7
415.892	1	-2
416.233	1	0
416.575	1	3
416.916	1	-5
417.257	1	5
417.599	1	10
417.940	1	7
418.281	1	7
418.623	1	-4
418.964	1	-4
419.305	1	7
419.647	1	7
419.988	1	-1
420.329	1	3
420.671	1	-1
421.012	1	7
421.353	1	8
421.695	1	0
422.036	1	7
422.377	1	3
422.718	1	-6
423.060	1	-2
423.401	1	0
423.742	1	3
424.084	1	2
424.425	1	5
424.766	1	3
425.107	1	3
425.449	1	0
425.790	1	-3
426.131	1	-2
426.472	1	-7
426.814	1	9
427.155	1	1
427.496	1	10
427.837	1	-5
428.179	1	-9
428.520	1	0
428.861	1	1
429.202	1	7
429.544	1	6
429.885	1	0
430.226	1	6
430.567	1	7
430.909	1	-10
431.250	1	-16
431.591	1	2
431.932	1	11
432.273	1	2
432.615	1	-6
432.956	1	7
433.297	1	11
433.638	1	-2
433.979	1	7
434.320	1	-5
434.662	1	-2
435.003	1	4
435.344	1	4
435.685	1	6
436.026	1	6
436.368	1	-4
436.709	1	-9
437.050	1	7
437.391	1	-2
437.732	1	4
438.073	1	4
438.414	1	-7
438.756	1	9
439.097	1	6
439.438	1	13
439.779	1	0
440.120	1	3
440.461	1	-9
440.802	1	3
441.143	1	11
441.485	1	-7
441.826	1	-5
442.167	1	3
442.508	1	-5
442.849	1	8
443.190	1	-7
443.531	1	10
443.872	1	7
444.213	1	-4
444.554	1	-6
444.895	1	2
445.237	1	0
445.578	1	5
445.919	1	-4
446.260	1	5
446.601	1	-13
446.942	1	8
447.283	1	7
447.624	1	13
447.965	1	-4
448.306	1	4
448.647	1	7
448.988	1	-13
449.329	1	-8
449.670	1	11
450.011	1	0
450.352	1	6
450.693	1	9
451.034	1	7
451.375	1	8
451.716	1	6
452.057	1	8
452.398	1	5
452.739	1	1
453.080	1	8
453.421	1	1
453.762	1	4
454.103	1	-5
454.444	1	6
454.785	1	-8
455.126	1	-3
455.467	1	9
455.808	1	6
456.149	1	-3
456.490	1	4
456.831	1	20
457.172	1	-1
457.513	1	2
457.854	1	5
458.195	1	-5
458.536	1	3
458.877	1	-7
459.218	1	8
459.559	1	-6
459.899	1	13
460.240	1	8
460.581	1	0
460.922	1	7
461.263	1	0
461.604	1	-7
461.945	1	9
462.286	1	7
462.627	1	6
462.968	1	-5
463.309	1	-7
463.649	1	8
463.990	1	-5
464.331	1	2
464.672	1	5
465.013	1	-6
465.354	1	6
465.695	1	1
466.036	1	-1
466.376	1	-1
466.717	1	4
467.058	1	5
467.399	1	2
467.740	1	-3
468.081	1	15
468.422	1	5
468.762	1	-3
469.103	1	-5
469.444	1	-1
469.785	1	7
470.126	1	13
470.467	1	3
470.807	1	-4
471.148	1	1
471.489	1	-3
471.830	1	13
472.171	1	1
472.511	1	8
472.852	1	3
473.193	1	4
473.534	1	-2
473.875	1	6
474.215	1	1
474.556	1	-10
474.897	1	0
475.238	1	-6
475.578	1	4
475.919	1	10
476.260	1	-2
476.601	1	-3
476.942	1	-4
477.282	1	-7
477.623	1	11
477.964	1	9
478.305	1	4
478.645	1	-6
478.986	1	0
479.327	1	2
479.667	1	5
480.008	1	15
480.349	1	4
480.690	1	-1
481.030	1	-2
481.371	1	0
481.712	1	6
482.053	1	8
482.393	1	-12
482.734	1	5
483.075	1	6
483.415	1	1
483.756	1	18
484.097	1	-8
484.437	1	-10
484.778	1	2
485.119	1	5
485.459	1	0
485.800	1	-6
486.141	1	-6
486.481	1	-2
486.822	1	2
487.163	1	-5
487.503	1	-9
487.844	1	5
488.185	1	-9
488.525	1	-6
488.866	1	7
489.207	1	3
489.547	1	6
489.888	1	-2
490.228	1	-5
490.569	1	10
490.910	1	-4
491.250	1	-2
491.591	1	-9
491.932	1	4
492.272	1	7
492.613	1	3
492.953	1	3
493.294	1	10
493.635	1	-12
493.975	1	-1
494.316	1	12
494.656	1	1
494.997	1	-5
495.337	1	2
495.678	1	7
496.019	1	-1
496.359	1	5
496.700	1	-3
497.040	1	0
497.381	1	-12
497.721	1	9
498.062	1	6
498.403	1	5
498.743	1	4
499.084	1	-13
499.424	1	8
499.765	1	6
500.105	1	6
500.446	1	10
500.786	1	-1
501.127	1	9
501.467	1	-2
501.808	1	-9
502.148	1	-2
502.489	1	5
502.829	1	4
503.170	1	7
503.510	1	2
503.851	1	-11
504.191	1	8
504.532	1	-8
504.872	1	-15
505.213	1	-6
505.553	1	4
505.894	1	7
506.234	1	17
506.575	1	5
506.915	1	3
507.256	1	-5
507.596	1	9
507.936	1	9
508.277	1	-1
508.617	1	23
508.958	1	9
509.298	1	14
509.639	1	3
509.979	1	1
510.319	1	-2
510.660	1	2
511.000	1	7
511.341	1	-5
511.681	1	0
512.022	1	-1
512.362	1	9
512.702	1	-7
513.043	1	12
513.383	1	-11
513.724	1	2
514.064	1	6
514.404	1	5
514.745	1	2
515.085	1	1
515.425	1	8
515.766	1	-7
516.106	1	4
516.447	1	5
516.787	1	-2
517.127	1	-3
517.468	1	8
517.808	1	1
518.148	1	4
518.489	1	-2
518.829	1	5
519.169	1	11
519.510	1	3
519.850	1	-3
520.190	1	14
520.531	1	1
520.871	1	0
521.211	1	4
521.552	1	0
521.892	1	-2
522.232	1	-3
522.573	1	-1
522.913	1	18
523.253	1	8
523.593	1	-10
523.934	1	11
524.274	1	-10
524.614	1	5
524.955	1	-3
525.295	1	-6
525.635	1	11
525.975	1	8
526.316	1	-2
526.656	1	16
526.996	1	4
527.337	1	3
527.677	1	18
528.017	1	-3
528.357	1	8
528.698	1	3
529.038	1	7
529.378	1	14
529.718	1	2
530.058	1	8
530.399	1	7
530.739	1	-4
531.079	1	13
531.419	1	4
531.760	1	9
532.100	1	10
532.440	1	2
532.780	1	3
533.120	1	1
533.461	1	15
533.801	1	7
534.141	1	10
534.481	1	-4
534.821	1	8
535.162	1	8
535.502	1	8
535.842	1	7
536.182	1	-2
536.522	1	14
536.862	1	11
537.203	1	14
537.543	1	4
537.883	1	8
538.223	1	9
538.563	1	3
538.903	1	-2
539.243	1	4
539.584	1	3
539.924	1	2
540.264	1	5
540.604	1	7
540.944	1	8
541.284	1	6
541.624	1	1
541.964	1	8
542.305	1	-5
542.645	1	-4
542.985	1	-4
543.325	1	-3
543.665	1	12
544.005	1	-6
544.345	1	-1
544.685	1	2
545.025	1	-4
545.365	1	6
545.705	1	5
546.045	1	9
546.386	1	0
546.726	1	8
547.066	1	4
547.406	1	18
547.746	1	9
548.086	1	3
548.426	1	-5
548.766	1	8
549.106	1	13
549.446	1	7
549.786	1	11
550.126	1	2
550.466	1	-3
550.806	1	10
551.146	1	-2
551.486	1	3
551.826	1	6
552.166	1	-2
552.506	1	-2
552.846	1	11
553.186	1	-1
553.526	1	6
553.866	1	3
554.206	1	-3
554.546	1	-7
554.886	1	3
555.226	1	-9
555.566	1	16
555.906	1	1
556.246	1	-4
556.586	1	17
556.926	1	5
557.266	1	8
557.606	1	-5
557.946	1	5
558.286	1	-1
558.626	1	2
558.966	1	-8
559.306	1	-2
559.646	1	5
559.986	1	-5
560.325	1	-8
560.665	1	5
561.005	1	2
561.345	1	-2
561.685	1	-1
562.025	1	-2
562.365	1	8
562.705	1	15
563.045	1	6
563.385	1	6
563.725	1	5
564.064	1	10
564.404	1	3
564.744	1	14
565.084	1	-6
565.424	1	3
565.764	1	15
566.104	1	-2
566.444	1	8
566.783	1	-3
567.123	1	14
567.463	1	-1
567.803	1	-12
568.143	1	1
568.483	1	-3
568.823	1	12
569.162	1	6
569.502	1	4
569.842	1	-7
570.182	1	-3
570.522	1	9
570.862	1	3
571.201	1	7
571.541	1	-9
571.881	1	-1
572.221	1	9
572.561	1	0
572.900	1	2
573.240	1	-3
573.580	1	1
573.920	1	0
574.260	1	3
574.599	1	-2
574.939	1	-5
575.279	1	0
575.619	1	3
575.959	1	-7
576.298	1	-12
576.638	1	-6
576.978	1	1
577.318	1	7
577.657	1	-11
577.997	1	-11
578.337	1	-3
578.677	1	-2
579.016	1	13
579.356	1	-3
579.696	1	6
580.036	1	0
580.375	1	6
580.715	1	9
581.055	1	7
581.394	1	-4
581.734	1	11
582.074	1	-5
582.414	1	4
582.753	1	-1
583.093	1	-2
583.433	1	-8
583.772	1	-5
584.112	1	-1
584.452	1	3
584.791	1	-4
585.131	1	-6
585.471	1	-2
585.811	1	-4
586.150	1	-1
586.490	1	1
586.830	1	-11
587.169	1	-2
587.509	1	2
587.849	1	7
588.188	1	3
588.528	1	3
588.867	1	1
589.207	1	-11
589.547	1	8
589.886	1	-1
590.226	1	2
590.566	1	-8
590.905	1	13
591.245	1	1
591.585	1	-7
591.924	1	-9
592.264	1	-1
592.603	1	-1
592.943	1	-6
593.283	1	1
593.622	1	1
593.962	1	8
594.301	1	13
594.641	1	-2
594.981	1	2
595.320	1	4
595.660	1	-3
595.999	1	5
596.339	1	0
596.678	1	0
597.018	1	3
597.358	1	2
597.697	1	0
598.037	1	5
598.376	1	11
598.716	1	-9
599.055	1	6
599.395	1	7
599.734	1	3
600.074	1	2
600.413	1	5
600.753	1	3
601.092	1	-9
601.432	1	-3
601.771	1	9
602.111	1	-10
602.451	1	-2
602.790	1	2
603.130	1	-2
603.469	1	-4
603.809	1	0
604.148	1	-1
604.487	1	2
604.827	1	-11
605.166	1	5
605.506	1	2
605.845	1	7
606.185	1	3
606.524	1	-5
606.864	1	4
607.203	1	10
607.543	1	-4
607.882	1	-10
608.222	1	8
608.561	1	0
608.901	1	-1
609.240	1	6
609.579	1	6
609.919	1	-5
610.258	1	8
610.598	1	6
610.937	1	-1
611.277	1	9
611.616	1	-5
611.955	1	4
612.295	1	4
612.634	1	2
612.974	1	3
613.313	1	1
613.652	1	-6
613.992	1	6
614.331	1	5
614.671	1	7
615.010	1	1
615.349	1	2
615.689	1	5
616.028	1	-3
616.368	1	3
616.707	1	-2
617.046	1	-1
617.386	1	-2
617.725	1	4
618.064	1	9
618.404	1	15
618.743	1	2
619.082	1	1
619.422	1	7
619.761	1	4
620.100	1	3
620.440	1	4
620.779	1	2
621.118	1	0
621.458	1	0
621.797	1	0
622.136	1	0
622.476	1	2
622.815	1	4
623.154	1	3
623.494	1	-3
623.833	1	8
624.172	1	12
624.511	1	1
624.851	1	-11
625.190	1	9
625.529	1	11
625.869	1	-9
626.208	1	0
626.547	1	4
626.886	1	-6
627.226	1	1
627.565	1	11
627.904	1	10
628.243	1	-6
628.583	1	1
628.922	1	-9
629.261	1	5
629.600	1	9
629.940	1	7
630.279	1	-13
630.618	1	-6
630.957	1	-8
631.297	1	0
631.636	1	8
631.975	1	5
632.314	1	19
632.653	1	-9
632.993	1	7
633.332	1	9
633.671	1	1
634.010	1	3
634.349	1	-6
634.689	1	8
635.028	1	-2
635.367	1	6
635.706	1	0
636.045	1	6
636.384	1	4
636.724	1	-1
637.063	1	15
637.402	1	10
637.741	1	15
638.080	1	4
638.419	1	2
638.759	1	6
639.098	1	7
639.437	1	-9
639.776	1	-2
640.115	1	-8
640.454	1	24
640.793	1	-2
641.132	1	8
641.472	1	-10
641.811	1	2
642.150	1	-2
642.489	1	-3
642.828	1	-1
643.167	1	9
643.506	1	-8
643.845	1	-3
644.184	1	4
644.524	1	-8
644.863	1	2
645.202	1	-1
645.541	1	-14
645.880	1	9
646.219	1	-2
646.558	1	-1
646.897	1	3
647.236	1	1
647.575	1	2
647.914	1	-5
648.253	1	6
648.592	1	1
648.931	1	3
649.270	1	15
649.610	1	8
649.949	1	1
650.288	1	-6
650.627	1	3
650.966	1	0
651.305	1	-9
651.644	1	-6
651.983	1	0
652.322	1	9
652.661	1	-3
653.000	1	4
653.339	1	2
653.678	1	8
654.017	1	4
654.356	1	8
654.695	1	3
655.034	1	-3
655.373	1	6
655.712	1	2
656.051	1	3
656.390	1	-3
656.729	1	1
657.068	1	4
657.406	1	-1
657.745	1	-3
658.084	1	4
658.423	1	-1
658.762	1	-7
659.101	1	-3
659.440	1	8
659.779	1	-5
660.118	1	1
660.457	1	0
660.796	1	-1
661.135	1	1
661.474	1	-1
661.813	1	4
662.152	1	2
662.491	1	0
662.829	1	-6
663.168	1	-2
663.507	1	-2
663.846	1	11
664.185	1	-1
664.524	1	-4
664.863	1	4
665.202	1	-7
665.541	1	-8
665.879	1	1
666.218	1	-3
666.557	1	6
666.896	1	-4
667.235	1	4
667.574	1	7
667.913	1	3
668.251	1	6
668.590	1	-6
668.929	1	4
669.268	1	5
669.607	1	-2
669.946	1	16
670.285	1	1
670.623	1	6
670.962	1	-1
671.301	1	1
671.640	1	-12
671.979	1	9
672.317	1	-1
672.656	1	1
672.995	1	-3
673.334	1	6
673.673	1	9
674.011	1	10
674.350	1	1
674.689	1	4
675.028	1	1
675.367	1	14
675.705	1	4
676.044	1	1
676.383	1	-6
676.722	1	2
677.060	1	9
677.399	1	5
677.738	1	-4
678.077	1	4
678.416	1	2
678.754	1	-1
679.093	1	-7
679.432	1	-1
679.771	1	-4
680.109	1	8
680.448	1	9
680.787	1	-1
681.125	1	-1
681.464	1	-2
681.803	1	-14
682.142	1	14
682.480	1	6
682.819	1	-7
683.158	1	-1
683.496	1	-11
683.835	1	8
684.174	1	6
684.512	1	6
684.851	1	1
685.190	1	-3
685.529	1	-2
685.867	1	1
686.206	1	7
686.545	1	8
686.883	1	-7
687.222	1	-9
687.561	1	2
687.899	1	-1
688.238	1	1
688.577	1	-10
688.746	1	-2