File: Analysis/GaN_68K_200ms/GaN_sample E_spot4_UVVIS_68 K_200um_200 ms 2x2mm1_85.txt
340.368	1	-7
340.710	1	-8
341.052	1	7
341.394	1	-2
341.737	1	11
342.079	1	-12
342.421	1	5
342.763	1	-6
343.105	1	12
343.447	1	3
343.789	1	-5
344.131	1	1
344.473	1	1
344.815	1	7
345.157	1	2
345.499	1	4
345.841	1	3
346.183	1	2
346.526	1	10
346.868	1	-2
347.210	1	0
347.552	1	-10
347.894	1	6
348.236	1	4
348.578	1	-2
348.920	1	6
349.262	1	4
349.604	1	14
349.946	1	11
350.288	1	0
350.630	1	-9
350.972	1	-6
351.314	1	-1
351.656	1	3
351.998	1	1
352.340	1	-2
352.682	1	-3
353.024	1	-4
353.366	1	1
353.708	1	9
354.050	1	10
354.392	1	7
354.734	1	-1
355.076	1	-1
355.418	1	4
355.760	1	11
356.102	1	1
356.444	1	9
356.785	1	12
357.127	1	10
357.469	1	7
357.811	1	14
358.153	1	10
358.495	1	0
358.837	1	7
359.179	1	-5
359.521	1	-3
359.863	1	-4
360.205	1	-3
360.547	1	12
360.889	1	1
361.231	1	1
361.572	1	1
361.914	1	6
362.256	1	12
362.598	1	5
362.940	1	3
363.282	1	-5
363.624	1	-3
363.966	1	2
364.308	1	3
364.649	1	-2
364.991	1	3
365.333	1	5
365.675	1	-1
366.017	1	9
366.359	1	5
366.701	1	-4
367.042	1	5
367.384	1	5
367.726	1	7
368.068	1	-6
368.410	1	7
368.752	1	-10
369.093	1	-3
369.435	1	6
369.777	1	-5
370.119	1	6
370.461	1	4
370.803	1	-6
371.144	1	7
371.486	1	13
371.828	1	2
372.170	1	8
372.512	1	-1
372.853	1	8
373.195	1	-5
373.537	1	-5
373.879	1	12
374.220	1	6
374.562	1	0
374.904	1	-1
375.246	1	-2
375.588	1	4
375.929	1	2
376.271	1	-9
376.613	1	6
376.955	1	-2
377.296	1	3
377.638	1	6
377.980	1	9
378.321	1	11
378.663	1	-7
379.005	1	18
379.347	1	11
379.688	1	-7
380.030	1	3
380.372	1	-1
380.714	1	3
381.055	1	2
381.397	1	-5
381.739	1	8
382.080	1	1
382.422	1	12
382.764	1	-2
383.105	1	-3
383.447	1	7
383.789	1	13
384.130	1	-2
384.472	1	-8
384.814	1	3
385.156	1	8
385.497	1	5
385.839	1	-1
386.180	1	-2
386.522	1	10
386.864	1	-11
387.205	1	0
387.547	1	-7
387.889	1	2
388.230	1	1
388.572	1	5
388.914	1	11
389.255	1	6
389.597	1	-10
389.939	1	6
390.280	1	7
390.622	1	-6
390.963	1	6
391.305	1	4
391.647	1	4
391.988	1	-5
392.330	1	10
392.671	1	14
393.013	1	8
393.355	1	6
393.696	1	3
394.038	1	-2
394.379	1	-4
394.721	1	7
395.062	1	-9
395.404	1	-3
395.746	1	-2
396.087	1	3
396.429	1	3
396.770	1	7
397.112	1	-1
397.453	1	-13
397.795	1	0
398.136	1	11
398.478	1	-3
398.819	1	4
399.161	1	7
399.503	1	7
399.844	1	-5
400.186	1	12
400.527	1	3
400.869	1	13
401.210	1	-8
401.552	1	7
401.893	1	6
402.235	1	6
402.576	1	10
402.918	1	-6
403.259	1	-7
403.601	1	-5
403.942	1	8
404.284	1	-1
404.625	1	1
404.967	1	5
405.308	1	3
405.649	1	-3
405.991	1	13
406.332	1	2
406.674	1	6
407.015	1	-5
407.357	1	5
407.698	1	-8
408.040	1	-3
408.381	1	1
408.722	1	2
409.064	1	3
409.405	1	-5
409.747	1	-3
410.088	1	10
410.430	1	11
410.771	1	2
411.112	1	13
411.454	1	8
411.795	1	4
412.137	1	10
412.478	1	2
412.819	1	0
413.161	1	1
413.502	1	8
413.844	1	-1
414.185	1	2
414.526	1	-4
414.868	1	3
415.209	1	0
415.550	1	-7
415.892	1	-12
416.233	1	2
416.575	1	-3
416.916	1	5
417.257	1	9
417.599	1	5
417.940	1	2
418.281	1	-2
418.623	1	-7
418.964	1	-6
419.305	1	8
419.647	1	-3
419.988	1	-3
420.329	1	4
420.671	1	6
421.012	1	6
421.353	1	10
421.695	1	6
422.036	1	-4
422.377	1	8
422.718	1	-3
423.060	1	-2
423.401	1	10
423.742	1	6
424.084	1	-4
424.425	1	-3
424.766	1	5
425.107	1	1
425.449	1	3
425.790	1	1
426.131	1	-1
426.472	1	-4
426.814	1	11
427.155	1	-4
427.496	1	4
427.837	1	-1
428.179	1	-3
428.520	1	-4
428.861	1	3
429.202	1	9
429.544	1	1
429.885	1	2
430.226	1	4
430.567	1	4
430.909	1	-3
431.250	1	-7
431.591	1	2
431.932	1	7
432.273	1	-8
432.615	1	-3
432.956	1	-11
433.297	1	15
433.638	1	2
433.979	1	6
434.320	1	2
434.662	1	2
435.003	1	2
435.344	1	4
435.685	1	21
436.026	1	6
436.368	1	-4
436.709	1	-5
437.050	1	8
437.391	1	5
437.732	1	-3
438.073	1	6
438.414	1	2
438.756	1	4
439.097	1	12
439.438	1	9
439.779	1	-4
440.120	1	1
440.461	1	-4
440.802	1	-1
441.143	1	4
441.485	1	-4
441.826	1	-2
442.167	1	-3
442.508	1	6
442.849	1	4
443.190	1	-14
443.531	1	4
443.872	1	5
444.213	1	-5
444.554	1	0
444.895	1	-4
445.237	1	-1
445.578	1	13
445.919	1	-10
446.260	1	1
446.601	1	0
446.942	1	9
447.283	1	9
447.624	1	11
447.965	1	-10
448.306	1	6
448.647	1	10
448.988	1	-13
449.329	1	-4
449.670	1	13
450.011	1	0
450.352	1	3
450.693	1	12
451.034	1	7
451.375	1	17
451.716	1	3
452.057	1	11
452.398	1	12
452.739	1	7
453.080	1	11
453.421	1	-4
453.762	1	8
454.103	1	3
454.444	1	17
454.785	1	-4
455.126	1	1
455.467	1	11
455.808	1	4
456.149	1	-4
456.490	1	1
456.831	1	14
457.172	1	-1
457.513	1	11
457.854	1	-1
458.195	1	-9
458.536	1	5
458.877	1	-2
459.218	1	5
459.559	1	7
459.899	1	5
460.240	1	10
460.581	1	12
460.922	1	1
461.263	1	15
461.604	1	11
461.945	1	15
462.286	1	4
462.627	1	4
462.968	1	6
463.309	1	-6
463.649	1	3
463.990	1	1
464.331	1	6
464.672	1	4
465.013	1	-9
465.354	1	13
465.695	1	12
466.036	1	9
466.376	1	-3
466.717	1	-8
467.058	1	7
467.399	1	4
467.740	1	-1
468.081	1	10
468.422	1	1
468.762	1	-5
469.103	1	-10
469.444	1	-3
469.785	1	13
470.126	1	4
470.467	1	-9
470.807	1	-3
471.148	1	-3
471.489	1	4
471.830	1	22
472.171	1	2
472.511	1	9
472.852	1	-2
473.193	1	-7
473.534	1	3
473.875	1	4
474.215	1	-9
474.556	1	-3
474.897	1	-4
475.238	1	-7
475.578	1	-3
475.919	1	-1
476.260	1	5
476.601	1	1
476.942	1	7
477.282	1	-9
477.623	1	2
477.964	1	18
478.305	1	4
478.645	1	-7
478.986	1	4
479.327	1	-6
479.667	1	5
480.008	1	14
480.349	1	6
480.690	1	-4
481.030	1	-5
481.371	1	4
481.712	1	-2
482.053	1	0
482.393	1	-11
482.734	1	-4
483.075	1	13
483.415	1	7
483.756	1	0
484.097	1	-1
484.437	1	-5
484.778	1	0
485.119	1	0
485.459	1	3
485.800	1	-3
486.141	1	-7
486.481	1	2
486.822	1	-1
487.163	1	-9
487.503	1	-14
487.844	1	2
488.185	1	-5
488.525	1	1
488.866	1	5
489.207	1	10
489.547	1	-6
489.888	1	3
490.228	1	-6
490.569	1	10
490.910	1	-2
491.250	1	2
491.591	1	-10
491.932	1	5
492.272	1	8
492.613	1	4
492.953	1	6
493.294	1	11
493.635	1	3
493.975	1	-1
494.316	1	6
494.656	1	-4
494.997	1	-1
495.337	1	4
495.678	1	2
496.019	1	-1
496.359	1	3
496.700	1	2
497.040	1	-1
497.381	1	-14
497.721	1	-5
498.062	1	-1
498.403	1	6
498.743	1	11
499.084	1	-7
499.424	1	8
499.765	1	-2
500.105	1	0
500.446	1	6
500.786	1	10
501.127	1	11
501.467	1	-1
501.808	1	-7
502.148	1	10
502.489	1	3
502.829	1	1
503.170	1	5
503.510	1	6
503.851	1	-12
504.191	1	6
504.532	1	1
504.872	1	-5
505.213	1	9
505.553	1	-2
505.894	1	6
506.234	1	13
506.575	1	1
506.915	1	4
507.256	1	-9
507.596	1	6
507.936	1	9
508.277	1	-8
508.617	1	7
508.958	1	10
509.298	1	13
509.639	1	10
509.979	1	-1
510.319	1	-4
510.660	1	4
511.000	1	16
511.341	1	-1
511.681	1	-2
512.022	1	-14
512.362	1	-11
512.702	1	-5
513.043	1	-1
513.383	1	-1
513.724	1	14
514.064	1	4
514.404	1	9
514.745	1	-3
515.085	1	-1
515.425	1	-2
515.766	1	2
516.106	1	3
516.447	1	2
516.787	1	2
517.127	1	3
517.468	1	2
517.808	1	0
518.148	1	2
518.489	1	0
518.829	1	-7
519.169	1	11
519.510	1	3
519.850	1	-11
520.190	1	2
520.531	1	6
520.871	1	-4
521.211	1	8
521.552	1	0
521.892	1	-7
522.232	1	4
522.573	1	-1
522.913	1	12
523.253	1	7
523.593	1	-9
523.934	1	-1
524.274	1	-4
524.614	1	-7
524.955	1	0
525.295	1	-2
525.635	1	14
525.975	1	4
526.316	1	-7
526.656	1	17
526.996	1	10
527.337	1	3
527.677	1	15
528.017	1	0
528.357	1	8
528.698	1	-5
529.038	1	4
529.378	1	6
529.718	1	-6
530.058	1	-5
530.399	1	3
530.739	1	-1
531.079	1	14
531.419	1	5
531.760	1	10
532.100	1	13
532.440	1	3
532.780	1	3
533.120	1	-4
533.461	1	9
533.801	1	4
534.141	1	2
534.481	1	-6
534.821	1	9
535.162	1	0
535.502	1	9
535.842	1	-2
536.182	1	-4
536.522	1	1
536.862	1	1
537.203	1	15
537.543	1	-2
537.883	1	8
538.223	1	4
538.563	1	-1
538.903	1	4
539.243	1	-2
539.584	1	0
539.924	1	4
540.264	1	3
540.604	1	11
540.944	1	-4
541.284	1	-5
541.624	1	11
541.964	1	1
542.305	1	-2
542.645	1	4
542.985	1	-4
543.325	1	-7
543.665	1	3
544.005	1	-2
544.345	1	-5
544.685	1	-1
545.025	1	4
545.365	1	7
545.705	1	3
546.045	1	6
546.386	1	6
546.726	1	0
547.066	1	-10
547.406	1	10
547.746	1	11
548.086	1	1
548.426	1	-6
548.766	1	8
549.106	1	4
549.446	1	-1
549.786	1	12
550.126	1	-7
550.466	1	-6
550.806	1	9
551.146	1	5
551.486	1	7
551.826	1	1
552.166	1	-1
552.506	1	-12
552.846	1	10
553.186	1	-11
553.526	1	-2
553.866	1	-2
554.206	1	-5
554.546	1	-17
554.886	1	1
555.226	1	2
555.566	1	14
555.906	1	-2
556.246	1	4
556.586	1	7
556.926	1	10
557.266	1	12
557.606	1	-5
557.946	1	5
558.286	1	7
558.626	1	5
558.966	1	1
559.306	1	-2
559.646	1	0
559.986	1	-9
560.325	1	-5
560.665	1	-1
561.005	1	-2
561.345	1	1
561.685	1	-9
562.025	1	-12
562.365	1	6
562.705	1	4
563.045	1	0
563.385	1	-1
563.725	1	2
564.064	1	5
564.404	1	-4
564.744	1	8
565.084	1	-7
565.424	1	4
565.764	1	6
566.104	1	0
566.444	1	5
566.783	1	-2
567.123	1	15
567.463	1	-4
567.803	1	-4
568.143	1	-10
568.483	1	-8
568.823	1	12
569.162	1	0
569.502	1	-3
569.842	1	3
570.182	1	-1
570.522	1	8
570.862	1	2
571.201	1	6
571.541	1	-5
571.881	1	8
572.221	1	11
572.561	1	-8
572.900	1	12
573.240	1	3
573.580	1	5
573.920	1	-6
574.260	1	0
574.599	1	-2
574.939	1	-5
575.279	1	5
575.619	1	7
575.959	1	-5
576.298	1	0
576.638	1	-3
576.978	1	2
577.318	1	3
577.657	1	-9
577.997	1	-6
578.337	1	0
578.677	1	1
579.016	1	10
579.356	1	0
579.696	1	7
580.036	1	3
580.375	1	6
580.715	1	9
581.055	1	3
581.394	1	1
581.734	1	4
582.074	1	-5
582.414	1	7
582.753	1	6
583.093	1	0
583.433	1	-11
583.772	1	-6
584.112	1	2
584.452	1	0
584.791	1	0
585.131	1	-3
585.471	1	-3
585.811	1	0
586.150	1	2
586.490	1	1
586.830	1	-8
587.169	1	-3
587.509	1	11
587.849	1	1
588.188	1	-1
588.528	1	10
588.867	1	6
589.207	1	-10
589.547	1	-12
589.886	1	-9
590.226	1	-1
590.566	1	-6
590.905	1	0
591.245	1	-4
591.585	1	-8
591.924	1	-4
592.264	1	9
592.603	1	-2
592.943	1	-9
593.283	1	8
593.622	1	-5
593.962	1	8
594.301	1	16
594.641	1	0
594.981	1	-4
595.320	1	5
595.660	1	-2
595.999	1	-2
596.339	1	0
596.678	1	-1
597.018	1	0
597.358	1	6
597.697	1	-10
598.037	1	-5
598.376	1	4
598.716	1	-7
599.055	1	10
599.395	1	10
599.734	1	1
600.074	1	-5
600.413	1	-2
600.753	1	10
601.092	1	-9
601.432	1	2
601.771	1	12
602.111	1	-8
602.451	1	-3
602.790	1	4
603.130	1	-3
603.469	1	-3
603.809	1	5
604.148	1	6
604.487	1	-5
604.827	1	-7
605.166	1	-2
605.506	1	5
605.845	1	4
606.185	1	5
606.524	1	-7
606.864	1	-4
607.203	1	4
607.543	1	-7
607.882	1	-8
608.222	1	9
608.561	1	2
608.901	1	11
609.240	1	1
609.579	1	13
609.919	1	-4
610.258	1	7
610.598	1	-6
610.937	1	-7
611.277	1	3
611.616	1	-4
611.955	1	5
612.295	1	2
612.634	1	-5
612.974	1	14
613.313	1	2
613.652	1	-3
613.992	1	11
614.331	1	3
614.671	1	9
615.010	1	3
615.349	1	-1
615.689	1	0
616.028	1	15
616.368	1	-2
616.707	1	7
617.046	1	10
617.386	1	0
617.725	1	7
618.064	1	6
618.404	1	14
618.743	1	7
619.082	1	8
619.422	1	0
619.761	1	3
620.100	1	3
620.440	1	1
620.779	1	-2
621.118	1	-5
621.458	1	7
621.797	1	7
622.136	1	6
622.476	1	4
622.815	1	0
623.154	1	7
623.494	1	4
623.833	1	3
624.172	1	6
624.511	1	-4
624.851	1	-12
625.190	1	4
625.529	1	3
625.869	1	7
626.208	1	-1
626.547	1	9
626.886	1	-2
627.226	1	3
627.565	1	6
627.904	1	8
628.243	1	4
628.583	1	0
628.922	1	0
629.261	1	5
629.600	1	11
629.940	1	0
630.279	1	-5
630.618	1	-1
630.957	1	-7
631.297	1	0
631.636	1	7
631.975	1	0
632.314	1	7
632.653	1	-5
632.993	1	6
633.332	1	-1
633.671	1	-1
634.010	1	-3
634.349	1	6
634.689	1	12
635.028	1	4
635.367	1	6
635.706	1	-7
636.045	1	5
636.384	1	4
636.724	1	-3
637.063	1	2
637.402	1	4
637.741	1	7
638.080	1	11
638.419	1	10
638.759	1	-1
639.098	1	3
639.437	1	-4
639.776	1	-4
640.115	1	-2
640.454	1	13
640.793	1	5
641.132	1	16
641.472	1	-7
641.811	1	3
642.150	1	2
642.489	1	2
642.828	1	-1
643.167	1	16
643.506	1	-10
643.845	1	4
644.184	1	7
644.524	1	-8
644.863	1	-6
645.202	1	4
645.541	1	-6
645.880	1	-6
646.219	1	2
646.558	1	0
646.897	1	-6
647.236	1	2
647.575	1	4
647.914	1	3
648.253	1	5
648.592	1	7
648.931	1	9
649.270	1	14
649.610	1	8
649.949	1	-1
650.288	1	5
650.627	1	3
650.966	1	-9
651.305	1	-4
651.644	1	-6
651.983	1	3
652.322	1	3
652.661	1	4
653.000	1	3
653.339	1	-1
653.678	1	-7
654.017	1	4
654.356	1	11
654.695	1	0
655.034	1	0
655.373	1	3
655.712	1	8
656.051	1	15
656.390	1	3
656.729	1	-1
657.068	1	4
657.406	1	0
657.745	1	10
658.084	1	8
658.423	1	1
658.762	1	2
659.101	1	5
659.440	1	13
659.779	1	-3
660.118	1	10
660.457	1	-5
660.796	1	-7
661.135	1	8
661.474	1	1
661.813	1	-5
662.152	1	-5
662.491	1	-2
662.829	1	0
663.168	1	-1
663.507	1	-10
663.846	1	13
664.185	1	1
664.524	1	-2
664.863	1	5
665.202	1	-2
665.541	1	1
665.879	1	-1
666.218	1	-13
666.557	1	5
666.896	1	-5
667.235	1	7
667.574	1	6
667.913	1	5
668.251	1	5
668.590	1	0
668.929	1	1
669.268	1	0
669.607	1	-9
669.946	1	9
670.285	1	5
670.623	1	7
670.962	1	0
671.301	1	2
671.640	1	-15
671.979	1	13
672.317	1	5
672.656	1	2
672.995	1	2
673.334	1	9
673.673	1	24
674.011	1	2
674.350	1	-4
674.689	1	-2
675.028	1	3
675.367	1	7
675.705	1	-8
676.044	1	-4
676.383	1	-1
676.722	1	3
677.060	1	0
677.399	1	7
677.738	1	2
678.077	1	-2
678.416	1	-4
678.754	1	1
679.093	1	5
679.432	1	-7
679.771	1	-8
680.109	1	8
680.448	1	-11
680.787	1	0
681.125	1	4
681.464	1	7
681.803	1	-10
682.142	1	20
682.480	1	1
682.819	1	5
683.158	1	3
683.496	1	1
683.835	1	-3
684.174	1	2
684.512	1	4
684.851	1	3
685.190	1	13
685.529	1	0
685.867	1	2
686.206	1	3
686.545	1	3
686.883	1	-1
687.222	1	-1
687.561	1	4
687.899	1	-7
688.238	1	8
688.577	1	-4
688.746	1	3