File: Analysis/GaN_68K_200ms/GaN_sample E_spot4_UVVIS_68 K_200um_200 ms 2x2mm1_354.txt
340.368	1	12
340.710	1	-7
341.052	1	2
341.394	1	0
341.737	1	12
342.079	1	-2
342.421	1	5
342.763	1	1
343.105	1	14
343.447	1	5
343.789	1	2
344.131	1	0
344.473	1	4
344.815	1	9
345.157	1	4
345.499	1	8
345.841	1	3
346.183	1	0
346.526	1	11
346.868	1	4
347.210	1	-5
347.552	1	-1
347.894	1	7
348.236	1	4
348.578	1	7
348.920	1	9
349.262	1	-1
349.604	1	8
349.946	1	7
350.288	1	3
350.630	1	0
350.972	1	4
351.314	1	1
351.656	1	3
351.998	1	-3
352.340	1	7
352.682	1	2
353.024	1	-10
353.366	1	-2
353.708	1	8
354.050	1	9
354.392	1	7
354.734	1	-3
355.076	1	6
355.418	1	-1
355.760	1	2
356.102	1	5
356.444	1	2
356.785	1	8
357.127	1	-4
357.469	1	3
357.811	1	14
358.153	1	14
358.495	1	9
358.837	1	-2
359.179	1	7
359.521	1	2
359.863	1	-10
360.205	1	3
360.547	1	3
360.889	1	9
361.231	1	10
361.572	1	-1
361.914	1	-3
362.256	1	1
362.598	1	0
362.940	1	-2
363.282	1	3
363.624	1	-4
363.966	1	12
364.308	1	-2
364.649	1	-2
364.991	1	6
365.333	1	13
365.675	1	2
366.017	1	10
366.359	1	2
366.701	1	-2
367.042	1	18
367.384	1	11
367.726	1	20
368.068	1	5
368.410	1	1
368.752	1	-9
369.093	1	2
369.435	1	6
369.777	1	-3
370.119	1	12
370.461	1	4
370.803	1	-5
371.144	1	13
371.486	1	8
371.828	1	15
372.170	1	3
372.512	1	-6
372.853	1	3
373.195	1	-13
373.537	1	4
373.879	1	9
374.220	1	-4
374.562	1	-2
374.904	1	4
375.246	1	3
375.588	1	-2
375.929	1	-1
376.271	1	-7
376.613	1	4
376.955	1	5
377.296	1	1
377.638	1	3
377.980	1	2
378.321	1	2
378.663	1	-4
379.005	1	0
379.347	1	5
379.688	1	-3
380.030	1	-3
380.372	1	8
380.714	1	3
381.055	1	7
381.397	1	0
381.739	1	7
382.080	1	-5
382.422	1	14
382.764	1	2
383.105	1	2
383.447	1	15
383.789	1	11
384.130	1	2
384.472	1	-8
384.814	1	12
385.156	1	15
385.497	1	20
385.839	1	8
386.180	1	1
386.522	1	12
386.864	1	8
387.205	1	12
387.547	1	4
387.889	1	9
388.230	1	1
388.572	1	0
388.914	1	17
389.255	1	17
389.597	1	4
389.939	1	15
390.280	1	11
390.622	1	-5
390.963	1	5
391.305	1	11
391.647	1	7
391.988	1	1
392.330	1	10
392.671	1	5
393.013	1	5
393.355	1	10
393.696	1	12
394.038	1	4
394.379	1	0
394.721	1	17
395.062	1	-6
395.404	1	11
395.746	1	-4
396.087	1	8
396.429	1	8
396.770	1	8
397.112	1	5
397.453	1	5
397.795	1	4
398.136	1	12
398.478	1	-2
398.819	1	9
399.161	1	11
399.503	1	7
399.844	1	8
400.186	1	16
400.527	1	8
400.869	1	11
401.210	1	-10
401.552	1	15
401.893	1	7
402.235	1	17
402.576	1	16
402.918	1	-2
403.259	1	-7
403.601	1	-4
403.942	1	6
404.284	1	0
404.625	1	-1
404.967	1	4
405.308	1	-2
405.649	1	9
405.991	1	3
406.332	1	-3
406.674	1	4
407.015	1	0
407.357	1	12
407.698	1	-12
408.040	1	-5
408.381	1	2
408.722	1	4
409.064	1	-1
409.405	1	-1
409.747	1	0
410.088	1	2
410.430	1	10
410.771	1	10
411.112	1	11
411.454	1	14
411.795	1	2
412.137	1	16
412.478	1	18
412.819	1	-2
413.161	1	-2
413.502	1	5
413.844	1	6
414.185	1	12
414.526	1	6
414.868	1	8
415.209	1	3
415.550	1	-7
415.892	1	4
416.233	1	4
416.575	1	7
416.916	1	0
417.257	1	9
417.599	1	-3
417.940	1	2
418.281	1	-3
418.623	1	-8
418.964	1	7
419.305	1	3
419.647	1	4
419.988	1	2
420.329	1	9
420.671	1	5
421.012	1	12
421.353	1	13
421.695	1	-4
422.036	1	3
422.377	1	5
422.718	1	5
423.060	1	-3
423.401	1	2
423.742	1	7
424.084	1	13
424.425	1	7
424.766	1	0
425.107	1	5
425.449	1	2
425.790	1	1
426.131	1	4
426.472	1	5
426.814	1	2
427.155	1	-5
427.496	1	11
427.837	1	-3
428.179	1	2
428.520	1	-5
428.861	1	8
429.202	1	9
429.544	1	1
429.885	1	-4
430.226	1	-4
430.567	1	13
430.909	1	-1
431.250	1	-15
431.591	1	-6
431.932	1	15
432.273	1	6
432.615	1	10
432.956	1	-1
433.297	1	6
433.638	1	6
433.979	1	0
434.320	1	1
434.662	1	-1
435.003	1	3
435.344	1	4
435.685	1	10
436.026	1	2
436.368	1	-7
436.709	1	-8
437.050	1	2
437.391	1	7
437.732	1	10
438.073	1	4
438.414	1	11
438.756	1	8
439.097	1	8
439.438	1	5
439.779	1	0
440.120	1	1
440.461	1	2
440.802	1	16
441.143	1	10
441.485	1	-3
441.826	1	-10
442.167	1	2
442.508	1	13
442.849	1	9
443.190	1	-7
443.531	1	1
443.872	1	1
444.213	1	-9
444.554	1	-7
444.895	1	-3
445.237	1	2
445.578	1	13
445.919	1	-4
446.260	1	0
446.601	1	-2
446.942	1	12
447.283	1	6
447.624	1	12
447.965	1	1
448.306	1	-4
448.647	1	12
448.988	1	-5
449.329	1	2
449.670	1	4
450.011	1	3
450.352	1	4
450.693	1	1
451.034	1	7
451.375	1	14
451.716	1	-3
452.057	1	13
452.398	1	6
452.739	1	7
453.080	1	11
453.421	1	13
453.762	1	2
454.103	1	10
454.444	1	12
454.785	1	-1
455.126	1	1
455.467	1	7
455.808	1	7
456.149	1	-10
456.490	1	5
456.831	1	6
457.172	1	7
457.513	1	12
457.854	1	10
458.195	1	0
458.536	1	15
458.877	1	4
459.218	1	0
459.559	1	2
459.899	1	14
460.240	1	7
460.581	1	8
460.922	1	0
461.263	1	9
461.604	1	-6
461.945	1	16
462.286	1	8
462.627	1	-1
462.968	1	-1
463.309	1	-4
463.649	1	5
463.990	1	4
464.331	1	-1
464.672	1	-2
465.013	1	-3
465.354	1	6
465.695	1	8
466.036	1	1
466.376	1	-10
466.717	1	-3
467.058	1	7
467.399	1	-4
467.740	1	-5
468.081	1	1
468.422	1	12
468.762	1	-10
469.103	1	-1
469.444	1	0
469.785	1	7
470.126	1	13
470.467	1	-6
470.807	1	0
471.148	1	0
471.489	1	4
471.830	1	11
472.171	1	2
472.511	1	14
472.852	1	-7
473.193	1	1
473.534	1	-1
473.875	1	4
474.215	1	3
474.556	1	-7
474.897	1	3
475.238	1	-1
475.578	1	-2
475.919	1	2
476.260	1	1
476.601	1	1
476.942	1	2
477.282	1	-11
477.623	1	8
477.964	1	5
478.305	1	7
478.645	1	-2
478.986	1	-5
479.327	1	6
479.667	1	-2
480.008	1	16
480.349	1	-3
480.690	1	9
481.030	1	-8
481.371	1	-3
481.712	1	6
482.053	1	4
482.393	1	-2
482.734	1	5
483.075	1	13
483.415	1	13
483.756	1	5
484.097	1	-6
484.437	1	-11
484.778	1	4
485.119	1	6
485.459	1	9
485.800	1	0
486.141	1	-11
486.481	1	5
486.822	1	10
487.163	1	0
487.503	1	-16
487.844	1	4
488.185	1	-6
488.525	1	0
488.866	1	-1
489.207	1	8
489.547	1	-3
489.888	1	1
490.228	1	-8
490.569	1	6
490.910	1	0
491.250	1	-2
491.591	1	-2
491.932	1	2
492.272	1	7
492.613	1	2
492.953	1	5
493.294	1	6
493.635	1	-3
493.975	1	-5
494.316	1	9
494.656	1	2
494.997	1	-1
495.337	1	19
495.678	1	18
496.019	1	1
496.359	1	-1
496.700	1	6
497.040	1	6
497.381	1	-12
497.721	1	-8
498.062	1	0
498.403	1	0
498.743	1	7
499.084	1	-8
499.424	1	7
499.765	1	0
500.105	1	15
500.446	1	5
500.786	1	2
501.127	1	11
501.467	1	10
501.808	1	-7
502.148	1	6
502.489	1	8
502.829	1	4
503.170	1	3
503.510	1	6
503.851	1	-11
504.191	1	9
504.532	1	0
504.872	1	-7
505.213	1	8
505.553	1	6
505.894	1	8
506.234	1	0
506.575	1	-9
506.915	1	3
507.256	1	-9
507.596	1	10
507.936	1	6
508.277	1	3
508.617	1	1
508.958	1	12
509.298	1	22
509.639	1	8
509.979	1	0
510.319	1	-7
510.660	1	12
511.000	1	2
511.341	1	-4
511.681	1	7
512.022	1	-1
512.362	1	1
512.702	1	6
513.043	1	-6
513.383	1	3
513.724	1	6
514.064	1	1
514.404	1	0
514.745	1	-3
515.085	1	8
515.425	1	-3
515.766	1	4
516.106	1	0
516.447	1	-1
516.787	1	6
517.127	1	4
517.468	1	3
517.808	1	9
518.148	1	9
518.489	1	4
518.829	1	1
519.169	1	4
519.510	1	-3
519.850	1	5
520.190	1	7
520.531	1	4
520.871	1	-8
521.211	1	5
521.552	1	1
521.892	1	-9
522.232	1	-7
522.573	1	2
522.913	1	10
523.253	1	5
523.593	1	-6
523.934	1	7
524.274	1	2
524.614	1	3
524.955	1	0
525.295	1	6
525.635	1	9
525.975	1	-7
526.316	1	0
526.656	1	19
526.996	1	18
527.337	1	2
527.677	1	15
528.017	1	-15
528.357	1	8
528.698	1	1
529.038	1	7
529.378	1	-1
529.718	1	-1
530.058	1	4
530.399	1	16
530.739	1	0
531.079	1	15
531.419	1	8
531.760	1	12
532.100	1	12
532.440	1	0
532.780	1	8
533.120	1	6
533.461	1	25
533.801	1	11
534.141	1	5
534.481	1	6
534.821	1	10
535.162	1	11
535.502	1	16
535.842	1	2
536.182	1	5
536.522	1	14
536.862	1	3
537.203	1	8
537.543	1	13
537.883	1	9
538.223	1	20
538.563	1	6
538.903	1	1
539.243	1	9
539.584	1	9
539.924	1	7
540.264	1	9
540.604	1	7
540.944	1	4
541.284	1	0
541.624	1	4
541.964	1	7
542.305	1	-5
542.645	1	3
542.985	1	3
543.325	1	3
543.665	1	5
544.005	1	8
544.345	1	-8
544.685	1	18
545.025	1	-6
545.365	1	8
545.705	1	0
546.045	1	9
546.386	1	14
546.726	1	-5
547.066	1	-4
547.406	1	9
547.746	1	11
548.086	1	10
548.426	1	2
548.766	1	6
549.106	1	9
549.446	1	-2
549.786	1	9
550.126	1	7
550.466	1	-11
550.806	1	9
551.146	1	0
551.486	1	8
551.826	1	8
552.166	1	5
552.506	1	5
552.846	1	-1
553.186	1	0
553.526	1	3
553.866	1	8
554.206	1	14
554.546	1	1
554.886	1	5
555.226	1	3
555.566	1	6
555.906	1	3
556.246	1	-1
556.586	1	7
556.926	1	5
557.266	1	15
557.606	1	-4
557.946	1	12
558.286	1	5
558.626	1	9
558.966	1	1
559.306	1	-4
559.646	1	-3
559.986	1	2
560.325	1	-3
560.665	1	2
561.005	1	5
561.345	1	7
561.685	1	3
562.025	1	-10
562.365	1	22
562.705	1	12
563.045	1	16
563.385	1	-9
563.725	1	1
564.064	1	11
564.404	1	7
564.744	1	3
565.084	1	-6
565.424	1	3
565.764	1	9
566.104	1	-10
566.444	1	6
566.783	1	2
567.123	1	11
567.463	1	0
567.803	1	-1
568.143	1	-10
568.483	1	-6
568.823	1	11
569.162	1	10
569.502	1	5
569.842	1	-3
570.182	1	-5
570.522	1	15
570.862	1	14
571.201	1	8
571.541	1	4
571.881	1	11
572.221	1	2
572.561	1	-6
572.900	1	15
573.240	1	2
573.580	1	0
573.920	1	1
574.260	1	4
574.599	1	-5
574.939	1	-2
575.279	1	-2
575.619	1	5
575.959	1	-7
576.298	1	-9
576.638	1	-1
576.978	1	3
577.318	1	5
577.657	1	-17
577.997	1	-7
578.337	1	1
578.677	1	4
579.016	1	16
579.356	1	1
579.696	1	5
580.036	1	-1
580.375	1	3
580.715	1	15
581.055	1	6
581.394	1	-8
581.734	1	-2
582.074	1	-3
582.414	1	-1
582.753	1	2
583.093	1	-2
583.433	1	-14
583.772	1	5
584.112	1	3
584.452	1	6
584.791	1	7
585.131	1	5
585.471	1	-1
585.811	1	3
586.150	1	5
586.490	1	0
586.830	1	-6
587.169	1	1
587.509	1	2
587.849	1	4
588.188	1	-1
588.528	1	6
588.867	1	11
589.207	1	-15
589.547	1	-3
589.886	1	-8
590.226	1	7
590.566	1	-6
590.905	1	2
591.245	1	-1
591.585	1	-2
591.924	1	0
592.264	1	-2
592.603	1	1
592.943	1	0
593.283	1	5
593.622	1	2
593.962	1	5
594.301	1	15
594.641	1	-4
594.981	1	14
595.320	1	9
595.660	1	-10
595.999	1	1
596.339	1	6
596.678	1	0
597.018	1	11
597.358	1	4
597.697	1	-3
598.037	1	-3
598.376	1	5
598.716	1	1
599.055	1	2
599.395	1	10
599.734	1	13
600.074	1	4
600.413	1	-4
600.753	1	4
601.092	1	-2
601.432	1	-3
601.771	1	9
602.111	1	2
602.451	1	-4
602.790	1	-5
603.130	1	3
603.469	1	4
603.809	1	8
604.148	1	6
604.487	1	2
604.827	1	-8
605.166	1	-2
605.506	1	9
605.845	1	1
606.185	1	1
606.524	1	-5
606.864	1	-7
607.203	1	21
607.543	1	-8
607.882	1	-6
608.222	1	7
608.561	1	2
608.901	1	-3
609.240	1	-5
609.579	1	6
609.919	1	-6
610.258	1	10
610.598	1	0
610.937	1	-2
611.277	1	3
611.616	1	-4
611.955	1	4
612.295	1	-3
612.634	1	7
612.974	1	6
613.313	1	11
613.652	1	0
613.992	1	5
614.331	1	5
614.671	1	2
615.010	1	7
615.349	1	-2
615.689	1	4
616.028	1	-1
616.368	1	11
616.707	1	-3
617.046	1	4
617.386	1	-5
617.725	1	11
618.064	1	9
618.404	1	4
618.743	1	3
619.082	1	2
619.422	1	8
619.761	1	7
620.100	1	5
620.440	1	2
620.779	1	3
621.118	1	1
621.458	1	7
621.797	1	10
622.136	1	12
622.476	1	1
622.815	1	-2
623.154	1	8
623.494	1	3
623.833	1	-3
624.172	1	18
624.511	1	2
624.851	1	-7
625.190	1	10
625.529	1	-4
625.869	1	0
626.208	1	-8
626.547	1	-1
626.886	1	-5
627.226	1	2
627.565	1	13
627.904	1	4
628.243	1	-1
628.583	1	3
628.922	1	-7
629.261	1	2
629.600	1	8
629.940	1	5
630.279	1	2
630.618	1	5
630.957	1	-3
631.297	1	0
631.636	1	0
631.975	1	-7
632.314	1	7
632.653	1	-9
632.993	1	7
633.332	1	7
633.671	1	2
634.010	1	0
634.349	1	-3
634.689	1	12
635.028	1	12
635.367	1	-1
635.706	1	-3
636.045	1	5
636.384	1	11
636.724	1	3
637.063	1	7
637.402	1	3
637.741	1	11
638.080	1	1
638.419	1	10
638.759	1	3
639.098	1	-5
639.437	1	-4
639.776	1	7
640.115	1	1
640.454	1	7
640.793	1	4
641.132	1	3
641.472	1	-4
641.811	1	-4
642.150	1	5
642.489	1	4
642.828	1	2
643.167	1	3
643.506	1	-3
643.845	1	10
644.184	1	3
644.524	1	-7
644.863	1	-5
645.202	1	-5
645.541	1	-3
645.880	1	-2
646.219	1	3
646.558	1	-2
646.897	1	-6
647.236	1	1
647.575	1	-3
647.914	1	2
648.253	1	12
648.592	1	7
648.931	1	7
649.270	1	11
649.610	1	5
649.949	1	2
650.288	1	-1
650.627	1	5
650.966	1	-11
651.305	1	5
651.644	1	2
651.983	1	5
652.322	1	5
652.661	1	0
653.000	1	-3
653.339	1	3
653.678	1	10
654.017	1	3
654.356	1	7
654.695	1	-1
655.034	1	5
655.373	1	-1
655.712	1	-6
656.051	1	8
656.390	1	-1
656.729	1	8
657.068	1	2
657.406	1	12
657.745	1	-11
658.084	1	9
658.423	1	7
658.762	1	-4
659.101	1	2
659.440	1	14
659.779	1	-3
660.118	1	9
660.457	1	-3
660.796	1	4
661.135	1	10
661.474	1	-2
661.813	1	-8
662.152	1	-1
662.491	1	11
662.829	1	-2
663.168	1	4
663.507	1	6
663.846	1	3
664.185	1	0
664.524	1	-13
664.863	1	13
665.202	1	-11
665.541	1	-6
665.879	1	6
666.218	1	-2
666.557	1	1
666.896	1	-3
667.235	1	7
667.574	1	14
667.913	1	-5
668.251	1	6
668.590	1	2
668.929	1	6
669.268	1	-4
669.607	1	-4
669.946	1	6
670.285	1	9
670.623	1	7
670.962	1	-2
671.301	1	0
671.640	1	-10
671.979	1	10
672.317	1	-7
672.656	1	6
672.995	1	-1
673.334	1	13
673.673	1	14
674.011	1	11
674.350	1	4
674.689	1	-9
675.028	1	3
675.367	1	1
675.705	1	0
676.044	1	-6
676.383	1	-1
676.722	1	4
677.060	1	-5
677.399	1	4
677.738	1	-2
678.077	1	2
678.416	1	4
678.754	1	5
679.093	1	6
679.432	1	-4
679.771	1	1
680.109	1	-2
680.448	1	2
680.787	1	0
681.125	1	6
681.464	1	-1
681.803	1	-4
682.142	1	16
682.480	1	-1
682.819	1	-1
683.158	1	-2
683.496	1	-6
683.835	1	5
684.174	1	-1
684.512	1	0
684.851	1	0
685.190	1	11
685.529	1	5
685.867	1	-4
686.206	1	2
686.545	1	6
686.883	1	6
687.222	1	-7
687.561	1	-1
687.899	1	2
688.238	1	-1
688.577	1	2
688.746	1	5