File: Analysis/GaN_68K_200ms/GaN_sample E_spot4_UVVIS_68 K_200um_200 ms 2x2mm1_128.txt
340.368	1	6
340.710	1	6
341.052	1	12
341.394	1	-7
341.737	1	6
342.079	1	3
342.421	1	6
342.763	1	10
343.105	1	15
343.447	1	6
343.789	1	1
344.131	1	-3
344.473	1	-3
344.815	1	12
345.157	1	11
345.499	1	3
345.841	1	21
346.183	1	-3
346.526	1	14
346.868	1	5
347.210	1	7
347.552	1	6
347.894	1	1
348.236	1	7
348.578	1	3
348.920	1	10
349.262	1	-1
349.604	1	14
349.946	1	15
350.288	1	9
350.630	1	0
350.972	1	9
351.314	1	5
351.656	1	9
351.998	1	5
352.340	1	7
352.682	1	-1
353.024	1	4
353.366	1	13
353.708	1	17
354.050	1	13
354.392	1	13
354.734	1	8
355.076	1	18
355.418	1	13
355.760	1	15
356.102	1	13
356.444	1	22
356.785	1	23
357.127	1	20
357.469	1	29
357.811	1	30
358.153	1	27
358.495	1	27
358.837	1	24
359.179	1	19
359.521	1	35
359.863	1	23
360.205	1	37
360.547	1	55
360.889	1	44
361.231	1	56
361.572	1	41
361.914	1	68
362.256	1	76
362.598	1	76
362.940	1	85
363.282	1	98
363.624	1	103
363.966	1	118
364.308	1	133
364.649	1	157
364.991	1	168
365.333	1	200
365.675	1	189
366.017	1	211
366.359	1	234
366.701	1	219
367.042	1	245
367.384	1	221
367.726	1	228
368.068	1	214
368.410	1	214
368.752	1	192
369.093	1	200
369.435	1	175
369.777	1	161
370.119	1	156
370.461	1	143
370.803	1	131
371.144	1	132
371.486	1	125
371.828	1	117
372.170	1	121
372.512	1	102
372.853	1	111
373.195	1	99
373.537	1	85
373.879	1	97
374.220	1	82
374.562	1	88
374.904	1	79
375.246	1	77
375.588	1	82
375.929	1	68
376.271	1	77
376.613	1	58
376.955	1	57
377.296	1	65
377.638	1	53
377.980	1	56
378.321	1	57
378.663	1	47
379.005	1	65
379.347	1	62
379.688	1	58
380.030	1	60
380.372	1	69
380.714	1	70
381.055	1	68
381.397	1	67
381.739	1	102
382.080	1	85
382.422	1	109
382.764	1	112
383.105	1	121
383.447	1	141
383.789	1	155
384.130	1	163
384.472	1	185
384.814	1	210
385.156	1	230
385.497	1	245
385.839	1	250
386.180	1	264
386.522	1	284
386.864	1	278
387.205	1	282
387.547	1	295
387.889	1	292
388.230	1	297
388.572	1	274
388.914	1	280
389.255	1	276
389.597	1	272
389.939	1	259
390.280	1	275
390.622	1	248
390.963	1	258
391.305	1	258
391.647	1	253
391.988	1	234
392.330	1	247
392.671	1	241
393.013	1	237
393.355	1	249
393.696	1	225
394.038	1	205
394.379	1	214
394.721	1	225
395.062	1	216
395.404	1	236
395.746	1	235
396.087	1	238
396.429	1	235
396.770	1	257
397.112	1	259
397.453	1	247
397.795	1	266
398.136	1	258
398.478	1	256
398.819	1	265
399.161	1	259
399.503	1	243
399.844	1	238
400.186	1	237
400.527	1	236
400.869	1	215
401.210	1	206
401.552	1	205
401.893	1	192
402.235	1	190
402.576	1	190
402.918	1	173
403.259	1	175
403.601	1	173
403.942	1	182
404.284	1	165
404.625	1	172
404.967	1	158
405.308	1	166
405.649	1	169
405.991	1	160
406.332	1	183
406.674	1	158
407.015	1	146
407.357	1	162
407.698	1	150
408.040	1	147
408.381	1	150
408.722	1	145
409.064	1	150
409.405	1	138
409.747	1	139
410.088	1	146
410.430	1	151
410.771	1	145
411.112	1	137
411.454	1	137
411.795	1	129
412.137	1	130
412.478	1	137
412.819	1	117
413.161	1	114
413.502	1	120
413.844	1	98
414.185	1	113
414.526	1	96
414.868	1	105
415.209	1	104
415.550	1	89
415.892	1	93
416.233	1	94
416.575	1	87
416.916	1	95
417.257	1	101
417.599	1	92
417.940	1	85
418.281	1	94
418.623	1	83
418.964	1	84
419.305	1	92
419.647	1	88
419.988	1	81
420.329	1	86
420.671	1	85
421.012	1	86
421.353	1	85
421.695	1	88
422.036	1	81
422.377	1	73
422.718	1	70
423.060	1	71
423.401	1	76
423.742	1	61
424.084	1	72
424.425	1	72
424.766	1	64
425.107	1	52
425.449	1	63
425.790	1	62
426.131	1	47
426.472	1	64
426.814	1	66
427.155	1	58
427.496	1	72
427.837	1	44
428.179	1	51
428.520	1	45
428.861	1	56
429.202	1	64
429.544	1	53
429.885	1	47
430.226	1	48
430.567	1	55
430.909	1	42
431.250	1	36
431.591	1	48
431.932	1	47
432.273	1	40
432.615	1	48
432.956	1	41
433.297	1	57
433.638	1	39
433.979	1	36
434.320	1	38
434.662	1	34
435.003	1	50
435.344	1	31
435.685	1	40
436.026	1	35
436.368	1	37
436.709	1	32
437.050	1	43
437.391	1	44
437.732	1	40
438.073	1	33
438.414	1	33
438.756	1	47
439.097	1	41
439.438	1	47
439.779	1	29
440.120	1	30
440.461	1	24
440.802	1	42
441.143	1	43
441.485	1	21
441.826	1	19
442.167	1	29
442.508	1	23
442.849	1	26
443.190	1	18
443.531	1	25
443.872	1	20
444.213	1	27
444.554	1	27
444.895	1	22
445.237	1	23
445.578	1	30
445.919	1	30
446.260	1	26
446.601	1	17
446.942	1	21
447.283	1	22
447.624	1	31
447.965	1	13
448.306	1	26
448.647	1	37
448.988	1	9
449.329	1	23
449.670	1	26
450.011	1	21
450.352	1	28
450.693	1	35
451.034	1	22
451.375	1	22
451.716	1	34
452.057	1	28
452.398	1	26
452.739	1	23
453.080	1	37
453.421	1	16
453.762	1	25
454.103	1	18
454.444	1	17
454.785	1	18
455.126	1	23
455.467	1	26
455.808	1	20
456.149	1	13
456.490	1	18
456.831	1	33
457.172	1	20
457.513	1	28
457.854	1	22
458.195	1	19
458.536	1	21
458.877	1	23
459.218	1	19
459.559	1	25
459.899	1	28
460.240	1	18
460.581	1	20
460.922	1	18
461.263	1	25
461.604	1	9
461.945	1	24
462.286	1	22
462.627	1	15
462.968	1	15
463.309	1	16
463.649	1	23
463.990	1	22
464.331	1	18
464.672	1	14
465.013	1	10
465.354	1	21
465.695	1	24
466.036	1	18
466.376	1	11
466.717	1	11
467.058	1	28
467.399	1	20
467.740	1	21
468.081	1	13
468.422	1	28
468.762	1	12
469.103	1	15
469.444	1	20
469.785	1	12
470.126	1	18
470.467	1	24
470.807	1	16
471.148	1	23
471.489	1	11
471.830	1	27
472.171	1	9
472.511	1	28
472.852	1	16
473.193	1	14
473.534	1	17
473.875	1	19
474.215	1	21
474.556	1	3
474.897	1	21
475.238	1	17
475.578	1	25
475.919	1	17
476.260	1	16
476.601	1	21
476.942	1	12
477.282	1	0
477.623	1	21
477.964	1	25
478.305	1	19
478.645	1	13
478.986	1	17
479.327	1	13
479.667	1	18
480.008	1	27
480.349	1	16
480.690	1	20
481.030	1	9
481.371	1	25
481.712	1	19
482.053	1	27
482.393	1	9
482.734	1	20
483.075	1	23
483.415	1	20
483.756	1	27
484.097	1	10
484.437	1	3
484.778	1	19
485.119	1	26
485.459	1	25
485.800	1	22
486.141	1	18
486.481	1	20
486.822	1	27
487.163	1	18
487.503	1	23
487.844	1	28
488.185	1	16
488.525	1	19
488.866	1	38
489.207	1	29
489.547	1	22
489.888	1	23
490.228	1	13
490.569	1	31
490.910	1	26
491.250	1	41
491.591	1	28
491.932	1	36
492.272	1	44
492.613	1	37
492.953	1	32
493.294	1	41
493.635	1	43
493.975	1	38
494.316	1	37
494.656	1	39
494.997	1	44
495.337	1	34
495.678	1	42
496.019	1	29
496.359	1	44
496.700	1	47
497.040	1	39
497.381	1	36
497.721	1	40
498.062	1	45
498.403	1	49
498.743	1	44
499.084	1	39
499.424	1	60
499.765	1	48
500.105	1	57
500.446	1	57
500.786	1	52
501.127	1	62
501.467	1	60
501.808	1	38
502.148	1	65
502.489	1	62
502.829	1	61
503.170	1	56
503.510	1	70
503.851	1	51
504.191	1	65
504.532	1	51
504.872	1	64
505.213	1	67
505.553	1	70
505.894	1	74
506.234	1	82
506.575	1	61
506.915	1	79
507.256	1	69
507.596	1	88
507.936	1	84
508.277	1	76
508.617	1	85
508.958	1	92
509.298	1	93
509.639	1	85
509.979	1	79
510.319	1	82
510.660	1	85
511.000	1	103
511.341	1	82
511.681	1	82
512.022	1	71
512.362	1	84
512.702	1	84
513.043	1	85
513.383	1	87
513.724	1	112
514.064	1	105
514.404	1	96
514.745	1	96
515.085	1	92
515.425	1	91
515.766	1	101
516.106	1	102
516.447	1	105
516.787	1	94
517.127	1	99
517.468	1	104
517.808	1	107
518.148	1	119
518.489	1	119
518.829	1	108
519.169	1	124
519.510	1	114
519.850	1	117
520.190	1	121
520.531	1	114
520.871	1	109
521.211	1	118
521.552	1	134
521.892	1	111
522.232	1	117
522.573	1	115
522.913	1	125
523.253	1	129
523.593	1	105
523.934	1	126
524.274	1	110
524.614	1	125
524.955	1	125
525.295	1	107
525.635	1	127
525.975	1	116
526.316	1	122
526.656	1	145
526.996	1	137
527.337	1	132
527.677	1	142
528.017	1	123
528.357	1	135
528.698	1	120
529.038	1	127
529.378	1	130
529.718	1	134
530.058	1	128
530.399	1	138
530.739	1	133
531.079	1	141
531.419	1	139
531.760	1	135
532.100	1	148
532.440	1	131
532.780	1	152
533.120	1	136
533.461	1	141
533.801	1	138
534.141	1	149
534.481	1	130
534.821	1	139
535.162	1	139
535.502	1	141
535.842	1	131
536.182	1	121
536.522	1	137
536.862	1	134
537.203	1	140
537.543	1	129
537.883	1	121
538.223	1	129
538.563	1	118
538.903	1	119
539.243	1	120
539.584	1	114
539.924	1	125
540.264	1	135
540.604	1	112
540.944	1	113
541.284	1	122
541.624	1	112
541.964	1	111
542.305	1	109
542.645	1	117
542.985	1	107
543.325	1	108
543.665	1	125
544.005	1	113
544.345	1	115
544.685	1	124
545.025	1	107
545.365	1	126
545.705	1	113
546.045	1	133
546.386	1	116
546.726	1	114
547.066	1	103
547.406	1	111
547.746	1	125
548.086	1	104
548.426	1	111
548.766	1	115
549.106	1	117
549.446	1	106
549.786	1	111
550.126	1	107
550.466	1	104
550.806	1	124
551.146	1	104
551.486	1	120
551.826	1	112
552.166	1	106
552.506	1	94
552.846	1	110
553.186	1	107
553.526	1	97
553.866	1	101
554.206	1	100
554.546	1	92
554.886	1	101
555.226	1	90
555.566	1	97
555.906	1	97
556.246	1	82
556.586	1	105
556.926	1	96
557.266	1	103
557.606	1	73
557.946	1	100
558.286	1	95
558.626	1	95
558.966	1	81
559.306	1	77
559.646	1	82
559.986	1	78
560.325	1	74
560.665	1	72
561.005	1	82
561.345	1	77
561.685	1	65
562.025	1	84
562.365	1	79
562.705	1	85
563.045	1	76
563.385	1	80
563.725	1	73
564.064	1	82
564.404	1	75
564.744	1	74
565.084	1	59
565.424	1	72
565.764	1	80
566.104	1	74
566.444	1	78
566.783	1	68
567.123	1	80
567.463	1	69
567.803	1	61
568.143	1	60
568.483	1	59
568.823	1	65
569.162	1	67
569.502	1	69
569.842	1	58
570.182	1	63
570.522	1	71
570.862	1	66
571.201	1	63
571.541	1	51
571.881	1	73
572.221	1	65
572.561	1	49
572.900	1	66
573.240	1	47
573.580	1	59
573.920	1	59
574.260	1	60
574.599	1	58
574.939	1	59
575.279	1	59
575.619	1	54
575.959	1	48
576.298	1	45
576.638	1	57
576.978	1	51
577.318	1	53
577.657	1	49
577.997	1	39
578.337	1	41
578.677	1	47
579.016	1	66
579.356	1	33
579.696	1	57
580.036	1	47
580.375	1	50
580.715	1	53
581.055	1	51
581.394	1	44
581.734	1	53
582.074	1	42
582.414	1	41
582.753	1	49
583.093	1	46
583.433	1	43
583.772	1	46
584.112	1	49
584.452	1	40
584.791	1	40
585.131	1	46
585.471	1	43
585.811	1	44
586.150	1	38
586.490	1	35
586.830	1	31
587.169	1	42
587.509	1	42
587.849	1	44
588.188	1	36
588.528	1	41
588.867	1	49
589.207	1	22
589.547	1	25
589.886	1	33
590.226	1	36
590.566	1	26
590.905	1	43
591.245	1	31
591.585	1	32
591.924	1	31
592.264	1	32
592.603	1	29
592.943	1	38
593.283	1	34
593.622	1	25
593.962	1	41
594.301	1	26
594.641	1	24
594.981	1	24
595.320	1	24
595.660	1	31
595.999	1	25
596.339	1	27
596.678	1	30
597.018	1	30
597.358	1	28
597.697	1	19
598.037	1	26
598.376	1	32
598.716	1	21
599.055	1	35
599.395	1	32
599.734	1	19
600.074	1	16
600.413	1	21
600.753	1	25
601.092	1	17
601.432	1	15
601.771	1	34
602.111	1	16
602.451	1	22
602.790	1	25
603.130	1	23
603.469	1	12
603.809	1	38
604.148	1	23
604.487	1	22
604.827	1	13
605.166	1	16
605.506	1	16
605.845	1	14
606.185	1	30
606.524	1	20
606.864	1	15
607.203	1	26
607.543	1	16
607.882	1	14
608.222	1	27
608.561	1	25
608.901	1	31
609.240	1	24
609.579	1	18
609.919	1	16
610.258	1	21
610.598	1	25
610.937	1	21
611.277	1	23
611.616	1	13
611.955	1	27
612.295	1	26
612.634	1	23
612.974	1	28
613.313	1	27
613.652	1	15
613.992	1	25
614.331	1	19
614.671	1	22
615.010	1	17
615.349	1	24
615.689	1	16
616.028	1	10
616.368	1	20
616.707	1	14
617.046	1	21
617.386	1	14
617.725	1	19
618.064	1	17
618.404	1	23
618.743	1	18
619.082	1	15
619.422	1	15
619.761	1	19
620.100	1	28
620.440	1	17
620.779	1	12
621.118	1	19
621.458	1	17
621.797	1	15
622.136	1	24
622.476	1	19
622.815	1	13
623.154	1	19
623.494	1	13
623.833	1	11
624.172	1	20
624.511	1	23
624.851	1	8
625.190	1	18
625.529	1	17
625.869	1	20
626.208	1	15
626.547	1	18
626.886	1	0
627.226	1	16
627.565	1	22
627.904	1	22
628.243	1	16
628.583	1	14
628.922	1	13
629.261	1	12
629.600	1	24
629.940	1	23
630.279	1	9
630.618	1	18
630.957	1	13
631.297	1	13
631.636	1	5
631.975	1	18
632.314	1	20
632.653	1	10
632.993	1	17
633.332	1	21
633.671	1	13
634.010	1	18
634.349	1	21
634.689	1	19
635.028	1	8
635.367	1	17
635.706	1	9
636.045	1	11
636.384	1	13
636.724	1	16
637.063	1	20
637.402	1	12
637.741	1	19
638.080	1	11
638.419	1	20
638.759	1	23
639.098	1	13
639.437	1	5
639.776	1	8
640.115	1	0
640.454	1	30
640.793	1	23
641.132	1	12
641.472	1	7
641.811	1	6
642.150	1	9
642.489	1	9
642.828	1	21
643.167	1	17
643.506	1	0
643.845	1	10
644.184	1	21
644.524	1	4
644.863	1	2
645.202	1	14
645.541	1	-9
645.880	1	9
646.219	1	16
646.558	1	17
646.897	1	3
647.236	1	15
647.575	1	10
647.914	1	12
648.253	1	7
648.592	1	12
648.931	1	24
649.270	1	21
649.610	1	21
649.949	1	10
650.288	1	14
650.627	1	7
650.966	1	13
651.305	1	2
651.644	1	8
651.983	1	8
652.322	1	14
652.661	1	14
653.000	1	7
653.339	1	11
653.678	1	7
654.017	1	8
654.356	1	17
654.695	1	15
655.034	1	8
655.373	1	6
655.712	1	3
656.051	1	14
656.390	1	12
656.729	1	16
657.068	1	5
657.406	1	10
657.745	1	1
658.084	1	19
658.423	1	0
658.762	1	3
659.101	1	9
659.440	1	16
659.779	1	6
660.118	1	14
660.457	1	1
660.796	1	2
661.135	1	8
661.474	1	9
661.813	1	4
662.152	1	10
662.491	1	7
662.829	1	6
663.168	1	2
663.507	1	2
663.846	1	15
664.185	1	7
664.524	1	3
664.863	1	14
665.202	1	3
665.541	1	10
665.879	1	14
666.218	1	-1
666.557	1	16
666.896	1	3
667.235	1	18
667.574	1	6
667.913	1	5
668.251	1	13
668.590	1	6
668.929	1	19
669.268	1	11
669.607	1	4
669.946	1	15
670.285	1	13
670.623	1	13
670.962	1	10
671.301	1	6
671.640	1	-5
671.979	1	20
672.317	1	3
672.656	1	16
672.995	1	5
673.334	1	12
673.673	1	17
674.011	1	16
674.350	1	9
674.689	1	8
675.028	1	6
675.367	1	11
675.705	1	1
676.044	1	5
676.383	1	17
676.722	1	2
677.060	1	18
677.399	1	15
677.738	1	3
678.077	1	7
678.416	1	9
678.754	1	12
679.093	1	5
679.432	1	2
679.771	1	4
680.109	1	25
680.448	1	13
680.787	1	17
681.125	1	18
681.464	1	6
681.803	1	-4
682.142	1	18
682.480	1	0
682.819	1	10
683.158	1	9
683.496	1	3
683.835	1	9
684.174	1	8
684.512	1	10
684.851	1	17
685.190	1	16
685.529	1	14
685.867	1	13
686.206	1	15
686.545	1	18
686.883	1	7
687.222	1	5
687.561	1	15
687.899	1	12
688.238	1	22
688.577	1	9
688.746	1	22