File: Analysis/GaN_68K_200ms/GaN_sample E_spot4_UVVIS_68 K_200um_200 ms 2x2mm1_840.txt
340.368	1	2
340.710	1	-16
341.052	1	0
341.394	1	-10
341.737	1	3
342.079	1	-5
342.421	1	-3
342.763	1	-1
343.105	1	11
343.447	1	2
343.789	1	-2
344.131	1	0
344.473	1	2
344.815	1	7
345.157	1	3
345.499	1	1
345.841	1	8
346.183	1	-2
346.526	1	4
346.868	1	1
347.210	1	1
347.552	1	7
347.894	1	1
348.236	1	0
348.578	1	1
348.920	1	6
349.262	1	-7
349.604	1	10
349.946	1	-2
350.288	1	2
350.630	1	-4
350.972	1	2
351.314	1	-3
351.656	1	3
351.998	1	-1
352.340	1	-6
352.682	1	-2
353.024	1	-5
353.366	1	0
353.708	1	7
354.050	1	7
354.392	1	5
354.734	1	-7
355.076	1	-2
355.418	1	-1
355.760	1	-2
356.102	1	-12
356.444	1	-6
356.785	1	1
357.127	1	-1
357.469	1	1
357.811	1	12
358.153	1	-1
358.495	1	1
358.837	1	4
359.179	1	-10
359.521	1	-2
359.863	1	-4
360.205	1	-1
360.547	1	-11
360.889	1	-3
361.231	1	-2
361.572	1	-4
361.914	1	-3
362.256	1	8
362.598	1	-9
362.940	1	0
363.282	1	4
363.624	1	-4
363.966	1	7
364.308	1	-8
364.649	1	2
364.991	1	2
365.333	1	8
365.675	1	-8
366.017	1	7
366.359	1	6
366.701	1	-12
367.042	1	7
367.384	1	10
367.726	1	18
368.068	1	-5
368.410	1	-8
368.752	1	-7
369.093	1	1
369.435	1	-1
369.777	1	0
370.119	1	5
370.461	1	3
370.803	1	-11
371.144	1	15
371.486	1	7
371.828	1	1
372.170	1	9
372.512	1	5
372.853	1	-10
373.195	1	0
373.537	1	-4
373.879	1	9
374.220	1	4
374.562	1	-8
374.904	1	-2
375.246	1	-10
375.588	1	1
375.929	1	-3
376.271	1	5
376.613	1	-4
376.955	1	-9
377.296	1	4
377.638	1	3
377.980	1	9
378.321	1	-6
378.663	1	-8
379.005	1	-5
379.347	1	-2
379.688	1	-4
380.030	1	-4
380.372	1	1
380.714	1	-6
381.055	1	0
381.397	1	-3
381.739	1	1
382.080	1	-5
382.422	1	12
382.764	1	0
383.105	1	-2
383.447	1	1
383.789	1	6
384.130	1	0
384.472	1	-13
384.814	1	5
385.156	1	0
385.497	1	14
385.839	1	6
386.180	1	2
386.522	1	9
386.864	1	-9
387.205	1	-1
387.547	1	-3
387.889	1	6
388.230	1	-8
388.572	1	-2
388.914	1	5
389.255	1	14
389.597	1	-5
389.939	1	6
390.280	1	10
390.622	1	-5
390.963	1	13
391.305	1	8
391.647	1	-4
391.988	1	-5
392.330	1	2
392.671	1	8
393.013	1	9
393.355	1	6
393.696	1	-6
394.038	1	-16
394.379	1	-8
394.721	1	8
395.062	1	-8
395.404	1	6
395.746	1	-5
396.087	1	-1
396.429	1	4
396.770	1	6
397.112	1	5
397.453	1	-4
397.795	1	4
398.136	1	1
398.478	1	-3
398.819	1	11
399.161	1	5
399.503	1	-4
399.844	1	-2
400.186	1	11
400.527	1	-1
400.869	1	8
401.210	1	-10
401.552	1	16
401.893	1	3
402.235	1	6
402.576	1	15
402.918	1	1
403.259	1	-4
403.601	1	-18
403.942	1	-1
404.284	1	0
404.625	1	5
404.967	1	10
405.308	1	-5
405.649	1	-3
405.991	1	4
406.332	1	-2
406.674	1	0
407.015	1	-8
407.357	1	-3
407.698	1	-2
408.040	1	-4
408.381	1	-3
408.722	1	-4
409.064	1	0
409.405	1	0
409.747	1	-1
410.088	1	-1
410.430	1	3
410.771	1	4
411.112	1	2
411.454	1	4
411.795	1	0
412.137	1	7
412.478	1	4
412.819	1	2
413.161	1	-8
413.502	1	2
413.844	1	-2
414.185	1	2
414.526	1	11
414.868	1	8
415.209	1	-9
415.550	1	-6
415.892	1	-8
416.233	1	-6
416.575	1	-7
416.916	1	-5
417.257	1	-1
417.599	1	7
417.940	1	-7
418.281	1	1
418.623	1	1
418.964	1	-1
419.305	1	-4
419.647	1	1
419.988	1	-3
420.329	1	7
420.671	1	1
421.012	1	3
421.353	1	9
421.695	1	1
422.036	1	3
422.377	1	4
422.718	1	-4
423.060	1	-1
423.401	1	-2
423.742	1	3
424.084	1	-2
424.425	1	-1
424.766	1	-2
425.107	1	8
425.449	1	0
425.790	1	-8
426.131	1	3
426.472	1	-3
426.814	1	7
427.155	1	2
427.496	1	10
427.837	1	-4
428.179	1	-8
428.520	1	-9
428.861	1	1
429.202	1	-2
429.544	1	2
429.885	1	-15
430.226	1	3
430.567	1	10
430.909	1	-12
431.250	1	-9
431.591	1	5
431.932	1	7
432.273	1	-1
432.615	1	5
432.956	1	-2
433.297	1	2
433.638	1	-4
433.979	1	2
434.320	1	-8
434.662	1	-6
435.003	1	-4
435.344	1	3
435.685	1	-2
436.026	1	1
436.368	1	-3
436.709	1	-10
437.050	1	10
437.391	1	0
437.732	1	2
438.073	1	5
438.414	1	1
438.756	1	4
439.097	1	9
439.438	1	8
439.779	1	1
440.120	1	-5
440.461	1	-2
440.802	1	3
441.143	1	8
441.485	1	1
441.826	1	-4
442.167	1	3
442.508	1	5
442.849	1	2
443.190	1	-20
443.531	1	-8
443.872	1	-2
444.213	1	-7
444.554	1	3
444.895	1	-11
445.237	1	-1
445.578	1	6
445.919	1	-3
446.260	1	4
446.601	1	-1
446.942	1	10
447.283	1	-9
447.624	1	6
447.965	1	-5
448.306	1	1
448.647	1	7
448.988	1	-12
449.329	1	-2
449.670	1	11
450.011	1	1
450.352	1	9
450.693	1	12
451.034	1	9
451.375	1	4
451.716	1	8
452.057	1	7
452.398	1	2
452.739	1	9
453.080	1	9
453.421	1	0
453.762	1	3
454.103	1	6
454.444	1	10
454.785	1	-7
455.126	1	-1
455.467	1	-1
455.808	1	-4
456.149	1	-3
456.490	1	-2
456.831	1	6
457.172	1	-2
457.513	1	5
457.854	1	-5
458.195	1	4
458.536	1	6
458.877	1	-1
459.218	1	-4
459.559	1	5
459.899	1	12
460.240	1	2
460.581	1	1
460.922	1	1
461.263	1	3
461.604	1	8
461.945	1	0
462.286	1	13
462.627	1	-2
462.968	1	-5
463.309	1	-4
463.649	1	-2
463.990	1	3
464.331	1	4
464.672	1	-1
465.013	1	-10
465.354	1	10
465.695	1	1
466.036	1	7
466.376	1	-4
466.717	1	-8
467.058	1	16
467.399	1	4
467.740	1	6
468.081	1	-9
468.422	1	-1
468.762	1	-8
469.103	1	-13
469.444	1	-2
469.785	1	0
470.126	1	2
470.467	1	-6
470.807	1	4
471.148	1	-3
471.489	1	-5
471.830	1	16
472.171	1	4
472.511	1	8
472.852	1	-7
473.193	1	-2
473.534	1	-4
473.875	1	6
474.215	1	-6
474.556	1	-19
474.897	1	-2
475.238	1	1
475.578	1	-3
475.919	1	2
476.260	1	-7
476.601	1	-4
476.942	1	-3
477.282	1	0
477.623	1	5
477.964	1	4
478.305	1	3
478.645	1	-2
478.986	1	-2
479.327	1	-3
479.667	1	-4
480.008	1	-3
480.349	1	3
480.690	1	2
481.030	1	-17
481.371	1	5
481.712	1	3
482.053	1	11
482.393	1	-9
482.734	1	6
483.075	1	-7
483.415	1	-1
483.756	1	3
484.097	1	-13
484.437	1	-6
484.778	1	-3
485.119	1	5
485.459	1	2
485.800	1	-4
486.141	1	-3
486.481	1	-3
486.822	1	-6
487.163	1	-5
487.503	1	-8
487.844	1	0
488.185	1	-11
488.525	1	2
488.866	1	1
489.207	1	1
489.547	1	-7
489.888	1	-8
490.228	1	-7
490.569	1	-3
490.910	1	-5
491.250	1	-10
491.591	1	-8
491.932	1	-4
492.272	1	9
492.613	1	1
492.953	1	-5
493.294	1	7
493.635	1	-11
493.975	1	2
494.316	1	0
494.656	1	-6
494.997	1	-6
495.337	1	7
495.678	1	5
496.019	1	-3
496.359	1	3
496.700	1	6
497.040	1	-1
497.381	1	-17
497.721	1	-5
498.062	1	3
498.403	1	6
498.743	1	7
499.084	1	-17
499.424	1	17
499.765	1	-2
500.105	1	4
500.446	1	3
500.786	1	2
501.127	1	12
501.467	1	6
501.808	1	2
502.148	1	-1
502.489	1	8
502.829	1	7
503.170	1	2
503.510	1	2
503.851	1	-11
504.191	1	6
504.532	1	-18
504.872	1	-3
505.213	1	1
505.553	1	11
505.894	1	4
506.234	1	6
506.575	1	-5
506.915	1	5
507.256	1	-2
507.596	1	14
507.936	1	4
508.277	1	5
508.617	1	-1
508.958	1	6
509.298	1	8
509.639	1	-5
509.979	1	1
510.319	1	-5
510.660	1	8
511.000	1	3
511.341	1	0
511.681	1	-1
512.022	1	-9
512.362	1	2
512.702	1	-1
513.043	1	-1
513.383	1	-1
513.724	1	4
514.064	1	4
514.404	1	1
514.745	1	1
515.085	1	-1
515.425	1	-9
515.766	1	-3
516.106	1	0
516.447	1	1
516.787	1	-2
517.127	1	7
517.468	1	-2
517.808	1	-5
518.148	1	3
518.489	1	-5
518.829	1	-9
519.169	1	2
519.510	1	6
519.850	1	-4
520.190	1	1
520.531	1	-2
520.871	1	-11
521.211	1	6
521.552	1	3
521.892	1	-17
522.232	1	-10
522.573	1	2
522.913	1	2
523.253	1	-3
523.593	1	-14
523.934	1	-6
524.274	1	-18
524.614	1	7
524.955	1	1
525.295	1	0
525.635	1	5
525.975	1	-2
526.316	1	6
526.656	1	9
526.996	1	13
527.337	1	-1
527.677	1	12
528.017	1	-8
528.357	1	2
528.698	1	-4
529.038	1	6
529.378	1	-4
529.718	1	7
530.058	1	7
530.399	1	11
530.739	1	-3
531.079	1	7
531.419	1	-2
531.760	1	1
532.100	1	8
532.440	1	-1
532.780	1	-7
533.120	1	-3
533.461	1	11
533.801	1	-3
534.141	1	11
534.481	1	-5
534.821	1	8
535.162	1	-1
535.502	1	2
535.842	1	6
536.182	1	5
536.522	1	8
536.862	1	4
537.203	1	6
537.543	1	7
537.883	1	10
538.223	1	3
538.563	1	0
538.903	1	0
539.243	1	-1
539.584	1	-1
539.924	1	5
540.264	1	4
540.604	1	5
540.944	1	-3
541.284	1	8
541.624	1	1
541.964	1	5
542.305	1	-10
542.645	1	2
542.985	1	-1
543.325	1	-3
543.665	1	11
544.005	1	-1
544.345	1	-7
544.685	1	4
545.025	1	-3
545.365	1	0
545.705	1	8
546.045	1	4
546.386	1	0
546.726	1	7
547.066	1	-10
547.406	1	4
547.746	1	5
548.086	1	7
548.426	1	-5
548.766	1	-1
549.106	1	6
549.446	1	-8
549.786	1	-3
550.126	1	-2
550.466	1	-8
550.806	1	5
551.146	1	-13
551.486	1	5
551.826	1	4
552.166	1	3
552.506	1	-9
552.846	1	8
553.186	1	6
553.526	1	2
553.866	1	6
554.206	1	0
554.546	1	-8
554.886	1	-5
555.226	1	1
555.566	1	0
555.906	1	-8
556.246	1	-2
556.586	1	13
556.926	1	-5
557.266	1	3
557.606	1	-8
557.946	1	11
558.286	1	4
558.626	1	5
558.966	1	-8
559.306	1	-7
559.646	1	-2
559.986	1	-9
560.325	1	-10
560.665	1	-4
561.005	1	-5
561.345	1	5
561.685	1	-2
562.025	1	-2
562.365	1	-1
562.705	1	0
563.045	1	5
563.385	1	-2
563.725	1	0
564.064	1	7
564.404	1	-1
564.744	1	-1
565.084	1	-4
565.424	1	-7
565.764	1	10
566.104	1	-1
566.444	1	1
566.783	1	0
567.123	1	7
567.463	1	-1
567.803	1	-1
568.143	1	-4
568.483	1	-4
568.823	1	3
569.162	1	3
569.502	1	0
569.842	1	0
570.182	1	-6
570.522	1	4
570.862	1	7
571.201	1	-6
571.541	1	-3
571.881	1	-3
572.221	1	6
572.561	1	-2
572.900	1	7
573.240	1	-7
573.580	1	-11
573.920	1	-7
574.260	1	1
574.599	1	-2
574.939	1	7
575.279	1	3
575.619	1	-5
575.959	1	-8
576.298	1	-4
576.638	1	2
576.978	1	2
577.318	1	6
577.657	1	-17
577.997	1	0
578.337	1	-1
578.677	1	-3
579.016	1	10
579.356	1	1
579.696	1	5
580.036	1	-1
580.375	1	-4
580.715	1	1
581.055	1	2
581.394	1	-1
581.734	1	7
582.074	1	0
582.414	1	-1
582.753	1	10
583.093	1	-2
583.433	1	-5
583.772	1	-10
584.112	1	-1
584.452	1	0
584.791	1	-4
585.131	1	-11
585.471	1	-6
585.811	1	-4
586.150	1	-6
586.490	1	-8
586.830	1	-9
587.169	1	3
587.509	1	2
587.849	1	0
588.188	1	-7
588.528	1	-1
588.867	1	4
589.207	1	2
589.547	1	-13
589.886	1	-4
590.226	1	-2
590.566	1	1
590.905	1	1
591.245	1	8
591.585	1	-18
591.924	1	-5
592.264	1	-1
592.603	1	-10
592.943	1	-9
593.283	1	4
593.622	1	-4
593.962	1	2
594.301	1	12
594.641	1	2
594.981	1	2
595.320	1	7
595.660	1	-8
595.999	1	10
596.339	1	4
596.678	1	-5
597.018	1	-2
597.358	1	8
597.697	1	-7
598.037	1	1
598.376	1	2
598.716	1	-7
599.055	1	-3
599.395	1	6
599.734	1	-4
600.074	1	-5
600.413	1	-4
600.753	1	1
601.092	1	-13
601.432	1	-3
601.771	1	2
602.111	1	-14
602.451	1	-4
602.790	1	-4
603.130	1	-9
603.469	1	-7
603.809	1	4
604.148	1	4
604.487	1	5
604.827	1	-11
605.166	1	-6
605.506	1	-6
605.845	1	-3
606.185	1	-4
606.524	1	0
606.864	1	-3
607.203	1	12
607.543	1	-3
607.882	1	-9
608.222	1	1
608.561	1	1
608.901	1	6
609.240	1	6
609.579	1	7
609.919	1	-4
610.258	1	0
610.598	1	-2
610.937	1	-1
611.277	1	9
611.616	1	-15
611.955	1	6
612.295	1	0
612.634	1	-3
612.974	1	12
613.313	1	-3
613.652	1	-3
613.992	1	1
614.331	1	5
614.671	1	-2
615.010	1	4
615.349	1	-1
615.689	1	-2
616.028	1	-4
616.368	1	-8
616.707	1	-10
617.046	1	2
617.386	1	-3
617.725	1	0
618.064	1	-3
618.404	1	4
618.743	1	-6
619.082	1	11
619.422	1	-10
619.761	1	2
620.100	1	6
620.440	1	-2
620.779	1	0
621.118	1	3
621.458	1	6
621.797	1	-1
622.136	1	4
622.476	1	-2
622.815	1	0
623.154	1	-5
623.494	1	0
623.833	1	-6
624.172	1	14
624.511	1	0
624.851	1	-13
625.190	1	1
625.529	1	3
625.869	1	-1
626.208	1	5
626.547	1	1
626.886	1	-1
627.226	1	3
627.565	1	6
627.904	1	2
628.243	1	-13
628.583	1	3
628.922	1	-6
629.261	1	7
629.600	1	0
629.940	1	3
630.279	1	-8
630.618	1	-6
630.957	1	-4
631.297	1	-1
631.636	1	-6
631.975	1	0
632.314	1	12
632.653	1	-5
632.993	1	4
633.332	1	-1
633.671	1	13
634.010	1	-4
634.349	1	5
634.689	1	3
635.028	1	5
635.367	1	-5
635.706	1	-2
636.045	1	5
636.384	1	6
636.724	1	-2
637.063	1	-5
637.402	1	14
637.741	1	3
638.080	1	-6
638.419	1	9
638.759	1	6
639.098	1	-3
639.437	1	-8
639.776	1	-3
640.115	1	-2
640.454	1	2
640.793	1	0
641.132	1	10
641.472	1	1
641.811	1	-4
642.150	1	0
642.489	1	6
642.828	1	-8
643.167	1	0
643.506	1	-8
643.845	1	-1
644.184	1	12
644.524	1	-2
644.863	1	1
645.202	1	7
645.541	1	-8
645.880	1	-1
646.219	1	-11
646.558	1	-3
646.897	1	-4
647.236	1	1
647.575	1	2
647.914	1	-2
648.253	1	11
648.592	1	-9
648.931	1	1
649.270	1	9
649.610	1	12
649.949	1	2
650.288	1	-13
650.627	1	-1
650.966	1	-5
651.305	1	-3
651.644	1	-7
651.983	1	-5
652.322	1	1
652.661	1	-6
653.000	1	0
653.339	1	7
653.678	1	-1
654.017	1	0
654.356	1	7
654.695	1	-4
655.034	1	3
655.373	1	-3
655.712	1	-15
656.051	1	5
656.390	1	-6
656.729	1	6
657.068	1	-8
657.406	1	3
657.745	1	-8
658.084	1	5
658.423	1	-4
658.762	1	-13
659.101	1	-7
659.440	1	4
659.779	1	-13
660.118	1	3
660.457	1	-5
660.796	1	-6
661.135	1	-7
661.474	1	4
661.813	1	2
662.152	1	-5
662.491	1	2
662.829	1	-9
663.168	1	3
663.507	1	2
663.846	1	4
664.185	1	-9
664.524	1	-6
664.863	1	-12
665.202	1	-3
665.541	1	-7
665.879	1	-5
666.218	1	0
666.557	1	1
666.896	1	-5
667.235	1	-16
667.574	1	8
667.913	1	2
668.251	1	0
668.590	1	-5
668.929	1	4
669.268	1	-3
669.607	1	-16
669.946	1	11
670.285	1	-2
670.623	1	-7
670.962	1	-8
671.301	1	2
671.640	1	-20
671.979	1	16
672.317	1	-10
672.656	1	3
672.995	1	2
673.334	1	2
673.673	1	11
674.011	1	4
674.350	1	-5
674.689	1	-6
675.028	1	0
675.367	1	2
675.705	1	-7
676.044	1	-2
676.383	1	0
676.722	1	-6
677.060	1	5
677.399	1	-5
677.738	1	-3
678.077	1	-3
678.416	1	0
678.754	1	2
679.093	1	0
679.432	1	-1
679.771	1	-1
680.109	1	-5
680.448	1	11
680.787	1	3
681.125	1	10
681.464	1	11
681.803	1	-3
682.142	1	8
682.480	1	-6
682.819	1	-3
683.158	1	-2
683.496	1	-3
683.835	1	4
684.174	1	-1
684.512	1	2
684.851	1	-11
685.190	1	9
685.529	1	-8
685.867	1	0
686.206	1	-7
686.545	1	3
686.883	1	-9
687.222	1	-7
687.561	1	3
687.899	1	-7
688.238	1	7
688.577	1	-10
688.746	1	-2