File: Analysis/GaN_68K_200ms/GaN_sample E_spot4_UVVIS_68 K_200um_200 ms 2x2mm1_242.txt
340.368	1	-4
340.710	1	-3
341.052	1	-2
341.394	1	3
341.737	1	13
342.079	1	-4
342.421	1	-9
342.763	1	3
343.105	1	11
343.447	1	-2
343.789	1	-3
344.131	1	5
344.473	1	8
344.815	1	5
345.157	1	10
345.499	1	6
345.841	1	9
346.183	1	2
346.526	1	15
346.868	1	5
347.210	1	-1
347.552	1	6
347.894	1	-1
348.236	1	3
348.578	1	6
348.920	1	11
349.262	1	8
349.604	1	11
349.946	1	13
350.288	1	4
350.630	1	-2
350.972	1	10
351.314	1	-4
351.656	1	6
351.998	1	4
352.340	1	-4
352.682	1	-4
353.024	1	-6
353.366	1	9
353.708	1	1
354.050	1	8
354.392	1	14
354.734	1	-4
355.076	1	5
355.418	1	6
355.760	1	10
356.102	1	1
356.444	1	10
356.785	1	15
357.127	1	7
357.469	1	4
357.811	1	16
358.153	1	15
358.495	1	12
358.837	1	1
359.179	1	-1
359.521	1	3
359.863	1	4
360.205	1	10
360.547	1	10
360.889	1	18
361.231	1	14
361.572	1	2
361.914	1	5
362.256	1	15
362.598	1	6
362.940	1	4
363.282	1	15
363.624	1	15
363.966	1	12
364.308	1	3
364.649	1	7
364.991	1	17
365.333	1	27
365.675	1	7
366.017	1	21
366.359	1	11
366.701	1	-4
367.042	1	28
367.384	1	10
367.726	1	19
368.068	1	16
368.410	1	1
368.752	1	1
369.093	1	20
369.435	1	17
369.777	1	10
370.119	1	10
370.461	1	15
370.803	1	10
371.144	1	12
371.486	1	15
371.828	1	5
372.170	1	11
372.512	1	3
372.853	1	13
373.195	1	1
373.537	1	9
373.879	1	15
374.220	1	8
374.562	1	15
374.904	1	13
375.246	1	3
375.588	1	9
375.929	1	10
376.271	1	4
376.613	1	11
376.955	1	-2
377.296	1	11
377.638	1	8
377.980	1	13
378.321	1	12
378.663	1	4
379.005	1	10
379.347	1	13
379.688	1	7
380.030	1	-3
380.372	1	2
380.714	1	8
381.055	1	-1
381.397	1	6
381.739	1	19
382.080	1	-6
382.422	1	18
382.764	1	5
383.105	1	11
383.447	1	15
383.789	1	11
384.130	1	6
384.472	1	9
384.814	1	15
385.156	1	26
385.497	1	19
385.839	1	18
386.180	1	11
386.522	1	18
386.864	1	14
387.205	1	15
387.547	1	13
387.889	1	16
388.230	1	23
388.572	1	12
388.914	1	21
389.255	1	23
389.597	1	14
389.939	1	22
390.280	1	22
390.622	1	4
390.963	1	23
391.305	1	25
391.647	1	9
391.988	1	14
392.330	1	19
392.671	1	19
393.013	1	30
393.355	1	30
393.696	1	8
394.038	1	5
394.379	1	7
394.721	1	14
395.062	1	3
395.404	1	22
395.746	1	4
396.087	1	11
396.429	1	14
396.770	1	22
397.112	1	8
397.453	1	5
397.795	1	12
398.136	1	15
398.478	1	15
398.819	1	17
399.161	1	14
399.503	1	15
399.844	1	8
400.186	1	17
400.527	1	13
400.869	1	15
401.210	1	3
401.552	1	23
401.893	1	19
402.235	1	25
402.576	1	23
402.918	1	-1
403.259	1	7
403.601	1	2
403.942	1	17
404.284	1	8
404.625	1	15
404.967	1	19
405.308	1	26
405.649	1	12
405.991	1	19
406.332	1	7
406.674	1	7
407.015	1	0
407.357	1	2
407.698	1	9
408.040	1	3
408.381	1	11
408.722	1	2
409.064	1	17
409.405	1	7
409.747	1	0
410.088	1	19
410.430	1	10
410.771	1	9
411.112	1	11
411.454	1	18
411.795	1	16
412.137	1	25
412.478	1	14
412.819	1	4
413.161	1	3
413.502	1	2
413.844	1	9
414.185	1	4
414.526	1	9
414.868	1	16
415.209	1	6
415.550	1	9
415.892	1	8
416.233	1	14
416.575	1	13
416.916	1	12
417.257	1	11
417.599	1	2
417.940	1	-1
418.281	1	4
418.623	1	10
418.964	1	6
419.305	1	5
419.647	1	15
419.988	1	0
420.329	1	15
420.671	1	10
421.012	1	18
421.353	1	15
421.695	1	11
422.036	1	8
422.377	1	4
422.718	1	13
423.060	1	6
423.401	1	6
423.742	1	6
424.084	1	10
424.425	1	3
424.766	1	11
425.107	1	9
425.449	1	6
425.790	1	3
426.131	1	15
426.472	1	-5
426.814	1	13
427.155	1	6
427.496	1	22
427.837	1	-1
428.179	1	0
428.520	1	4
428.861	1	-2
429.202	1	13
429.544	1	7
429.885	1	9
430.226	1	11
430.567	1	12
430.909	1	-1
431.250	1	3
431.591	1	9
431.932	1	7
432.273	1	8
432.615	1	9
432.956	1	-4
433.297	1	7
433.638	1	8
433.979	1	5
434.320	1	1
434.662	1	-4
435.003	1	12
435.344	1	12
435.685	1	11
436.026	1	2
436.368	1	2
436.709	1	-6
437.050	1	14
437.391	1	8
437.732	1	7
438.073	1	12
438.414	1	7
438.756	1	12
439.097	1	13
439.438	1	9
439.779	1	-2
440.120	1	1
440.461	1	-4
440.802	1	4
441.143	1	11
441.485	1	-1
441.826	1	-3
442.167	1	0
442.508	1	8
442.849	1	8
443.190	1	3
443.531	1	2
443.872	1	9
444.213	1	0
444.554	1	4
444.895	1	7
445.237	1	4
445.578	1	4
445.919	1	12
446.260	1	5
446.601	1	3
446.942	1	9
447.283	1	-3
447.624	1	16
447.965	1	4
448.306	1	8
448.647	1	12
448.988	1	-11
449.329	1	2
449.670	1	6
450.011	1	7
450.352	1	15
450.693	1	15
451.034	1	15
451.375	1	6
451.716	1	20
452.057	1	10
452.398	1	9
452.739	1	4
453.080	1	17
453.421	1	7
453.762	1	4
454.103	1	2
454.444	1	20
454.785	1	-10
455.126	1	0
455.467	1	10
455.808	1	-2
456.149	1	10
456.490	1	0
456.831	1	17
457.172	1	7
457.513	1	9
457.854	1	5
458.195	1	5
458.536	1	12
458.877	1	-6
459.218	1	-3
459.559	1	6
459.899	1	15
460.240	1	4
460.581	1	11
460.922	1	1
461.263	1	15
461.604	1	0
461.945	1	15
462.286	1	6
462.627	1	7
462.968	1	-1
463.309	1	10
463.649	1	6
463.990	1	10
464.331	1	7
464.672	1	10
465.013	1	-1
465.354	1	13
465.695	1	13
466.036	1	5
466.376	1	5
466.717	1	-5
467.058	1	15
467.399	1	1
467.740	1	5
468.081	1	7
468.422	1	2
468.762	1	-5
469.103	1	6
469.444	1	7
469.785	1	11
470.126	1	11
470.467	1	6
470.807	1	-3
471.148	1	7
471.489	1	-1
471.830	1	22
472.171	1	6
472.511	1	14
472.852	1	4
473.193	1	1
473.534	1	-8
473.875	1	12
474.215	1	-2
474.556	1	-1
474.897	1	8
475.238	1	5
475.578	1	4
475.919	1	10
476.260	1	5
476.601	1	7
476.942	1	0
477.282	1	-7
477.623	1	6
477.964	1	11
478.305	1	7
478.645	1	-7
478.986	1	10
479.327	1	4
479.667	1	10
480.008	1	4
480.349	1	4
480.690	1	5
481.030	1	0
481.371	1	7
481.712	1	6
482.053	1	18
482.393	1	3
482.734	1	1
483.075	1	3
483.415	1	5
483.756	1	9
484.097	1	-1
484.437	1	-9
484.778	1	10
485.119	1	10
485.459	1	0
485.800	1	5
486.141	1	-7
486.481	1	7
486.822	1	-4
487.163	1	-2
487.503	1	-11
487.844	1	5
488.185	1	-2
488.525	1	2
488.866	1	5
489.207	1	10
489.547	1	0
489.888	1	-1
490.228	1	-3
490.569	1	5
490.910	1	0
491.250	1	7
491.591	1	0
491.932	1	-2
492.272	1	10
492.613	1	9
492.953	1	2
493.294	1	13
493.635	1	3
493.975	1	11
494.316	1	13
494.656	1	-4
494.997	1	7
495.337	1	9
495.678	1	8
496.019	1	0
496.359	1	7
496.700	1	9
497.040	1	0
497.381	1	-12
497.721	1	-1
498.062	1	-2
498.403	1	8
498.743	1	1
499.084	1	-3
499.424	1	14
499.765	1	3
500.105	1	9
500.446	1	20
500.786	1	14
501.127	1	13
501.467	1	5
501.808	1	4
502.148	1	11
502.489	1	12
502.829	1	15
503.170	1	5
503.510	1	10
503.851	1	-10
504.191	1	8
504.532	1	0
504.872	1	2
505.213	1	3
505.553	1	4
505.894	1	14
506.234	1	16
506.575	1	-2
506.915	1	5
507.256	1	-1
507.596	1	15
507.936	1	15
508.277	1	6
508.617	1	19
508.958	1	13
509.298	1	25
509.639	1	15
509.979	1	7
510.319	1	5
510.660	1	15
511.000	1	18
511.341	1	4
511.681	1	14
512.022	1	1
512.362	1	12
512.702	1	-3
513.043	1	3
513.383	1	0
513.724	1	14
514.064	1	23
514.404	1	11
514.745	1	7
515.085	1	3
515.425	1	1
515.766	1	14
516.106	1	4
516.447	1	5
516.787	1	10
517.127	1	7
517.468	1	4
517.808	1	13
518.148	1	14
518.489	1	18
518.829	1	0
519.169	1	27
519.510	1	14
519.850	1	7
520.190	1	10
520.531	1	13
520.871	1	0
521.211	1	11
521.552	1	10
521.892	1	3
522.232	1	-7
522.573	1	3
522.913	1	16
523.253	1	10
523.593	1	-2
523.934	1	12
524.274	1	7
524.614	1	9
524.955	1	0
525.295	1	10
525.635	1	22
525.975	1	10
526.316	1	10
526.656	1	17
526.996	1	23
527.337	1	6
527.677	1	18
528.017	1	8
528.357	1	22
528.698	1	5
529.038	1	22
529.378	1	13
529.718	1	12
530.058	1	5
530.399	1	18
530.739	1	9
531.079	1	10
531.419	1	15
531.760	1	15
532.100	1	16
532.440	1	17
532.780	1	16
533.120	1	6
533.461	1	18
533.801	1	17
534.141	1	16
534.481	1	17
534.821	1	14
535.162	1	11
535.502	1	11
535.842	1	11
536.182	1	12
536.522	1	14
536.862	1	12
537.203	1	18
537.543	1	12
537.883	1	14
538.223	1	20
538.563	1	9
538.903	1	9
539.243	1	7
539.584	1	14
539.924	1	15
540.264	1	13
540.604	1	20
540.944	1	0
541.284	1	6
541.624	1	14
541.964	1	10
542.305	1	-3
542.645	1	12
542.985	1	10
543.325	1	7
543.665	1	21
544.005	1	11
544.345	1	7
544.685	1	10
545.025	1	5
545.365	1	6
545.705	1	8
546.045	1	14
546.386	1	9
546.726	1	11
547.066	1	2
547.406	1	17
547.746	1	8
548.086	1	15
548.426	1	7
548.766	1	19
549.106	1	16
549.446	1	6
549.786	1	15
550.126	1	10
550.466	1	1
550.806	1	22
551.146	1	2
551.486	1	13
551.826	1	12
552.166	1	11
552.506	1	4
552.846	1	11
553.186	1	8
553.526	1	6
553.866	1	9
554.206	1	5
554.546	1	3
554.886	1	11
555.226	1	1
555.566	1	13
555.906	1	9
556.246	1	9
556.586	1	12
556.926	1	16
557.266	1	9
557.606	1	1
557.946	1	10
558.286	1	7
558.626	1	16
558.966	1	16
559.306	1	5
559.646	1	1
559.986	1	7
560.325	1	-9
560.665	1	13
561.005	1	7
561.345	1	8
561.685	1	3
562.025	1	6
562.365	1	11
562.705	1	13
563.045	1	9
563.385	1	2
563.725	1	13
564.064	1	9
564.404	1	12
564.744	1	13
565.084	1	1
565.424	1	7
565.764	1	14
566.104	1	10
566.444	1	11
566.783	1	0
567.123	1	24
567.463	1	4
567.803	1	-3
568.143	1	0
568.483	1	-4
568.823	1	14
569.162	1	7
569.502	1	9
569.842	1	5
570.182	1	7
570.522	1	14
570.862	1	15
571.201	1	10
571.541	1	-1
571.881	1	18
572.221	1	12
572.561	1	-10
572.900	1	17
573.240	1	-2
573.580	1	11
573.920	1	14
574.260	1	4
574.599	1	5
574.939	1	2
575.279	1	17
575.619	1	5
575.959	1	10
576.298	1	2
576.638	1	13
576.978	1	12
577.318	1	13
577.657	1	-8
577.997	1	-7
578.337	1	2
578.677	1	-4
579.016	1	22
579.356	1	-1
579.696	1	5
580.036	1	-1
580.375	1	2
580.715	1	19
581.055	1	15
581.394	1	-2
581.734	1	7
582.074	1	-6
582.414	1	5
582.753	1	5
583.093	1	5
583.433	1	-6
583.772	1	6
584.112	1	19
584.452	1	8
584.791	1	3
585.131	1	-6
585.471	1	5
585.811	1	5
586.150	1	2
586.490	1	0
586.830	1	1
587.169	1	8
587.509	1	2
587.849	1	13
588.188	1	1
588.528	1	9
588.867	1	9
589.207	1	3
589.547	1	-2
589.886	1	0
590.226	1	5
590.566	1	7
590.905	1	2
591.245	1	3
591.585	1	0
591.924	1	-3
592.264	1	4
592.603	1	1
592.943	1	3
593.283	1	14
593.622	1	1
593.962	1	13
594.301	1	12
594.641	1	4
594.981	1	6
595.320	1	9
595.660	1	1
595.999	1	-5
596.339	1	1
596.678	1	5
597.018	1	13
597.358	1	4
597.697	1	2
598.037	1	6
598.376	1	7
598.716	1	1
599.055	1	9
599.395	1	17
599.734	1	0
600.074	1	1
600.413	1	4
600.753	1	1
601.092	1	-4
601.432	1	2
601.771	1	14
602.111	1	-4
602.451	1	7
602.790	1	9
603.130	1	11
603.469	1	3
603.809	1	8
604.148	1	5
604.487	1	5
604.827	1	-8
605.166	1	0
605.506	1	12
605.845	1	7
606.185	1	9
606.524	1	4
606.864	1	-2
607.203	1	19
607.543	1	7
607.882	1	4
608.222	1	13
608.561	1	10
608.901	1	8
609.240	1	2
609.579	1	10
609.919	1	-5
610.258	1	8
610.598	1	9
610.937	1	2
611.277	1	5
611.616	1	-2
611.955	1	12
612.295	1	3
612.634	1	-1
612.974	1	10
613.313	1	5
613.652	1	-7
613.992	1	14
614.331	1	8
614.671	1	-1
615.010	1	-5
615.349	1	2
615.689	1	6
616.028	1	1
616.368	1	0
616.707	1	-1
617.046	1	5
617.386	1	3
617.725	1	5
618.064	1	4
618.404	1	7
618.743	1	0
619.082	1	13
619.422	1	6
619.761	1	4
620.100	1	0
620.440	1	8
620.779	1	7
621.118	1	4
621.458	1	9
621.797	1	8
622.136	1	12
622.476	1	13
622.815	1	2
623.154	1	10
623.494	1	-3
623.833	1	-2
624.172	1	17
624.511	1	14
624.851	1	-10
625.190	1	14
625.529	1	4
625.869	1	18
626.208	1	1
626.547	1	7
626.886	1	-8
627.226	1	14
627.565	1	10
627.904	1	0
628.243	1	-3
628.583	1	4
628.922	1	5
629.261	1	11
629.600	1	8
629.940	1	7
630.279	1	4
630.618	1	4
630.957	1	7
631.297	1	3
631.636	1	-5
631.975	1	2
632.314	1	11
632.653	1	0
632.993	1	5
633.332	1	5
633.671	1	6
634.010	1	6
634.349	1	9
634.689	1	8
635.028	1	3
635.367	1	-3
635.706	1	-1
636.045	1	9
636.384	1	2
636.724	1	7
637.063	1	15
637.402	1	14
637.741	1	16
638.080	1	7
638.419	1	8
638.759	1	0
639.098	1	5
639.437	1	-8
639.776	1	2
640.115	1	1
640.454	1	8
640.793	1	8
641.132	1	9
641.472	1	-4
641.811	1	5
642.150	1	3
642.489	1	3
642.828	1	0
643.167	1	14
643.506	1	2
643.845	1	3
644.184	1	5
644.524	1	-11
644.863	1	0
645.202	1	-1
645.541	1	0
645.880	1	9
646.219	1	5
646.558	1	0
646.897	1	-2
647.236	1	13
647.575	1	6
647.914	1	4
648.253	1	3
648.592	1	6
648.931	1	10
649.270	1	8
649.610	1	11
649.949	1	-1
650.288	1	-7
650.627	1	6
650.966	1	1
651.305	1	4
651.644	1	4
651.983	1	11
652.322	1	5
652.661	1	11
653.000	1	-3
653.339	1	2
653.678	1	1
654.017	1	1
654.356	1	9
654.695	1	5
655.034	1	5
655.373	1	-1
655.712	1	0
656.051	1	14
656.390	1	-2
656.729	1	-3
657.068	1	-5
657.406	1	9
657.745	1	-10
658.084	1	4
658.423	1	-5
658.762	1	-3
659.101	1	-2
659.440	1	10
659.779	1	-3
660.118	1	6
660.457	1	-3
660.796	1	-3
661.135	1	7
661.474	1	7
661.813	1	3
662.152	1	4
662.491	1	1
662.829	1	-5
663.168	1	4
663.507	1	-4
663.846	1	7
664.185	1	-3
664.524	1	-2
664.863	1	3
665.202	1	-6
665.541	1	2
665.879	1	-3
666.218	1	-6
666.557	1	5
666.896	1	-1
667.235	1	0
667.574	1	10
667.913	1	6
668.251	1	8
668.590	1	2
668.929	1	11
669.268	1	18
669.607	1	-4
669.946	1	4
670.285	1	4
670.623	1	11
670.962	1	2
671.301	1	1
671.640	1	-12
671.979	1	12
672.317	1	-1
672.656	1	3
672.995	1	11
673.334	1	9
673.673	1	18
674.011	1	3
674.350	1	5
674.689	1	1
675.028	1	3
675.367	1	12
675.705	1	-8
676.044	1	0
676.383	1	-3
676.722	1	6
677.060	1	4
677.399	1	3
677.738	1	-2
678.077	1	14
678.416	1	0
678.754	1	6
679.093	1	5
679.432	1	0
679.771	1	7
680.109	1	3
680.448	1	4
680.787	1	10
681.125	1	9
681.464	1	-5
681.803	1	-7
682.142	1	6
682.480	1	10
682.819	1	4
683.158	1	2
683.496	1	1
683.835	1	0
684.174	1	0
684.512	1	3
684.851	1	7
685.190	1	16
685.529	1	1
685.867	1	-1
686.206	1	-2
686.545	1	-3
686.883	1	2
687.222	1	-2
687.561	1	1
687.899	1	5
688.238	1	4
688.577	1	6
688.746	1	8