File: Analysis/GaN_68K_200ms/GaN_sample E_spot4_UVVIS_68 K_200um_200 ms 2x2mm1_678.txt
340.368	1	1
340.710	1	2
341.052	1	-1
341.394	1	-3
341.737	1	7
342.079	1	-6
342.421	1	-8
342.763	1	-7
343.105	1	14
343.447	1	-2
343.789	1	4
344.131	1	-8
344.473	1	-7
344.815	1	8
345.157	1	4
345.499	1	-1
345.841	1	1
346.183	1	-7
346.526	1	2
346.868	1	-4
347.210	1	-5
347.552	1	1
347.894	1	4
348.236	1	-8
348.578	1	3
348.920	1	5
349.262	1	-2
349.604	1	8
349.946	1	2
350.288	1	-2
350.630	1	-3
350.972	1	-6
351.314	1	-8
351.656	1	8
351.998	1	-9
352.340	1	4
352.682	1	-11
353.024	1	-8
353.366	1	7
353.708	1	2
354.050	1	-4
354.392	1	2
354.734	1	1
355.076	1	6
355.418	1	-3
355.760	1	-2
356.102	1	-9
356.444	1	5
356.785	1	8
357.127	1	0
357.469	1	-3
357.811	1	12
358.153	1	-4
358.495	1	7
358.837	1	3
359.179	1	10
359.521	1	-3
359.863	1	-5
360.205	1	-5
360.547	1	1
360.889	1	3
361.231	1	9
361.572	1	-10
361.914	1	-1
362.256	1	2
362.598	1	-4
362.940	1	-2
363.282	1	-2
363.624	1	5
363.966	1	5
364.308	1	-5
364.649	1	-1
364.991	1	-4
365.333	1	2
365.675	1	1
366.017	1	3
366.359	1	-4
366.701	1	-4
367.042	1	8
367.384	1	4
367.726	1	13
368.068	1	-8
368.410	1	-9
368.752	1	-5
369.093	1	-1
369.435	1	0
369.777	1	4
370.119	1	1
370.461	1	0
370.803	1	-3
371.144	1	5
371.486	1	8
371.828	1	-3
372.170	1	4
372.512	1	-2
372.853	1	3
373.195	1	-3
373.537	1	-3
373.879	1	10
374.220	1	-3
374.562	1	-1
374.904	1	2
375.246	1	-2
375.588	1	9
375.929	1	2
376.271	1	-2
376.613	1	3
376.955	1	-17
377.296	1	1
377.638	1	-16
377.980	1	0
378.321	1	1
378.663	1	2
379.005	1	10
379.347	1	8
379.688	1	-9
380.030	1	-3
380.372	1	0
380.714	1	3
381.055	1	2
381.397	1	-2
381.739	1	3
382.080	1	-5
382.422	1	16
382.764	1	8
383.105	1	1
383.447	1	10
383.789	1	4
384.130	1	-1
384.472	1	-3
384.814	1	6
385.156	1	9
385.497	1	12
385.839	1	-10
386.180	1	3
386.522	1	6
386.864	1	0
387.205	1	-7
387.547	1	-1
387.889	1	21
388.230	1	-1
388.572	1	-3
388.914	1	4
389.255	1	7
389.597	1	0
389.939	1	11
390.280	1	3
390.622	1	-15
390.963	1	0
391.305	1	5
391.647	1	5
391.988	1	-10
392.330	1	7
392.671	1	5
393.013	1	4
393.355	1	15
393.696	1	4
394.038	1	-3
394.379	1	-6
394.721	1	3
395.062	1	-4
395.404	1	12
395.746	1	-5
396.087	1	-2
396.429	1	6
396.770	1	2
397.112	1	-3
397.453	1	-7
397.795	1	-1
398.136	1	5
398.478	1	3
398.819	1	3
399.161	1	-4
399.503	1	6
399.844	1	3
400.186	1	9
400.527	1	14
400.869	1	4
401.210	1	-11
401.552	1	11
401.893	1	-4
402.235	1	9
402.576	1	9
402.918	1	-2
403.259	1	-5
403.601	1	-16
403.942	1	2
404.284	1	1
404.625	1	4
404.967	1	5
405.308	1	-5
405.649	1	-6
405.991	1	8
406.332	1	-14
406.674	1	7
407.015	1	-7
407.357	1	-4
407.698	1	-10
408.040	1	-3
408.381	1	2
408.722	1	-2
409.064	1	-2
409.405	1	3
409.747	1	-1
410.088	1	-4
410.430	1	7
410.771	1	-5
411.112	1	-1
411.454	1	11
411.795	1	5
412.137	1	6
412.478	1	2
412.819	1	-6
413.161	1	-1
413.502	1	1
413.844	1	-3
414.185	1	-2
414.526	1	0
414.868	1	5
415.209	1	3
415.550	1	-9
415.892	1	6
416.233	1	-6
416.575	1	-8
416.916	1	-2
417.257	1	6
417.599	1	8
417.940	1	-14
418.281	1	-3
418.623	1	-11
418.964	1	11
419.305	1	-1
419.647	1	10
419.988	1	0
420.329	1	0
420.671	1	2
421.012	1	8
421.353	1	12
421.695	1	0
422.036	1	1
422.377	1	0
422.718	1	-2
423.060	1	0
423.401	1	-3
423.742	1	-1
424.084	1	4
424.425	1	-7
424.766	1	-1
425.107	1	1
425.449	1	0
425.790	1	4
426.131	1	3
426.472	1	-6
426.814	1	12
427.155	1	-6
427.496	1	2
427.837	1	1
428.179	1	-8
428.520	1	-2
428.861	1	1
429.202	1	2
429.544	1	0
429.885	1	-2
430.226	1	-7
430.567	1	9
430.909	1	-2
431.250	1	-17
431.591	1	3
431.932	1	-1
432.273	1	-8
432.615	1	1
432.956	1	-3
433.297	1	12
433.638	1	-5
433.979	1	0
434.320	1	-2
434.662	1	0
435.003	1	-3
435.344	1	2
435.685	1	5
436.026	1	2
436.368	1	-1
436.709	1	-13
437.050	1	11
437.391	1	1
437.732	1	-2
438.073	1	9
438.414	1	-2
438.756	1	5
439.097	1	8
439.438	1	15
439.779	1	-5
440.120	1	-4
440.461	1	-7
440.802	1	0
441.143	1	9
441.485	1	-2
441.826	1	-10
442.167	1	1
442.508	1	-8
442.849	1	-2
443.190	1	-7
443.531	1	-8
443.872	1	2
444.213	1	-15
444.554	1	-7
444.895	1	1
445.237	1	-7
445.578	1	8
445.919	1	-7
446.260	1	5
446.601	1	-4
446.942	1	7
447.283	1	4
447.624	1	17
447.965	1	2
448.306	1	-2
448.647	1	10
448.988	1	-17
449.329	1	7
449.670	1	7
450.011	1	8
450.352	1	2
450.693	1	6
451.034	1	5
451.375	1	11
451.716	1	11
452.057	1	-3
452.398	1	13
452.739	1	-2
453.080	1	18
453.421	1	-3
453.762	1	7
454.103	1	-7
454.444	1	20
454.785	1	-6
455.126	1	-10
455.467	1	-1
455.808	1	1
456.149	1	-2
456.490	1	4
456.831	1	4
457.172	1	5
457.513	1	1
457.854	1	-6
458.195	1	-3
458.536	1	2
458.877	1	0
459.218	1	1
459.559	1	-1
459.899	1	7
460.240	1	2
460.581	1	-1
460.922	1	-2
461.263	1	5
461.604	1	1
461.945	1	-2
462.286	1	7
462.627	1	-8
462.968	1	-7
463.309	1	-2
463.649	1	6
463.990	1	6
464.331	1	3
464.672	1	6
465.013	1	1
465.354	1	2
465.695	1	4
466.036	1	1
466.376	1	-14
466.717	1	-3
467.058	1	9
467.399	1	11
467.740	1	-1
468.081	1	-4
468.422	1	5
468.762	1	-6
469.103	1	-7
469.444	1	-7
469.785	1	2
470.126	1	6
470.467	1	1
470.807	1	-5
471.148	1	-5
471.489	1	-10
471.830	1	19
472.171	1	4
472.511	1	9
472.852	1	-6
473.193	1	-6
473.534	1	-3
473.875	1	10
474.215	1	-6
474.556	1	-7
474.897	1	-1
475.238	1	-1
475.578	1	3
475.919	1	4
476.260	1	-2
476.601	1	2
476.942	1	-1
477.282	1	-10
477.623	1	4
477.964	1	2
478.305	1	9
478.645	1	-5
478.986	1	4
479.327	1	-18
479.667	1	9
480.008	1	7
480.349	1	-1
480.690	1	1
481.030	1	0
481.371	1	0
481.712	1	4
482.053	1	6
482.393	1	-16
482.734	1	-6
483.075	1	4
483.415	1	4
483.756	1	6
484.097	1	-7
484.437	1	-16
484.778	1	-3
485.119	1	9
485.459	1	8
485.800	1	5
486.141	1	-11
486.481	1	4
486.822	1	-3
487.163	1	-4
487.503	1	-9
487.844	1	0
488.185	1	-4
488.525	1	0
488.866	1	6
489.207	1	4
489.547	1	-4
489.888	1	-1
490.228	1	-11
490.569	1	9
490.910	1	-5
491.250	1	-9
491.591	1	-6
491.932	1	10
492.272	1	9
492.613	1	0
492.953	1	6
493.294	1	1
493.635	1	-9
493.975	1	3
494.316	1	6
494.656	1	-2
494.997	1	-4
495.337	1	4
495.678	1	11
496.019	1	-10
496.359	1	4
496.700	1	-3
497.040	1	0
497.381	1	-13
497.721	1	1
498.062	1	-10
498.403	1	7
498.743	1	5
499.084	1	-6
499.424	1	9
499.765	1	-3
500.105	1	1
500.446	1	10
500.786	1	-2
501.127	1	6
501.467	1	-2
501.808	1	-2
502.148	1	-3
502.489	1	9
502.829	1	-4
503.170	1	0
503.510	1	6
503.851	1	-11
504.191	1	-6
504.532	1	-13
504.872	1	-6
505.213	1	0
505.553	1	-6
505.894	1	-3
506.234	1	12
506.575	1	0
506.915	1	3
507.256	1	3
507.596	1	1
507.936	1	6
508.277	1	-2
508.617	1	1
508.958	1	8
509.298	1	16
509.639	1	9
509.979	1	6
510.319	1	-9
510.660	1	7
511.000	1	17
511.341	1	-3
511.681	1	8
512.022	1	-5
512.362	1	-3
512.702	1	-15
513.043	1	7
513.383	1	-1
513.724	1	2
514.064	1	2
514.404	1	-3
514.745	1	-7
515.085	1	1
515.425	1	-8
515.766	1	-2
516.106	1	-3
516.447	1	-8
516.787	1	-5
517.127	1	3
517.468	1	-2
517.808	1	-5
518.148	1	2
518.489	1	-1
518.829	1	-3
519.169	1	6
519.510	1	-3
519.850	1	2
520.190	1	2
520.531	1	4
520.871	1	-8
521.211	1	12
521.552	1	3
521.892	1	-15
522.232	1	-7
522.573	1	0
522.913	1	3
523.253	1	2
523.593	1	-10
523.934	1	5
524.274	1	-7
524.614	1	-4
524.955	1	4
525.295	1	-3
525.635	1	8
525.975	1	2
526.316	1	2
526.656	1	10
526.996	1	9
527.337	1	-3
527.677	1	15
528.017	1	-7
528.357	1	-1
528.698	1	-1
529.038	1	6
529.378	1	2
529.718	1	-4
530.058	1	4
530.399	1	11
530.739	1	-6
531.079	1	9
531.419	1	10
531.760	1	12
532.100	1	2
532.440	1	4
532.780	1	-4
533.120	1	-4
533.461	1	15
533.801	1	-2
534.141	1	13
534.481	1	8
534.821	1	5
535.162	1	4
535.502	1	8
535.842	1	8
536.182	1	-2
536.522	1	3
536.862	1	1
537.203	1	10
537.543	1	9
537.883	1	12
538.223	1	10
538.563	1	5
538.903	1	3
539.243	1	2
539.584	1	5
539.924	1	2
540.264	1	2
540.604	1	2
540.944	1	-4
541.284	1	-3
541.624	1	2
541.964	1	-7
542.305	1	-9
542.645	1	3
542.985	1	-5
543.325	1	4
543.665	1	8
544.005	1	-1
544.345	1	-2
544.685	1	8
545.025	1	-9
545.365	1	-5
545.705	1	6
546.045	1	6
546.386	1	3
546.726	1	4
547.066	1	-11
547.406	1	8
547.746	1	8
548.086	1	2
548.426	1	-7
548.766	1	-1
549.106	1	7
549.446	1	11
549.786	1	9
550.126	1	-1
550.466	1	2
550.806	1	4
551.146	1	-9
551.486	1	3
551.826	1	4
552.166	1	-4
552.506	1	-11
552.846	1	1
553.186	1	-9
553.526	1	2
553.866	1	-6
554.206	1	-5
554.546	1	-3
554.886	1	10
555.226	1	-10
555.566	1	11
555.906	1	5
556.246	1	-2
556.586	1	-4
556.926	1	9
557.266	1	5
557.606	1	-3
557.946	1	6
558.286	1	-8
558.626	1	5
558.966	1	-3
559.306	1	-6
559.646	1	-1
559.986	1	6
560.325	1	-8
560.665	1	7
561.005	1	2
561.345	1	0
561.685	1	-2
562.025	1	-5
562.365	1	8
562.705	1	5
563.045	1	9
563.385	1	-4
563.725	1	-6
564.064	1	7
564.404	1	3
564.744	1	0
565.084	1	-5
565.424	1	-3
565.764	1	11
566.104	1	2
566.444	1	3
566.783	1	-1
567.123	1	15
567.463	1	-4
567.803	1	-5
568.143	1	-7
568.483	1	-8
568.823	1	5
569.162	1	-2
569.502	1	0
569.842	1	-9
570.182	1	-5
570.522	1	5
570.862	1	9
571.201	1	14
571.541	1	-9
571.881	1	7
572.221	1	-2
572.561	1	-12
572.900	1	9
573.240	1	-4
573.580	1	1
573.920	1	-1
574.260	1	-6
574.599	1	1
574.939	1	-3
575.279	1	3
575.619	1	-2
575.959	1	-4
576.298	1	-12
576.638	1	7
576.978	1	4
577.318	1	10
577.657	1	-9
577.997	1	-11
578.337	1	-3
578.677	1	0
579.016	1	15
579.356	1	-1
579.696	1	5
580.036	1	-4
580.375	1	-1
580.715	1	1
581.055	1	5
581.394	1	-2
581.734	1	1
582.074	1	-2
582.414	1	7
582.753	1	3
583.093	1	-2
583.433	1	-1
583.772	1	-7
584.112	1	-6
584.452	1	-5
584.791	1	-1
585.131	1	-1
585.471	1	3
585.811	1	-3
586.150	1	2
586.490	1	0
586.830	1	-6
587.169	1	-8
587.509	1	6
587.849	1	-1
588.188	1	-3
588.528	1	5
588.867	1	3
589.207	1	-10
589.547	1	-5
589.886	1	-5
590.226	1	6
590.566	1	-7
590.905	1	14
591.245	1	6
591.585	1	-5
591.924	1	3
592.264	1	3
592.603	1	2
592.943	1	-11
593.283	1	-3
593.622	1	-5
593.962	1	7
594.301	1	18
594.641	1	-3
594.981	1	-3
595.320	1	1
595.660	1	-1
595.999	1	5
596.339	1	11
596.678	1	0
597.018	1	-2
597.358	1	5
597.697	1	-9
598.037	1	2
598.376	1	10
598.716	1	-7
599.055	1	-2
599.395	1	15
599.734	1	4
600.074	1	0
600.413	1	-3
600.753	1	-5
601.092	1	-11
601.432	1	-1
601.771	1	7
602.111	1	-16
602.451	1	0
602.790	1	7
603.130	1	6
603.469	1	1
603.809	1	6
604.148	1	3
604.487	1	-1
604.827	1	-13
605.166	1	-10
605.506	1	5
605.845	1	0
606.185	1	0
606.524	1	-5
606.864	1	-3
607.203	1	4
607.543	1	-6
607.882	1	-7
608.222	1	10
608.561	1	7
608.901	1	6
609.240	1	4
609.579	1	7
609.919	1	-10
610.258	1	6
610.598	1	2
610.937	1	-1
611.277	1	11
611.616	1	-12
611.955	1	8
612.295	1	-7
612.634	1	-1
612.974	1	5
613.313	1	3
613.652	1	-6
613.992	1	-1
614.331	1	-7
614.671	1	2
615.010	1	-10
615.349	1	2
615.689	1	5
616.028	1	-4
616.368	1	-6
616.707	1	-16
617.046	1	4
617.386	1	-4
617.725	1	2
618.064	1	0
618.404	1	7
618.743	1	-1
619.082	1	-2
619.422	1	1
619.761	1	4
620.100	1	11
620.440	1	1
620.779	1	2
621.118	1	-3
621.458	1	6
621.797	1	2
622.136	1	14
622.476	1	0
622.815	1	-10
623.154	1	-3
623.494	1	-1
623.833	1	0
624.172	1	7
624.511	1	-4
624.851	1	-10
625.190	1	4
625.529	1	7
625.869	1	11
626.208	1	-2
626.547	1	0
626.886	1	-5
627.226	1	2
627.565	1	9
627.904	1	4
628.243	1	-13
628.583	1	-7
628.922	1	2
629.261	1	0
629.600	1	0
629.940	1	-1
630.279	1	-6
630.618	1	1
630.957	1	-8
631.297	1	-4
631.636	1	5
631.975	1	4
632.314	1	5
632.653	1	-3
632.993	1	3
633.332	1	-5
633.671	1	12
634.010	1	-4
634.349	1	7
634.689	1	8
635.028	1	4
635.367	1	-7
635.706	1	-8
636.045	1	1
636.384	1	9
636.724	1	-5
637.063	1	3
637.402	1	5
637.741	1	7
638.080	1	5
638.419	1	5
638.759	1	-7
639.098	1	-1
639.437	1	-7
639.776	1	10
640.115	1	0
640.454	1	7
640.793	1	10
641.132	1	6
641.472	1	2
641.811	1	4
642.150	1	7
642.489	1	-1
642.828	1	2
643.167	1	16
643.506	1	-17
643.845	1	7
644.184	1	6
644.524	1	0
644.863	1	-11
645.202	1	5
645.541	1	-4
645.880	1	-5
646.219	1	5
646.558	1	-3
646.897	1	1
647.236	1	9
647.575	1	0
647.914	1	-3
648.253	1	6
648.592	1	8
648.931	1	4
649.270	1	15
649.610	1	5
649.949	1	2
650.288	1	-2
650.627	1	-3
650.966	1	-4
651.305	1	-4
651.644	1	-2
651.983	1	1
652.322	1	7
652.661	1	2
653.000	1	-4
653.339	1	17
653.678	1	-2
654.017	1	-1
654.356	1	5
654.695	1	6
655.034	1	4
655.373	1	1
655.712	1	-6
656.051	1	11
656.390	1	-2
656.729	1	2
657.068	1	-5
657.406	1	6
657.745	1	2
658.084	1	10
658.423	1	-3
658.762	1	-8
659.101	1	-3
659.440	1	3
659.779	1	-5
660.118	1	1
660.457	1	2
660.796	1	-1
661.135	1	-1
661.474	1	-3
661.813	1	4
662.152	1	1
662.491	1	-3
662.829	1	-8
663.168	1	-6
663.507	1	-2
663.846	1	13
664.185	1	-4
664.524	1	-6
664.863	1	2
665.202	1	-8
665.541	1	0
665.879	1	2
666.218	1	-6
666.557	1	-1
666.896	1	-4
667.235	1	-2
667.574	1	8
667.913	1	-8
668.251	1	8
668.590	1	4
668.929	1	2
669.268	1	2
669.607	1	-5
669.946	1	7
670.285	1	4
670.623	1	6
670.962	1	-4
671.301	1	-6
671.640	1	-14
671.979	1	10
672.317	1	2
672.656	1	-5
672.995	1	-6
673.334	1	9
673.673	1	12
674.011	1	7
674.350	1	-7
674.689	1	1
675.028	1	9
675.367	1	-2
675.705	1	-7
676.044	1	-9
676.383	1	-5
676.722	1	0
677.060	1	0
677.399	1	-2
677.738	1	-7
678.077	1	-1
678.416	1	2
678.754	1	-3
679.093	1	2
679.432	1	-9
679.771	1	-5
680.109	1	5
680.448	1	-12
680.787	1	9
681.125	1	7
681.464	1	-2
681.803	1	-6
682.142	1	11
682.480	1	-2
682.819	1	2
683.158	1	-3
683.496	1	-12
683.835	1	12
684.174	1	1
684.512	1	-2
684.851	1	2
685.190	1	8
685.529	1	0
685.867	1	-8
686.206	1	5
686.545	1	9
686.883	1	-3
687.222	1	-8
687.561	1	7
687.899	1	-7
688.238	1	-8
688.577	1	-12
688.746	1	0