File: Analysis/GaN_68K_200ms/GaN_sample E_spot4_UVVIS_68 K_200um_200 ms 2x2mm1_198.txt
340.368	1	3
340.710	1	1
341.052	1	-5
341.394	1	-2
341.737	1	12
342.079	1	0
342.421	1	8
342.763	1	7
343.105	1	13
343.447	1	11
343.789	1	-4
344.131	1	5
344.473	1	3
344.815	1	5
345.157	1	7
345.499	1	14
345.841	1	9
346.183	1	0
346.526	1	4
346.868	1	3
347.210	1	0
347.552	1	3
347.894	1	4
348.236	1	4
348.578	1	9
348.920	1	19
349.262	1	2
349.604	1	12
349.946	1	11
350.288	1	8
350.630	1	-5
350.972	1	7
351.314	1	-6
351.656	1	7
351.998	1	-8
352.340	1	1
352.682	1	8
353.024	1	-1
353.366	1	10
353.708	1	0
354.050	1	6
354.392	1	16
354.734	1	0
355.076	1	4
355.418	1	-5
355.760	1	6
356.102	1	-2
356.444	1	5
356.785	1	18
357.127	1	5
357.469	1	-2
357.811	1	13
358.153	1	4
358.495	1	12
358.837	1	9
359.179	1	6
359.521	1	6
359.863	1	-1
360.205	1	5
360.547	1	10
360.889	1	3
361.231	1	3
361.572	1	5
361.914	1	8
362.256	1	14
362.598	1	13
362.940	1	13
363.282	1	11
363.624	1	14
363.966	1	22
364.308	1	12
364.649	1	13
364.991	1	20
365.333	1	21
365.675	1	9
366.017	1	14
366.359	1	28
366.701	1	17
367.042	1	23
367.384	1	24
367.726	1	33
368.068	1	21
368.410	1	18
368.752	1	10
369.093	1	20
369.435	1	15
369.777	1	9
370.119	1	20
370.461	1	22
370.803	1	20
371.144	1	17
371.486	1	25
371.828	1	14
372.170	1	27
372.512	1	11
372.853	1	17
373.195	1	6
373.537	1	21
373.879	1	15
374.220	1	7
374.562	1	12
374.904	1	20
375.246	1	7
375.588	1	16
375.929	1	9
376.271	1	11
376.613	1	12
376.955	1	6
377.296	1	5
377.638	1	8
377.980	1	12
378.321	1	10
378.663	1	2
379.005	1	11
379.347	1	13
379.688	1	3
380.030	1	3
380.372	1	15
380.714	1	10
381.055	1	17
381.397	1	3
381.739	1	17
382.080	1	7
382.422	1	17
382.764	1	16
383.105	1	13
383.447	1	19
383.789	1	12
384.130	1	4
384.472	1	10
384.814	1	24
385.156	1	29
385.497	1	27
385.839	1	24
386.180	1	26
386.522	1	30
386.864	1	21
387.205	1	16
387.547	1	20
387.889	1	29
388.230	1	26
388.572	1	28
388.914	1	35
389.255	1	17
389.597	1	19
389.939	1	31
390.280	1	23
390.622	1	24
390.963	1	25
391.305	1	27
391.647	1	23
391.988	1	16
392.330	1	21
392.671	1	30
393.013	1	24
393.355	1	30
393.696	1	11
394.038	1	7
394.379	1	9
394.721	1	12
395.062	1	17
395.404	1	29
395.746	1	23
396.087	1	17
396.429	1	18
396.770	1	31
397.112	1	18
397.453	1	7
397.795	1	27
398.136	1	24
398.478	1	22
398.819	1	28
399.161	1	17
399.503	1	17
399.844	1	22
400.186	1	30
400.527	1	22
400.869	1	26
401.210	1	18
401.552	1	27
401.893	1	22
402.235	1	24
402.576	1	27
402.918	1	5
403.259	1	12
403.601	1	7
403.942	1	22
404.284	1	15
404.625	1	17
404.967	1	19
405.308	1	19
405.649	1	8
405.991	1	18
406.332	1	13
406.674	1	17
407.015	1	13
407.357	1	19
407.698	1	4
408.040	1	14
408.381	1	5
408.722	1	8
409.064	1	18
409.405	1	15
409.747	1	12
410.088	1	16
410.430	1	17
410.771	1	13
411.112	1	18
411.454	1	20
411.795	1	21
412.137	1	21
412.478	1	9
412.819	1	7
413.161	1	14
413.502	1	15
413.844	1	19
414.185	1	14
414.526	1	15
414.868	1	31
415.209	1	9
415.550	1	2
415.892	1	11
416.233	1	6
416.575	1	2
416.916	1	13
417.257	1	12
417.599	1	19
417.940	1	10
418.281	1	11
418.623	1	13
418.964	1	20
419.305	1	4
419.647	1	17
419.988	1	9
420.329	1	15
420.671	1	19
421.012	1	18
421.353	1	11
421.695	1	13
422.036	1	14
422.377	1	11
422.718	1	9
423.060	1	10
423.401	1	17
423.742	1	13
424.084	1	15
424.425	1	11
424.766	1	11
425.107	1	15
425.449	1	14
425.790	1	11
426.131	1	8
426.472	1	-1
426.814	1	15
427.155	1	0
427.496	1	16
427.837	1	1
428.179	1	7
428.520	1	2
428.861	1	4
429.202	1	18
429.544	1	8
429.885	1	5
430.226	1	2
430.567	1	10
430.909	1	1
431.250	1	-4
431.591	1	11
431.932	1	12
432.273	1	6
432.615	1	5
432.956	1	-6
433.297	1	10
433.638	1	11
433.979	1	12
434.320	1	6
434.662	1	2
435.003	1	13
435.344	1	8
435.685	1	13
436.026	1	9
436.368	1	-1
436.709	1	-2
437.050	1	11
437.391	1	12
437.732	1	10
438.073	1	16
438.414	1	1
438.756	1	10
439.097	1	10
439.438	1	12
439.779	1	3
440.120	1	3
440.461	1	3
440.802	1	11
441.143	1	12
441.485	1	8
441.826	1	-1
442.167	1	12
442.508	1	18
442.849	1	14
443.190	1	-2
443.531	1	8
443.872	1	10
444.213	1	-5
444.554	1	-1
444.895	1	10
445.237	1	0
445.578	1	21
445.919	1	4
446.260	1	10
446.601	1	1
446.942	1	7
447.283	1	6
447.624	1	19
447.965	1	-2
448.306	1	6
448.647	1	6
448.988	1	-7
449.329	1	10
449.670	1	8
450.011	1	12
450.352	1	10
450.693	1	9
451.034	1	11
451.375	1	13
451.716	1	13
452.057	1	0
452.398	1	10
452.739	1	0
453.080	1	22
453.421	1	11
453.762	1	10
454.103	1	1
454.444	1	10
454.785	1	3
455.126	1	7
455.467	1	8
455.808	1	15
456.149	1	-3
456.490	1	9
456.831	1	15
457.172	1	4
457.513	1	13
457.854	1	6
458.195	1	2
458.536	1	2
458.877	1	5
459.218	1	0
459.559	1	6
459.899	1	10
460.240	1	5
460.581	1	11
460.922	1	12
461.263	1	8
461.604	1	10
461.945	1	5
462.286	1	15
462.627	1	2
462.968	1	-3
463.309	1	4
463.649	1	9
463.990	1	9
464.331	1	7
464.672	1	3
465.013	1	-9
465.354	1	8
465.695	1	9
466.036	1	4
466.376	1	0
466.717	1	-3
467.058	1	4
467.399	1	7
467.740	1	5
468.081	1	6
468.422	1	16
468.762	1	-4
469.103	1	-1
469.444	1	4
469.785	1	7
470.126	1	13
470.467	1	2
470.807	1	6
471.148	1	-2
471.489	1	5
471.830	1	10
472.171	1	4
472.511	1	12
472.852	1	-2
473.193	1	-2
473.534	1	-2
473.875	1	7
474.215	1	1
474.556	1	-8
474.897	1	5
475.238	1	2
475.578	1	3
475.919	1	7
476.260	1	1
476.601	1	0
476.942	1	3
477.282	1	-8
477.623	1	9
477.964	1	15
478.305	1	1
478.645	1	3
478.986	1	6
479.327	1	1
479.667	1	8
480.008	1	10
480.349	1	8
480.690	1	11
481.030	1	3
481.371	1	3
481.712	1	9
482.053	1	15
482.393	1	-7
482.734	1	13
483.075	1	15
483.415	1	11
483.756	1	4
484.097	1	2
484.437	1	4
484.778	1	8
485.119	1	10
485.459	1	11
485.800	1	1
486.141	1	-2
486.481	1	8
486.822	1	9
487.163	1	5
487.503	1	-4
487.844	1	9
488.185	1	-9
488.525	1	9
488.866	1	17
489.207	1	13
489.547	1	8
489.888	1	1
490.228	1	-3
490.569	1	9
490.910	1	2
491.250	1	15
491.591	1	-5
491.932	1	11
492.272	1	18
492.613	1	12
492.953	1	11
493.294	1	14
493.635	1	9
493.975	1	11
494.316	1	15
494.656	1	5
494.997	1	4
495.337	1	5
495.678	1	10
496.019	1	9
496.359	1	10
496.700	1	8
497.040	1	10
497.381	1	-10
497.721	1	11
498.062	1	3
498.403	1	19
498.743	1	7
499.084	1	5
499.424	1	23
499.765	1	4
500.105	1	17
500.446	1	13
500.786	1	2
501.127	1	18
501.467	1	11
501.808	1	-11
502.148	1	7
502.489	1	12
502.829	1	15
503.170	1	18
503.510	1	7
503.851	1	-9
504.191	1	7
504.532	1	6
504.872	1	2
505.213	1	12
505.553	1	5
505.894	1	7
506.234	1	14
506.575	1	8
506.915	1	10
507.256	1	4
507.596	1	10
507.936	1	11
508.277	1	18
508.617	1	24
508.958	1	22
509.298	1	17
509.639	1	8
509.979	1	18
510.319	1	7
510.660	1	21
511.000	1	19
511.341	1	4
511.681	1	16
512.022	1	-4
512.362	1	15
512.702	1	6
513.043	1	18
513.383	1	2
513.724	1	25
514.064	1	12
514.404	1	15
514.745	1	10
515.085	1	12
515.425	1	11
515.766	1	16
516.106	1	18
516.447	1	11
516.787	1	14
517.127	1	17
517.468	1	18
517.808	1	18
518.148	1	14
518.489	1	25
518.829	1	7
519.169	1	17
519.510	1	11
519.850	1	11
520.190	1	11
520.531	1	13
520.871	1	12
521.211	1	17
521.552	1	19
521.892	1	9
522.232	1	6
522.573	1	13
522.913	1	29
523.253	1	16
523.593	1	6
523.934	1	18
524.274	1	11
524.614	1	27
524.955	1	14
525.295	1	8
525.635	1	18
525.975	1	2
526.316	1	15
526.656	1	35
526.996	1	27
527.337	1	13
527.677	1	35
528.017	1	6
528.357	1	18
528.698	1	2
529.038	1	22
529.378	1	22
529.718	1	13
530.058	1	17
530.399	1	24
530.739	1	12
531.079	1	21
531.419	1	25
531.760	1	17
532.100	1	24
532.440	1	9
532.780	1	11
533.120	1	10
533.461	1	30
533.801	1	16
534.141	1	30
534.481	1	14
534.821	1	16
535.162	1	14
535.502	1	14
535.842	1	14
536.182	1	17
536.522	1	16
536.862	1	13
537.203	1	20
537.543	1	17
537.883	1	14
538.223	1	24
538.563	1	20
538.903	1	13
539.243	1	23
539.584	1	18
539.924	1	17
540.264	1	16
540.604	1	19
540.944	1	13
541.284	1	13
541.624	1	17
541.964	1	17
542.305	1	0
542.645	1	4
542.985	1	4
543.325	1	22
543.665	1	22
544.005	1	11
544.345	1	10
544.685	1	15
545.025	1	5
545.365	1	16
545.705	1	20
546.045	1	24
546.386	1	29
546.726	1	10
547.066	1	10
547.406	1	23
547.746	1	22
548.086	1	17
548.426	1	12
548.766	1	16
549.106	1	25
549.446	1	7
549.786	1	18
550.126	1	13
550.466	1	9
550.806	1	26
551.146	1	9
551.486	1	14
551.826	1	17
552.166	1	7
552.506	1	4
552.846	1	7
553.186	1	17
553.526	1	7
553.866	1	23
554.206	1	10
554.546	1	8
554.886	1	15
555.226	1	-1
555.566	1	17
555.906	1	14
556.246	1	8
556.586	1	20
556.926	1	8
557.266	1	19
557.606	1	10
557.946	1	19
558.286	1	18
558.626	1	14
558.966	1	7
559.306	1	7
559.646	1	5
559.986	1	5
560.325	1	4
560.665	1	9
561.005	1	12
561.345	1	16
561.685	1	7
562.025	1	0
562.365	1	9
562.705	1	13
563.045	1	17
563.385	1	7
563.725	1	8
564.064	1	22
564.404	1	6
564.744	1	20
565.084	1	-2
565.424	1	11
565.764	1	15
566.104	1	9
566.444	1	17
566.783	1	10
567.123	1	26
567.463	1	13
567.803	1	1
568.143	1	8
568.483	1	4
568.823	1	20
569.162	1	16
569.502	1	6
569.842	1	2
570.182	1	5
570.522	1	5
570.862	1	16
571.201	1	12
571.541	1	0
571.881	1	14
572.221	1	7
572.561	1	7
572.900	1	28
573.240	1	15
573.580	1	5
573.920	1	2
574.260	1	6
574.599	1	9
574.939	1	11
575.279	1	8
575.619	1	4
575.959	1	-3
576.298	1	10
576.638	1	6
576.978	1	-4
577.318	1	13
577.657	1	-10
577.997	1	6
578.337	1	5
578.677	1	7
579.016	1	21
579.356	1	4
579.696	1	14
580.036	1	8
580.375	1	4
580.715	1	17
581.055	1	17
581.394	1	1
581.734	1	8
582.074	1	1
582.414	1	8
582.753	1	2
583.093	1	8
583.433	1	3
583.772	1	9
584.112	1	3
584.452	1	5
584.791	1	4
585.131	1	3
585.471	1	-4
585.811	1	7
586.150	1	9
586.490	1	-9
586.830	1	1
587.169	1	4
587.509	1	10
587.849	1	23
588.188	1	4
588.528	1	7
588.867	1	10
589.207	1	-2
589.547	1	9
589.886	1	-10
590.226	1	16
590.566	1	9
590.905	1	6
591.245	1	4
591.585	1	7
591.924	1	1
592.264	1	3
592.603	1	-2
592.943	1	5
593.283	1	10
593.622	1	-2
593.962	1	14
594.301	1	11
594.641	1	-1
594.981	1	1
595.320	1	13
595.660	1	7
595.999	1	11
596.339	1	12
596.678	1	5
597.018	1	11
597.358	1	5
597.697	1	3
598.037	1	10
598.376	1	4
598.716	1	-2
599.055	1	5
599.395	1	9
599.734	1	5
600.074	1	-3
600.413	1	4
600.753	1	9
601.092	1	6
601.432	1	-7
601.771	1	5
602.111	1	5
602.451	1	4
602.790	1	1
603.130	1	1
603.469	1	10
603.809	1	7
604.148	1	9
604.487	1	9
604.827	1	8
605.166	1	3
605.506	1	12
605.845	1	6
606.185	1	-2
606.524	1	6
606.864	1	8
607.203	1	11
607.543	1	-3
607.882	1	0
608.222	1	-2
608.561	1	11
608.901	1	7
609.240	1	-1
609.579	1	6
609.919	1	-5
610.258	1	9
610.598	1	5
610.937	1	1
611.277	1	18
611.616	1	-2
611.955	1	16
612.295	1	11
612.634	1	-3
612.974	1	10
613.313	1	-1
613.652	1	0
613.992	1	13
614.331	1	8
614.671	1	6
615.010	1	12
615.349	1	4
615.689	1	4
616.028	1	5
616.368	1	-3
616.707	1	5
617.046	1	11
617.386	1	3
617.725	1	14
618.064	1	7
618.404	1	10
618.743	1	1
619.082	1	6
619.422	1	-4
619.761	1	9
620.100	1	10
620.440	1	4
620.779	1	0
621.118	1	8
621.458	1	8
621.797	1	12
622.136	1	3
622.476	1	7
622.815	1	2
623.154	1	9
623.494	1	10
623.833	1	3
624.172	1	14
624.511	1	-7
624.851	1	-3
625.190	1	8
625.529	1	4
625.869	1	4
626.208	1	1
626.547	1	-2
626.886	1	-3
627.226	1	11
627.565	1	8
627.904	1	7
628.243	1	-1
628.583	1	1
628.922	1	0
629.261	1	9
629.600	1	16
629.940	1	2
630.279	1	-3
630.618	1	1
630.957	1	3
631.297	1	-2
631.636	1	1
631.975	1	5
632.314	1	7
632.653	1	-3
632.993	1	7
633.332	1	9
633.671	1	9
634.010	1	5
634.349	1	9
634.689	1	11
635.028	1	12
635.367	1	1
635.706	1	-6
636.045	1	7
636.384	1	4
636.724	1	16
637.063	1	9
637.402	1	12
637.741	1	9
638.080	1	0
638.419	1	18
638.759	1	9
639.098	1	1
639.437	1	-6
639.776	1	1
640.115	1	-3
640.454	1	15
640.793	1	12
641.132	1	12
641.472	1	1
641.811	1	3
642.150	1	11
642.489	1	-7
642.828	1	7
643.167	1	17
643.506	1	-5
643.845	1	0
644.184	1	11
644.524	1	-8
644.863	1	1
645.202	1	6
645.541	1	-5
645.880	1	5
646.219	1	1
646.558	1	9
646.897	1	4
647.236	1	3
647.575	1	2
647.914	1	4
648.253	1	12
648.592	1	10
648.931	1	10
649.270	1	19
649.610	1	13
649.949	1	-8
650.288	1	5
650.627	1	4
650.966	1	-3
651.305	1	-5
651.644	1	-2
651.983	1	1
652.322	1	14
652.661	1	5
653.000	1	1
653.339	1	10
653.678	1	4
654.017	1	4
654.356	1	6
654.695	1	4
655.034	1	2
655.373	1	3
655.712	1	-8
656.051	1	15
656.390	1	6
656.729	1	12
657.068	1	9
657.406	1	13
657.745	1	-2
658.084	1	13
658.423	1	6
658.762	1	-4
659.101	1	1
659.440	1	11
659.779	1	3
660.118	1	7
660.457	1	0
660.796	1	3
661.135	1	16
661.474	1	9
661.813	1	1
662.152	1	11
662.491	1	-4
662.829	1	-8
663.168	1	3
663.507	1	6
663.846	1	2
664.185	1	-2
664.524	1	-8
664.863	1	5
665.202	1	0
665.541	1	-2
665.879	1	-3
666.218	1	0
666.557	1	3
666.896	1	7
667.235	1	-2
667.574	1	12
667.913	1	5
668.251	1	-1
668.590	1	6
668.929	1	8
669.268	1	4
669.607	1	-9
669.946	1	12
670.285	1	5
670.623	1	4
670.962	1	1
671.301	1	1
671.640	1	-14
671.979	1	13
672.317	1	5
672.656	1	2
672.995	1	6
673.334	1	0
673.673	1	10
674.011	1	11
674.350	1	9
674.689	1	-1
675.028	1	5
675.367	1	10
675.705	1	-5
676.044	1	-3
676.383	1	2
676.722	1	0
677.060	1	5
677.399	1	1
677.738	1	3
678.077	1	10
678.416	1	10
678.754	1	2
679.093	1	1
679.432	1	3
679.771	1	7
680.109	1	8
680.448	1	0
680.787	1	-7
681.125	1	13
681.464	1	0
681.803	1	-9
682.142	1	15
682.480	1	-5
682.819	1	1
683.158	1	7
683.496	1	0
683.835	1	13
684.174	1	8
684.512	1	0
684.851	1	11
685.190	1	10
685.529	1	6
685.867	1	0
686.206	1	3
686.545	1	8
686.883	1	-3
687.222	1	-7
687.561	1	6
687.899	1	3
688.238	1	0
688.577	1	2
688.746	1	2