File: Analysis/GaN_68K_200ms/GaN_sample E_spot4_UVVIS_68 K_200um_200 ms 2x2mm1_720.txt
340.368	1	4
340.710	1	-5
341.052	1	4
341.394	1	1
341.737	1	6
342.079	1	-14
342.421	1	-1
342.763	1	-5
343.105	1	4
343.447	1	8
343.789	1	-5
344.131	1	-10
344.473	1	0
344.815	1	10
345.157	1	5
345.499	1	1
345.841	1	-8
346.183	1	4
346.526	1	4
346.868	1	-1
347.210	1	-7
347.552	1	5
347.894	1	3
348.236	1	1
348.578	1	6
348.920	1	6
349.262	1	-9
349.604	1	12
349.946	1	0
350.288	1	-1
350.630	1	-10
350.972	1	-3
351.314	1	5
351.656	1	8
351.998	1	-3
352.340	1	-6
352.682	1	2
353.024	1	-9
353.366	1	5
353.708	1	1
354.050	1	4
354.392	1	7
354.734	1	-7
355.076	1	2
355.418	1	-8
355.760	1	-4
356.102	1	-4
356.444	1	-2
356.785	1	10
357.127	1	6
357.469	1	-2
357.811	1	8
358.153	1	1
358.495	1	6
358.837	1	-1
359.179	1	1
359.521	1	-2
359.863	1	-6
360.205	1	0
360.547	1	5
360.889	1	0
361.231	1	2
361.572	1	-11
361.914	1	0
362.256	1	10
362.598	1	-3
362.940	1	2
363.282	1	5
363.624	1	2
363.966	1	3
364.308	1	-10
364.649	1	-5
364.991	1	-1
365.333	1	10
365.675	1	-2
366.017	1	2
366.359	1	1
366.701	1	-7
367.042	1	14
367.384	1	3
367.726	1	14
368.068	1	-3
368.410	1	-6
368.752	1	-6
369.093	1	-5
369.435	1	-7
369.777	1	0
370.119	1	5
370.461	1	-4
370.803	1	-4
371.144	1	14
371.486	1	5
371.828	1	4
372.170	1	8
372.512	1	-8
372.853	1	-2
373.195	1	-10
373.537	1	-3
373.879	1	10
374.220	1	0
374.562	1	5
374.904	1	-2
375.246	1	-6
375.588	1	-2
375.929	1	4
376.271	1	2
376.613	1	1
376.955	1	-8
377.296	1	8
377.638	1	4
377.980	1	7
378.321	1	-5
378.663	1	-4
379.005	1	-6
379.347	1	8
379.688	1	2
380.030	1	-10
380.372	1	1
380.714	1	1
381.055	1	3
381.397	1	-4
381.739	1	4
382.080	1	-14
382.422	1	5
382.764	1	-1
383.105	1	-1
383.447	1	4
383.789	1	6
384.130	1	-6
384.472	1	-3
384.814	1	-2
385.156	1	6
385.497	1	3
385.839	1	3
386.180	1	0
386.522	1	6
386.864	1	6
387.205	1	4
387.547	1	9
387.889	1	9
388.230	1	5
388.572	1	-7
388.914	1	9
389.255	1	0
389.597	1	-5
389.939	1	11
390.280	1	3
390.622	1	-1
390.963	1	-3
391.305	1	8
391.647	1	2
391.988	1	-10
392.330	1	4
392.671	1	8
393.013	1	1
393.355	1	8
393.696	1	-1
394.038	1	-6
394.379	1	-1
394.721	1	-1
395.062	1	-7
395.404	1	8
395.746	1	-1
396.087	1	-2
396.429	1	14
396.770	1	2
397.112	1	-4
397.453	1	-7
397.795	1	7
398.136	1	4
398.478	1	4
398.819	1	2
399.161	1	4
399.503	1	-2
399.844	1	5
400.186	1	11
400.527	1	-2
400.869	1	2
401.210	1	-5
401.552	1	13
401.893	1	0
402.235	1	7
402.576	1	9
402.918	1	-7
403.259	1	-8
403.601	1	-5
403.942	1	4
404.284	1	-6
404.625	1	7
404.967	1	0
405.308	1	5
405.649	1	6
405.991	1	1
406.332	1	-10
406.674	1	-3
407.015	1	-9
407.357	1	7
407.698	1	5
408.040	1	0
408.381	1	-8
408.722	1	-6
409.064	1	-5
409.405	1	0
409.747	1	0
410.088	1	6
410.430	1	-1
410.771	1	3
411.112	1	2
411.454	1	11
411.795	1	8
412.137	1	10
412.478	1	7
412.819	1	-2
413.161	1	-4
413.502	1	-5
413.844	1	0
414.185	1	1
414.526	1	2
414.868	1	8
415.209	1	-5
415.550	1	-7
415.892	1	-6
416.233	1	4
416.575	1	-2
416.916	1	-3
417.257	1	8
417.599	1	-1
417.940	1	2
418.281	1	-2
418.623	1	2
418.964	1	4
419.305	1	-3
419.647	1	1
419.988	1	2
420.329	1	-3
420.671	1	1
421.012	1	15
421.353	1	8
421.695	1	-2
422.036	1	0
422.377	1	1
422.718	1	-4
423.060	1	1
423.401	1	6
423.742	1	0
424.084	1	6
424.425	1	-5
424.766	1	-2
425.107	1	1
425.449	1	7
425.790	1	-3
426.131	1	4
426.472	1	-4
426.814	1	10
427.155	1	4
427.496	1	5
427.837	1	-5
428.179	1	-14
428.520	1	-7
428.861	1	-7
429.202	1	3
429.544	1	-4
429.885	1	-8
430.226	1	-8
430.567	1	11
430.909	1	-10
431.250	1	-15
431.591	1	3
431.932	1	1
432.273	1	-13
432.615	1	0
432.956	1	-10
433.297	1	11
433.638	1	-2
433.979	1	6
434.320	1	5
434.662	1	-2
435.003	1	5
435.344	1	4
435.685	1	3
436.026	1	-1
436.368	1	-1
436.709	1	-1
437.050	1	-2
437.391	1	4
437.732	1	-2
438.073	1	2
438.414	1	1
438.756	1	4
439.097	1	1
439.438	1	2
439.779	1	5
440.120	1	-1
440.461	1	-6
440.802	1	13
441.143	1	6
441.485	1	-1
441.826	1	-11
442.167	1	-1
442.508	1	6
442.849	1	2
443.190	1	-2
443.531	1	-4
443.872	1	2
444.213	1	-9
444.554	1	-7
444.895	1	-9
445.237	1	-11
445.578	1	7
445.919	1	-7
446.260	1	9
446.601	1	-10
446.942	1	4
447.283	1	-7
447.624	1	5
447.965	1	-1
448.306	1	0
448.647	1	4
448.988	1	-10
449.329	1	3
449.670	1	10
450.011	1	7
450.352	1	7
450.693	1	-5
451.034	1	6
451.375	1	12
451.716	1	9
452.057	1	10
452.398	1	3
452.739	1	-6
453.080	1	4
453.421	1	-6
453.762	1	12
454.103	1	1
454.444	1	6
454.785	1	-8
455.126	1	2
455.467	1	13
455.808	1	9
456.149	1	-6
456.490	1	0
456.831	1	9
457.172	1	7
457.513	1	5
457.854	1	1
458.195	1	-9
458.536	1	2
458.877	1	-6
459.218	1	11
459.559	1	4
459.899	1	-1
460.240	1	1
460.581	1	14
460.922	1	8
461.263	1	1
461.604	1	-2
461.945	1	7
462.286	1	7
462.627	1	0
462.968	1	-9
463.309	1	-2
463.649	1	0
463.990	1	-3
464.331	1	-1
464.672	1	2
465.013	1	0
465.354	1	9
465.695	1	5
466.036	1	3
466.376	1	-2
466.717	1	-5
467.058	1	3
467.399	1	6
467.740	1	-5
468.081	1	3
468.422	1	12
468.762	1	-7
469.103	1	-4
469.444	1	2
469.785	1	-9
470.126	1	5
470.467	1	-10
470.807	1	0
471.148	1	-5
471.489	1	-6
471.830	1	10
472.171	1	-4
472.511	1	8
472.852	1	-1
473.193	1	-6
473.534	1	-4
473.875	1	9
474.215	1	2
474.556	1	-14
474.897	1	5
475.238	1	-5
475.578	1	1
475.919	1	-4
476.260	1	5
476.601	1	-2
476.942	1	-3
477.282	1	-7
477.623	1	-1
477.964	1	-1
478.305	1	6
478.645	1	-4
478.986	1	-11
479.327	1	1
479.667	1	2
480.008	1	-4
480.349	1	-10
480.690	1	4
481.030	1	2
481.371	1	4
481.712	1	-4
482.053	1	8
482.393	1	-8
482.734	1	6
483.075	1	9
483.415	1	6
483.756	1	0
484.097	1	1
484.437	1	-8
484.778	1	3
485.119	1	-1
485.459	1	1
485.800	1	-5
486.141	1	-13
486.481	1	1
486.822	1	-2
487.163	1	-1
487.503	1	-16
487.844	1	2
488.185	1	0
488.525	1	-4
488.866	1	10
489.207	1	-3
489.547	1	-5
489.888	1	-1
490.228	1	-6
490.569	1	8
490.910	1	-3
491.250	1	-3
491.591	1	-1
491.932	1	12
492.272	1	-2
492.613	1	6
492.953	1	-2
493.294	1	5
493.635	1	1
493.975	1	-2
494.316	1	11
494.656	1	-2
494.997	1	-1
495.337	1	1
495.678	1	6
496.019	1	0
496.359	1	-7
496.700	1	-1
497.040	1	-2
497.381	1	-23
497.721	1	0
498.062	1	1
498.403	1	4
498.743	1	1
499.084	1	-9
499.424	1	7
499.765	1	3
500.105	1	1
500.446	1	8
500.786	1	8
501.127	1	5
501.467	1	9
501.808	1	-9
502.148	1	2
502.489	1	3
502.829	1	2
503.170	1	1
503.510	1	-11
503.851	1	-14
504.191	1	0
504.532	1	-8
504.872	1	-6
505.213	1	0
505.553	1	5
505.894	1	0
506.234	1	1
506.575	1	-3
506.915	1	-3
507.256	1	1
507.596	1	-2
507.936	1	1
508.277	1	6
508.617	1	4
508.958	1	10
509.298	1	6
509.639	1	-4
509.979	1	0
510.319	1	-8
510.660	1	11
511.000	1	6
511.341	1	-1
511.681	1	2
512.022	1	-15
512.362	1	-8
512.702	1	-9
513.043	1	3
513.383	1	-5
513.724	1	10
514.064	1	9
514.404	1	2
514.745	1	0
515.085	1	-1
515.425	1	1
515.766	1	3
516.106	1	-7
516.447	1	2
516.787	1	-9
517.127	1	1
517.468	1	-9
517.808	1	0
518.148	1	-2
518.489	1	1
518.829	1	-15
519.169	1	7
519.510	1	-7
519.850	1	-3
520.190	1	2
520.531	1	2
520.871	1	-14
521.211	1	11
521.552	1	-5
521.892	1	-12
522.232	1	-4
522.573	1	0
522.913	1	7
523.253	1	4
523.593	1	-15
523.934	1	-6
524.274	1	-5
524.614	1	-5
524.955	1	-4
525.295	1	-8
525.635	1	6
525.975	1	-4
526.316	1	-4
526.656	1	17
526.996	1	7
527.337	1	3
527.677	1	12
528.017	1	-11
528.357	1	5
528.698	1	-6
529.038	1	5
529.378	1	-6
529.718	1	2
530.058	1	1
530.399	1	6
530.739	1	-3
531.079	1	7
531.419	1	1
531.760	1	5
532.100	1	2
532.440	1	-9
532.780	1	-1
533.120	1	-8
533.461	1	6
533.801	1	6
534.141	1	5
534.481	1	9
534.821	1	7
535.162	1	1
535.502	1	8
535.842	1	1
536.182	1	-2
536.522	1	2
536.862	1	5
537.203	1	6
537.543	1	3
537.883	1	3
538.223	1	-5
538.563	1	-9
538.903	1	-2
539.243	1	2
539.584	1	3
539.924	1	1
540.264	1	0
540.604	1	9
540.944	1	-1
541.284	1	-13
541.624	1	-3
541.964	1	-1
542.305	1	-11
542.645	1	-5
542.985	1	4
543.325	1	2
543.665	1	6
544.005	1	2
544.345	1	-1
544.685	1	9
545.025	1	-6
545.365	1	5
545.705	1	-3
546.045	1	9
546.386	1	-2
546.726	1	-5
547.066	1	-1
547.406	1	7
547.746	1	4
548.086	1	12
548.426	1	-5
548.766	1	6
549.106	1	12
549.446	1	-2
549.786	1	-5
550.126	1	-9
550.466	1	-5
550.806	1	6
551.146	1	-2
551.486	1	-1
551.826	1	6
552.166	1	1
552.506	1	-5
552.846	1	0
553.186	1	-3
553.526	1	-10
553.866	1	-2
554.206	1	4
554.546	1	-14
554.886	1	6
555.226	1	-9
555.566	1	10
555.906	1	4
556.246	1	7
556.586	1	3
556.926	1	1
557.266	1	4
557.606	1	-9
557.946	1	6
558.286	1	-1
558.626	1	10
558.966	1	1
559.306	1	-3
559.646	1	-1
559.986	1	-10
560.325	1	-15
560.665	1	3
561.005	1	-1
561.345	1	3
561.685	1	-6
562.025	1	-9
562.365	1	3
562.705	1	6
563.045	1	2
563.385	1	-4
563.725	1	0
564.064	1	10
564.404	1	-9
564.744	1	-2
565.084	1	-17
565.424	1	-9
565.764	1	3
566.104	1	-3
566.444	1	7
566.783	1	3
567.123	1	5
567.463	1	-3
567.803	1	-5
568.143	1	-6
568.483	1	-4
568.823	1	3
569.162	1	-2
569.502	1	4
569.842	1	-13
570.182	1	-1
570.522	1	0
570.862	1	1
571.201	1	-2
571.541	1	-9
571.881	1	5
572.221	1	2
572.561	1	-4
572.900	1	8
573.240	1	0
573.580	1	0
573.920	1	6
574.260	1	-5
574.599	1	0
574.939	1	-9
575.279	1	-4
575.619	1	4
575.959	1	-9
576.298	1	-13
576.638	1	-5
576.978	1	-8
577.318	1	5
577.657	1	-21
577.997	1	-13
578.337	1	-3
578.677	1	-4
579.016	1	7
579.356	1	-5
579.696	1	7
580.036	1	-1
580.375	1	3
580.715	1	-4
581.055	1	-2
581.394	1	0
581.734	1	10
582.074	1	-8
582.414	1	-5
582.753	1	8
583.093	1	-7
583.433	1	-7
583.772	1	-5
584.112	1	-3
584.452	1	-5
584.791	1	-6
585.131	1	-5
585.471	1	3
585.811	1	-4
586.150	1	-3
586.490	1	-5
586.830	1	-7
587.169	1	-1
587.509	1	9
587.849	1	7
588.188	1	3
588.528	1	1
588.867	1	6
589.207	1	-14
589.547	1	1
589.886	1	-14
590.226	1	3
590.566	1	-5
590.905	1	7
591.245	1	2
591.585	1	-9
591.924	1	-1
592.264	1	2
592.603	1	-2
592.943	1	-7
593.283	1	-1
593.622	1	2
593.962	1	-1
594.301	1	11
594.641	1	-8
594.981	1	5
595.320	1	2
595.660	1	-1
595.999	1	0
596.339	1	8
596.678	1	-3
597.018	1	0
597.358	1	0
597.697	1	-10
598.037	1	9
598.376	1	1
598.716	1	-5
599.055	1	-8
599.395	1	8
599.734	1	5
600.074	1	1
600.413	1	-3
600.753	1	-2
601.092	1	-6
601.432	1	-7
601.771	1	4
602.111	1	-9
602.451	1	-1
602.790	1	1
603.130	1	6
603.469	1	-2
603.809	1	11
604.148	1	-4
604.487	1	4
604.827	1	-19
605.166	1	-14
605.506	1	0
605.845	1	-4
606.185	1	-4
606.524	1	-5
606.864	1	3
607.203	1	12
607.543	1	-7
607.882	1	-6
608.222	1	1
608.561	1	0
608.901	1	10
609.240	1	6
609.579	1	11
609.919	1	-11
610.258	1	0
610.598	1	-2
610.937	1	-1
611.277	1	1
611.616	1	-7
611.955	1	6
612.295	1	1
612.634	1	-11
612.974	1	-1
613.313	1	4
613.652	1	-5
613.992	1	-2
614.331	1	0
614.671	1	1
615.010	1	3
615.349	1	-4
615.689	1	-2
616.028	1	-1
616.368	1	-3
616.707	1	0
617.046	1	-2
617.386	1	4
617.725	1	3
618.064	1	8
618.404	1	7
618.743	1	2
619.082	1	3
619.422	1	-4
619.761	1	-1
620.100	1	-2
620.440	1	-2
620.779	1	0
621.118	1	-1
621.458	1	-4
621.797	1	7
622.136	1	2
622.476	1	-4
622.815	1	-9
623.154	1	-6
623.494	1	0
623.833	1	-5
624.172	1	9
624.511	1	-2
624.851	1	-12
625.190	1	7
625.529	1	0
625.869	1	2
626.208	1	-6
626.547	1	8
626.886	1	-9
627.226	1	3
627.565	1	15
627.904	1	0
628.243	1	-6
628.583	1	-4
628.922	1	-3
629.261	1	8
629.600	1	3
629.940	1	-10
630.279	1	-5
630.618	1	2
630.957	1	-7
631.297	1	-4
631.636	1	-3
631.975	1	5
632.314	1	-1
632.653	1	-11
632.993	1	7
633.332	1	4
633.671	1	4
634.010	1	-2
634.349	1	-1
634.689	1	5
635.028	1	-3
635.367	1	-1
635.706	1	-2
636.045	1	2
636.384	1	5
636.724	1	-1
637.063	1	-3
637.402	1	11
637.741	1	6
638.080	1	3
638.419	1	4
638.759	1	3
639.098	1	8
639.437	1	-3
639.776	1	-1
640.115	1	-1
640.454	1	11
640.793	1	6
641.132	1	7
641.472	1	-5
641.811	1	-4
642.150	1	3
642.489	1	-3
642.828	1	6
643.167	1	11
643.506	1	2
643.845	1	2
644.184	1	3
644.524	1	-10
644.863	1	-11
645.202	1	-2
645.541	1	-9
645.880	1	5
646.219	1	-7
646.558	1	-2
646.897	1	-2
647.236	1	4
647.575	1	-3
647.914	1	4
648.253	1	5
648.592	1	-2
648.931	1	9
649.270	1	2
649.610	1	18
649.949	1	-1
650.288	1	-2
650.627	1	-4
650.966	1	-1
651.305	1	-1
651.644	1	-5
651.983	1	-3
652.322	1	2
652.661	1	13
653.000	1	-2
653.339	1	4
653.678	1	4
654.017	1	7
654.356	1	-3
654.695	1	6
655.034	1	4
655.373	1	-1
655.712	1	-5
656.051	1	3
656.390	1	-2
656.729	1	-2
657.068	1	-10
657.406	1	8
657.745	1	-6
658.084	1	2
658.423	1	-6
658.762	1	-6
659.101	1	-6
659.440	1	7
659.779	1	0
660.118	1	5
660.457	1	-6
660.796	1	5
661.135	1	1
661.474	1	2
661.813	1	1
662.152	1	-4
662.491	1	-9
662.829	1	-2
663.168	1	0
663.507	1	2
663.846	1	4
664.185	1	2
664.524	1	-11
664.863	1	10
665.202	1	-2
665.541	1	-12
665.879	1	0
666.218	1	-11
666.557	1	8
666.896	1	-1
667.235	1	-2
667.574	1	3
667.913	1	1
668.251	1	0
668.590	1	-5
668.929	1	1
669.268	1	-4
669.607	1	-7
669.946	1	10
670.285	1	7
670.623	1	-1
670.962	1	-1
671.301	1	-7
671.640	1	-14
671.979	1	7
672.317	1	0
672.656	1	-1
672.995	1	2
673.334	1	3
673.673	1	8
674.011	1	-1
674.350	1	-5
674.689	1	-1
675.028	1	2
675.367	1	3
675.705	1	-10
676.044	1	-3
676.383	1	-2
676.722	1	4
677.060	1	4
677.399	1	-4
677.738	1	0
678.077	1	-3
678.416	1	2
678.754	1	-17
679.093	1	2
679.432	1	-9
679.771	1	-3
680.109	1	10
680.448	1	4
680.787	1	12
681.125	1	0
681.464	1	-1
681.803	1	-15
682.142	1	11
682.480	1	3
682.819	1	0
683.158	1	4
683.496	1	-10
683.835	1	-3
684.174	1	-6
684.512	1	-1
684.851	1	-11
685.190	1	-1
685.529	1	2
685.867	1	3
686.206	1	3
686.545	1	4
686.883	1	-13
687.222	1	5
687.561	1	6
687.899	1	-8
688.238	1	2
688.577	1	-9
688.746	1	-10