File: Analysis/GaN_68K_200ms/GaN_sample E_spot4_UVVIS_68 K_200um_200 ms 2x2mm1_232.txt
340.368	1	4
340.710	1	-2
341.052	1	4
341.394	1	-3
341.737	1	3
342.079	1	1
342.421	1	-5
342.763	1	-2
343.105	1	7
343.447	1	9
343.789	1	2
344.131	1	1
344.473	1	4
344.815	1	11
345.157	1	3
345.499	1	7
345.841	1	3
346.183	1	2
346.526	1	5
346.868	1	5
347.210	1	-1
347.552	1	3
347.894	1	3
348.236	1	1
348.578	1	7
348.920	1	12
349.262	1	-1
349.604	1	15
349.946	1	10
350.288	1	6
350.630	1	-10
350.972	1	-8
351.314	1	5
351.656	1	8
351.998	1	3
352.340	1	1
352.682	1	-5
353.024	1	-5
353.366	1	8
353.708	1	11
354.050	1	12
354.392	1	11
354.734	1	3
355.076	1	11
355.418	1	3
355.760	1	12
356.102	1	-2
356.444	1	7
356.785	1	19
357.127	1	12
357.469	1	2
357.811	1	22
358.153	1	6
358.495	1	15
358.837	1	8
359.179	1	7
359.521	1	13
359.863	1	-4
360.205	1	3
360.547	1	9
360.889	1	11
361.231	1	8
361.572	1	4
361.914	1	5
362.256	1	13
362.598	1	11
362.940	1	6
363.282	1	1
363.624	1	21
363.966	1	7
364.308	1	10
364.649	1	13
364.991	1	25
365.333	1	17
365.675	1	9
366.017	1	15
366.359	1	11
366.701	1	10
367.042	1	25
367.384	1	15
367.726	1	26
368.068	1	11
368.410	1	15
368.752	1	0
369.093	1	7
369.435	1	13
369.777	1	6
370.119	1	16
370.461	1	15
370.803	1	3
371.144	1	17
371.486	1	16
371.828	1	5
372.170	1	21
372.512	1	5
372.853	1	14
373.195	1	2
373.537	1	15
373.879	1	14
374.220	1	9
374.562	1	4
374.904	1	5
375.246	1	16
375.588	1	1
375.929	1	3
376.271	1	1
376.613	1	13
376.955	1	-5
377.296	1	11
377.638	1	9
377.980	1	4
378.321	1	10
378.663	1	12
379.005	1	16
379.347	1	16
379.688	1	1
380.030	1	4
380.372	1	6
380.714	1	9
381.055	1	10
381.397	1	4
381.739	1	12
382.080	1	-3
382.422	1	16
382.764	1	13
383.105	1	12
383.447	1	14
383.789	1	20
384.130	1	12
384.472	1	0
384.814	1	7
385.156	1	17
385.497	1	26
385.839	1	15
386.180	1	16
386.522	1	26
386.864	1	9
387.205	1	14
387.547	1	7
387.889	1	25
388.230	1	10
388.572	1	11
388.914	1	21
389.255	1	16
389.597	1	8
389.939	1	29
390.280	1	22
390.622	1	11
390.963	1	23
391.305	1	7
391.647	1	17
391.988	1	8
392.330	1	20
392.671	1	19
393.013	1	33
393.355	1	15
393.696	1	16
394.038	1	19
394.379	1	-5
394.721	1	24
395.062	1	2
395.404	1	21
395.746	1	14
396.087	1	16
396.429	1	12
396.770	1	12
397.112	1	12
397.453	1	8
397.795	1	17
398.136	1	23
398.478	1	22
398.819	1	18
399.161	1	17
399.503	1	19
399.844	1	22
400.186	1	15
400.527	1	15
400.869	1	22
401.210	1	14
401.552	1	31
401.893	1	17
402.235	1	20
402.576	1	22
402.918	1	6
403.259	1	13
403.601	1	-1
403.942	1	10
404.284	1	4
404.625	1	14
404.967	1	13
405.308	1	5
405.649	1	10
405.991	1	15
406.332	1	-1
406.674	1	20
407.015	1	8
407.357	1	16
407.698	1	-1
408.040	1	2
408.381	1	6
408.722	1	-3
409.064	1	8
409.405	1	14
409.747	1	-4
410.088	1	13
410.430	1	10
410.771	1	17
411.112	1	15
411.454	1	28
411.795	1	8
412.137	1	8
412.478	1	11
412.819	1	14
413.161	1	6
413.502	1	8
413.844	1	3
414.185	1	5
414.526	1	8
414.868	1	15
415.209	1	1
415.550	1	8
415.892	1	3
416.233	1	12
416.575	1	8
416.916	1	4
417.257	1	18
417.599	1	11
417.940	1	10
418.281	1	17
418.623	1	6
418.964	1	8
419.305	1	9
419.647	1	19
419.988	1	3
420.329	1	14
420.671	1	12
421.012	1	8
421.353	1	14
421.695	1	3
422.036	1	3
422.377	1	21
422.718	1	13
423.060	1	5
423.401	1	9
423.742	1	3
424.084	1	13
424.425	1	8
424.766	1	20
425.107	1	9
425.449	1	16
425.790	1	2
426.131	1	11
426.472	1	5
426.814	1	12
427.155	1	1
427.496	1	9
427.837	1	-5
428.179	1	3
428.520	1	4
428.861	1	20
429.202	1	13
429.544	1	10
429.885	1	9
430.226	1	10
430.567	1	14
430.909	1	1
431.250	1	0
431.591	1	11
431.932	1	12
432.273	1	2
432.615	1	2
432.956	1	3
433.297	1	14
433.638	1	0
433.979	1	6
434.320	1	10
434.662	1	0
435.003	1	11
435.344	1	9
435.685	1	9
436.026	1	4
436.368	1	7
436.709	1	1
437.050	1	11
437.391	1	7
437.732	1	7
438.073	1	7
438.414	1	2
438.756	1	8
439.097	1	9
439.438	1	19
439.779	1	-4
440.120	1	10
440.461	1	8
440.802	1	13
441.143	1	10
441.485	1	7
441.826	1	1
442.167	1	6
442.508	1	-1
442.849	1	5
443.190	1	-2
443.531	1	3
443.872	1	4
444.213	1	1
444.554	1	3
444.895	1	4
445.237	1	4
445.578	1	12
445.919	1	2
446.260	1	1
446.601	1	-6
446.942	1	16
447.283	1	0
447.624	1	12
447.965	1	0
448.306	1	11
448.647	1	7
448.988	1	-7
449.329	1	5
449.670	1	7
450.011	1	6
450.352	1	10
450.693	1	5
451.034	1	6
451.375	1	11
451.716	1	1
452.057	1	5
452.398	1	5
452.739	1	11
453.080	1	11
453.421	1	4
453.762	1	9
454.103	1	4
454.444	1	1
454.785	1	3
455.126	1	8
455.467	1	13
455.808	1	0
456.149	1	-2
456.490	1	4
456.831	1	11
457.172	1	3
457.513	1	11
457.854	1	10
458.195	1	-6
458.536	1	6
458.877	1	6
459.218	1	2
459.559	1	3
459.899	1	21
460.240	1	13
460.581	1	10
460.922	1	7
461.263	1	3
461.604	1	3
461.945	1	12
462.286	1	15
462.627	1	9
462.968	1	-4
463.309	1	0
463.649	1	11
463.990	1	6
464.331	1	6
464.672	1	-2
465.013	1	-1
465.354	1	10
465.695	1	20
466.036	1	3
466.376	1	8
466.717	1	10
467.058	1	18
467.399	1	10
467.740	1	2
468.081	1	14
468.422	1	8
468.762	1	-6
469.103	1	0
469.444	1	3
469.785	1	3
470.126	1	2
470.467	1	5
470.807	1	-2
471.148	1	1
471.489	1	4
471.830	1	15
472.171	1	9
472.511	1	7
472.852	1	-3
473.193	1	-5
473.534	1	1
473.875	1	9
474.215	1	1
474.556	1	-2
474.897	1	2
475.238	1	0
475.578	1	-3
475.919	1	2
476.260	1	-3
476.601	1	13
476.942	1	13
477.282	1	-7
477.623	1	7
477.964	1	9
478.305	1	7
478.645	1	3
478.986	1	2
479.327	1	-7
479.667	1	1
480.008	1	9
480.349	1	2
480.690	1	-4
481.030	1	3
481.371	1	0
481.712	1	10
482.053	1	14
482.393	1	-3
482.734	1	8
483.075	1	6
483.415	1	6
483.756	1	17
484.097	1	-6
484.437	1	-9
484.778	1	11
485.119	1	8
485.459	1	2
485.800	1	-4
486.141	1	0
486.481	1	5
486.822	1	2
487.163	1	-8
487.503	1	-10
487.844	1	5
488.185	1	-1
488.525	1	-3
488.866	1	14
489.207	1	14
489.547	1	0
489.888	1	2
490.228	1	0
490.569	1	15
490.910	1	-7
491.250	1	14
491.591	1	-6
491.932	1	12
492.272	1	11
492.613	1	12
492.953	1	9
493.294	1	12
493.635	1	-1
493.975	1	9
494.316	1	15
494.656	1	3
494.997	1	-3
495.337	1	10
495.678	1	19
496.019	1	5
496.359	1	9
496.700	1	9
497.040	1	7
497.381	1	-19
497.721	1	-3
498.062	1	4
498.403	1	9
498.743	1	6
499.084	1	2
499.424	1	3
499.765	1	1
500.105	1	13
500.446	1	14
500.786	1	12
501.127	1	20
501.467	1	1
501.808	1	-6
502.148	1	10
502.489	1	15
502.829	1	8
503.170	1	10
503.510	1	6
503.851	1	-12
504.191	1	9
504.532	1	2
504.872	1	-1
505.213	1	1
505.553	1	13
505.894	1	4
506.234	1	9
506.575	1	6
506.915	1	7
507.256	1	-4
507.596	1	19
507.936	1	12
508.277	1	4
508.617	1	15
508.958	1	16
509.298	1	19
509.639	1	14
509.979	1	18
510.319	1	4
510.660	1	13
511.000	1	11
511.341	1	2
511.681	1	12
512.022	1	5
512.362	1	9
512.702	1	-1
513.043	1	7
513.383	1	1
513.724	1	13
514.064	1	6
514.404	1	5
514.745	1	9
515.085	1	7
515.425	1	6
515.766	1	11
516.106	1	6
516.447	1	10
516.787	1	6
517.127	1	5
517.468	1	8
517.808	1	9
518.148	1	8
518.489	1	9
518.829	1	5
519.169	1	17
519.510	1	16
519.850	1	-3
520.190	1	8
520.531	1	15
520.871	1	18
521.211	1	11
521.552	1	14
521.892	1	3
522.232	1	3
522.573	1	25
522.913	1	9
523.253	1	10
523.593	1	-4
523.934	1	11
524.274	1	7
524.614	1	14
524.955	1	7
525.295	1	2
525.635	1	23
525.975	1	10
526.316	1	13
526.656	1	24
526.996	1	16
527.337	1	15
527.677	1	19
528.017	1	7
528.357	1	21
528.698	1	3
529.038	1	10
529.378	1	10
529.718	1	11
530.058	1	5
530.399	1	28
530.739	1	9
531.079	1	23
531.419	1	14
531.760	1	23
532.100	1	13
532.440	1	0
532.780	1	19
533.120	1	8
533.461	1	21
533.801	1	3
534.141	1	12
534.481	1	16
534.821	1	22
535.162	1	13
535.502	1	11
535.842	1	5
536.182	1	14
536.522	1	17
536.862	1	19
537.203	1	11
537.543	1	12
537.883	1	11
538.223	1	22
538.563	1	13
538.903	1	13
539.243	1	5
539.584	1	10
539.924	1	15
540.264	1	12
540.604	1	10
540.944	1	7
541.284	1	7
541.624	1	12
541.964	1	11
542.305	1	3
542.645	1	5
542.985	1	5
543.325	1	11
543.665	1	14
544.005	1	6
544.345	1	5
544.685	1	17
545.025	1	-1
545.365	1	16
545.705	1	6
546.045	1	17
546.386	1	17
546.726	1	4
547.066	1	-2
547.406	1	20
547.746	1	19
548.086	1	4
548.426	1	6
548.766	1	8
549.106	1	15
549.446	1	6
549.786	1	11
550.126	1	8
550.466	1	14
550.806	1	16
551.146	1	3
551.486	1	10
551.826	1	12
552.166	1	4
552.506	1	5
552.846	1	13
553.186	1	8
553.526	1	11
553.866	1	18
554.206	1	14
554.546	1	9
554.886	1	10
555.226	1	3
555.566	1	15
555.906	1	12
556.246	1	8
556.586	1	12
556.926	1	7
557.266	1	15
557.606	1	4
557.946	1	17
558.286	1	15
558.626	1	11
558.966	1	0
559.306	1	1
559.646	1	10
559.986	1	10
560.325	1	4
560.665	1	17
561.005	1	12
561.345	1	2
561.685	1	3
562.025	1	9
562.365	1	9
562.705	1	13
563.045	1	13
563.385	1	0
563.725	1	8
564.064	1	16
564.404	1	6
564.744	1	11
565.084	1	-5
565.424	1	9
565.764	1	10
566.104	1	9
566.444	1	5
566.783	1	6
567.123	1	27
567.463	1	13
567.803	1	-2
568.143	1	-1
568.483	1	3
568.823	1	6
569.162	1	20
569.502	1	3
569.842	1	3
570.182	1	0
570.522	1	9
570.862	1	13
571.201	1	8
571.541	1	-3
571.881	1	11
572.221	1	6
572.561	1	1
572.900	1	15
573.240	1	-2
573.580	1	11
573.920	1	11
574.260	1	7
574.599	1	14
574.939	1	12
575.279	1	8
575.619	1	4
575.959	1	-2
576.298	1	1
576.638	1	9
576.978	1	7
577.318	1	9
577.657	1	-6
577.997	1	0
578.337	1	9
578.677	1	6
579.016	1	22
579.356	1	2
579.696	1	10
580.036	1	6
580.375	1	2
580.715	1	10
581.055	1	9
581.394	1	1
581.734	1	11
582.074	1	2
582.414	1	6
582.753	1	14
583.093	1	5
583.433	1	-9
583.772	1	7
584.112	1	10
584.452	1	10
584.791	1	5
585.131	1	-12
585.471	1	-1
585.811	1	5
586.150	1	4
586.490	1	4
586.830	1	-6
587.169	1	2
587.509	1	10
587.849	1	7
588.188	1	0
588.528	1	10
588.867	1	-3
589.207	1	-1
589.547	1	-8
589.886	1	-1
590.226	1	9
590.566	1	2
590.905	1	7
591.245	1	0
591.585	1	1
591.924	1	3
592.264	1	7
592.603	1	-9
592.943	1	3
593.283	1	2
593.622	1	11
593.962	1	6
594.301	1	10
594.641	1	3
594.981	1	-2
595.320	1	8
595.660	1	0
595.999	1	1
596.339	1	2
596.678	1	14
597.018	1	7
597.358	1	8
597.697	1	-6
598.037	1	1
598.376	1	17
598.716	1	-8
599.055	1	0
599.395	1	13
599.734	1	5
600.074	1	10
600.413	1	7
600.753	1	12
601.092	1	-5
601.432	1	-1
601.771	1	9
602.111	1	-2
602.451	1	-1
602.790	1	2
603.130	1	7
603.469	1	10
603.809	1	6
604.148	1	14
604.487	1	13
604.827	1	-8
605.166	1	1
605.506	1	10
605.845	1	8
606.185	1	9
606.524	1	-2
606.864	1	5
607.203	1	16
607.543	1	-11
607.882	1	-6
608.222	1	4
608.561	1	2
608.901	1	10
609.240	1	8
609.579	1	5
609.919	1	-9
610.258	1	14
610.598	1	11
610.937	1	8
611.277	1	-6
611.616	1	-1
611.955	1	4
612.295	1	9
612.634	1	-2
612.974	1	2
613.313	1	8
613.652	1	3
613.992	1	6
614.331	1	2
614.671	1	2
615.010	1	10
615.349	1	14
615.689	1	0
616.028	1	2
616.368	1	-4
616.707	1	11
617.046	1	10
617.386	1	-3
617.725	1	5
618.064	1	4
618.404	1	9
618.743	1	2
619.082	1	4
619.422	1	8
619.761	1	0
620.100	1	13
620.440	1	9
620.779	1	2
621.118	1	-4
621.458	1	9
621.797	1	5
622.136	1	13
622.476	1	5
622.815	1	4
623.154	1	10
623.494	1	8
623.833	1	7
624.172	1	19
624.511	1	12
624.851	1	-6
625.190	1	7
625.529	1	5
625.869	1	8
626.208	1	-2
626.547	1	9
626.886	1	-8
627.226	1	8
627.565	1	13
627.904	1	4
628.243	1	1
628.583	1	6
628.922	1	3
629.261	1	12
629.600	1	11
629.940	1	6
630.279	1	-5
630.618	1	2
630.957	1	3
631.297	1	-7
631.636	1	12
631.975	1	8
632.314	1	9
632.653	1	-1
632.993	1	10
633.332	1	10
633.671	1	2
634.010	1	4
634.349	1	3
634.689	1	17
635.028	1	3
635.367	1	8
635.706	1	4
636.045	1	2
636.384	1	11
636.724	1	5
637.063	1	12
637.402	1	13
637.741	1	8
638.080	1	8
638.419	1	11
638.759	1	-5
639.098	1	13
639.437	1	-2
639.776	1	-2
640.115	1	-10
640.454	1	9
640.793	1	7
641.132	1	12
641.472	1	-3
641.811	1	1
642.150	1	2
642.489	1	5
642.828	1	5
643.167	1	10
643.506	1	-3
643.845	1	-2
644.184	1	11
644.524	1	2
644.863	1	0
645.202	1	6
645.541	1	-7
645.880	1	1
646.219	1	7
646.558	1	7
646.897	1	5
647.236	1	6
647.575	1	2
647.914	1	-1
648.253	1	3
648.592	1	4
648.931	1	11
649.270	1	19
649.610	1	14
649.949	1	9
650.288	1	-1
650.627	1	4
650.966	1	-2
651.305	1	4
651.644	1	1
651.983	1	6
652.322	1	10
652.661	1	2
653.000	1	1
653.339	1	4
653.678	1	14
654.017	1	0
654.356	1	7
654.695	1	5
655.034	1	4
655.373	1	13
655.712	1	0
656.051	1	2
656.390	1	-4
656.729	1	-1
657.068	1	3
657.406	1	8
657.745	1	5
658.084	1	4
658.423	1	2
658.762	1	-1
659.101	1	5
659.440	1	17
659.779	1	-3
660.118	1	12
660.457	1	-12
660.796	1	-4
661.135	1	8
661.474	1	2
661.813	1	11
662.152	1	7
662.491	1	8
662.829	1	-2
663.168	1	-2
663.507	1	4
663.846	1	8
664.185	1	6
664.524	1	-3
664.863	1	6
665.202	1	-9
665.541	1	-4
665.879	1	4
666.218	1	3
666.557	1	2
666.896	1	-1
667.235	1	-1
667.574	1	6
667.913	1	8
668.251	1	3
668.590	1	-13
668.929	1	21
669.268	1	5
669.607	1	-9
669.946	1	11
670.285	1	5
670.623	1	0
670.962	1	4
671.301	1	7
671.640	1	-7
671.979	1	7
672.317	1	2
672.656	1	9
672.995	1	-1
673.334	1	14
673.673	1	10
674.011	1	9
674.350	1	3
674.689	1	3
675.028	1	13
675.367	1	8
675.705	1	-7
676.044	1	-1
676.383	1	3
676.722	1	8
677.060	1	1
677.399	1	1
677.738	1	3
678.077	1	4
678.416	1	11
678.754	1	1
679.093	1	6
679.432	1	10
679.771	1	3
680.109	1	8
680.448	1	-8
680.787	1	6
681.125	1	8
681.464	1	4
681.803	1	-3
682.142	1	8
682.480	1	6
682.819	1	10
683.158	1	5
683.496	1	-7
683.835	1	2
684.174	1	7
684.512	1	-1
684.851	1	-1
685.190	1	8
685.529	1	-2
685.867	1	-4
686.206	1	7
686.545	1	2
686.883	1	0
687.222	1	-1
687.561	1	-1
687.899	1	3
688.238	1	2
688.577	1	-7
688.746	1	-3