File: Analysis/GaN_68K_200ms/GaN_sample E_spot4_UVVIS_68 K_200um_200 ms 2x2mm1_735.txt
340.368	1	7
340.710	1	-1
341.052	1	0
341.394	1	-4
341.737	1	1
342.079	1	-8
342.421	1	-7
342.763	1	-12
343.105	1	10
343.447	1	7
343.789	1	-6
344.131	1	2
344.473	1	-4
344.815	1	5
345.157	1	9
345.499	1	7
345.841	1	8
346.183	1	-3
346.526	1	1
346.868	1	-7
347.210	1	-4
347.552	1	-1
347.894	1	8
348.236	1	-3
348.578	1	4
348.920	1	16
349.262	1	1
349.604	1	8
349.946	1	-3
350.288	1	3
350.630	1	-6
350.972	1	1
351.314	1	-7
351.656	1	-6
351.998	1	-1
352.340	1	-6
352.682	1	0
353.024	1	-7
353.366	1	1
353.708	1	5
354.050	1	10
354.392	1	5
354.734	1	1
355.076	1	-5
355.418	1	3
355.760	1	0
356.102	1	-3
356.444	1	3
356.785	1	12
357.127	1	-4
357.469	1	-7
357.811	1	13
358.153	1	7
358.495	1	0
358.837	1	3
359.179	1	1
359.521	1	0
359.863	1	-6
360.205	1	3
360.547	1	-6
360.889	1	5
361.231	1	5
361.572	1	1
361.914	1	5
362.256	1	8
362.598	1	-1
362.940	1	-4
363.282	1	7
363.624	1	-6
363.966	1	-6
364.308	1	-6
364.649	1	-1
364.991	1	-1
365.333	1	16
365.675	1	-3
366.017	1	2
366.359	1	-3
366.701	1	-9
367.042	1	7
367.384	1	4
367.726	1	12
368.068	1	-2
368.410	1	-3
368.752	1	-7
369.093	1	1
369.435	1	1
369.777	1	-10
370.119	1	4
370.461	1	6
370.803	1	-9
371.144	1	-1
371.486	1	9
371.828	1	-2
372.170	1	13
372.512	1	-3
372.853	1	8
373.195	1	-7
373.537	1	0
373.879	1	4
374.220	1	3
374.562	1	-7
374.904	1	6
375.246	1	-2
375.588	1	-4
375.929	1	8
376.271	1	-2
376.613	1	-5
376.955	1	-2
377.296	1	7
377.638	1	-8
377.980	1	4
378.321	1	4
378.663	1	-2
379.005	1	14
379.347	1	3
379.688	1	3
380.030	1	-7
380.372	1	-6
380.714	1	9
381.055	1	-1
381.397	1	-4
381.739	1	6
382.080	1	-21
382.422	1	8
382.764	1	1
383.105	1	-9
383.447	1	3
383.789	1	3
384.130	1	-10
384.472	1	-6
384.814	1	-3
385.156	1	12
385.497	1	3
385.839	1	-3
386.180	1	7
386.522	1	15
386.864	1	-3
387.205	1	5
387.547	1	-3
387.889	1	7
388.230	1	-7
388.572	1	0
388.914	1	12
389.255	1	10
389.597	1	-17
389.939	1	11
390.280	1	15
390.622	1	-2
390.963	1	3
391.305	1	7
391.647	1	-2
391.988	1	-6
392.330	1	11
392.671	1	11
393.013	1	15
393.355	1	4
393.696	1	1
394.038	1	3
394.379	1	-2
394.721	1	2
395.062	1	-5
395.404	1	6
395.746	1	-2
396.087	1	4
396.429	1	9
396.770	1	0
397.112	1	-11
397.453	1	-16
397.795	1	6
398.136	1	2
398.478	1	-10
398.819	1	8
399.161	1	8
399.503	1	8
399.844	1	-4
400.186	1	10
400.527	1	-1
400.869	1	11
401.210	1	-5
401.552	1	2
401.893	1	12
402.235	1	12
402.576	1	13
402.918	1	-7
403.259	1	-7
403.601	1	-5
403.942	1	2
404.284	1	-5
404.625	1	7
404.967	1	-3
405.308	1	-8
405.649	1	1
405.991	1	3
406.332	1	-14
406.674	1	4
407.015	1	-13
407.357	1	4
407.698	1	-2
408.040	1	-7
408.381	1	0
408.722	1	-5
409.064	1	-4
409.405	1	2
409.747	1	-1
410.088	1	3
410.430	1	-1
410.771	1	3
411.112	1	4
411.454	1	11
411.795	1	6
412.137	1	5
412.478	1	-2
412.819	1	-6
413.161	1	-3
413.502	1	6
413.844	1	-1
414.185	1	8
414.526	1	2
414.868	1	7
415.209	1	-6
415.550	1	-1
415.892	1	-4
416.233	1	4
416.575	1	-8
416.916	1	-7
417.257	1	4
417.599	1	8
417.940	1	1
418.281	1	-5
418.623	1	-2
418.964	1	1
419.305	1	0
419.647	1	6
419.988	1	-3
420.329	1	4
420.671	1	3
421.012	1	11
421.353	1	5
421.695	1	1
422.036	1	-4
422.377	1	10
422.718	1	-1
423.060	1	-3
423.401	1	-6
423.742	1	-6
424.084	1	-1
424.425	1	-4
424.766	1	-1
425.107	1	2
425.449	1	6
425.790	1	-10
426.131	1	2
426.472	1	-2
426.814	1	0
427.155	1	3
427.496	1	12
427.837	1	-10
428.179	1	-5
428.520	1	-18
428.861	1	-4
429.202	1	6
429.544	1	3
429.885	1	-4
430.226	1	1
430.567	1	6
430.909	1	-17
431.250	1	-4
431.591	1	2
431.932	1	10
432.273	1	-7
432.615	1	-1
432.956	1	-4
433.297	1	11
433.638	1	-8
433.979	1	-4
434.320	1	-6
434.662	1	2
435.003	1	-1
435.344	1	8
435.685	1	-1
436.026	1	6
436.368	1	-7
436.709	1	-3
437.050	1	-1
437.391	1	-3
437.732	1	6
438.073	1	14
438.414	1	-6
438.756	1	9
439.097	1	2
439.438	1	-3
439.779	1	-10
440.120	1	0
440.461	1	2
440.802	1	6
441.143	1	6
441.485	1	-11
441.826	1	-7
442.167	1	-1
442.508	1	-5
442.849	1	9
443.190	1	-11
443.531	1	0
443.872	1	-4
444.213	1	-5
444.554	1	-6
444.895	1	0
445.237	1	-5
445.578	1	6
445.919	1	0
446.260	1	-1
446.601	1	-7
446.942	1	-1
447.283	1	-1
447.624	1	1
447.965	1	-4
448.306	1	6
448.647	1	8
448.988	1	-7
449.329	1	1
449.670	1	8
450.011	1	1
450.352	1	1
450.693	1	2
451.034	1	2
451.375	1	9
451.716	1	8
452.057	1	3
452.398	1	6
452.739	1	-4
453.080	1	14
453.421	1	4
453.762	1	-8
454.103	1	-5
454.444	1	10
454.785	1	-7
455.126	1	0
455.467	1	7
455.808	1	-5
456.149	1	-4
456.490	1	1
456.831	1	10
457.172	1	4
457.513	1	8
457.854	1	-8
458.195	1	-13
458.536	1	3
458.877	1	-3
459.218	1	5
459.559	1	0
459.899	1	18
460.240	1	0
460.581	1	2
460.922	1	-2
461.263	1	8
461.604	1	-3
461.945	1	8
462.286	1	6
462.627	1	-8
462.968	1	-8
463.309	1	-2
463.649	1	1
463.990	1	-1
464.331	1	8
464.672	1	-1
465.013	1	-4
465.354	1	-4
465.695	1	9
466.036	1	-1
466.376	1	-4
466.717	1	-8
467.058	1	10
467.399	1	11
467.740	1	1
468.081	1	8
468.422	1	4
468.762	1	-12
469.103	1	-3
469.444	1	0
469.785	1	4
470.126	1	0
470.467	1	-9
470.807	1	-5
471.148	1	-5
471.489	1	-1
471.830	1	7
472.171	1	0
472.511	1	8
472.852	1	-12
473.193	1	-5
473.534	1	-4
473.875	1	11
474.215	1	3
474.556	1	-2
474.897	1	5
475.238	1	-3
475.578	1	15
475.919	1	-5
476.260	1	2
476.601	1	1
476.942	1	-2
477.282	1	-6
477.623	1	-3
477.964	1	4
478.305	1	1
478.645	1	-1
478.986	1	-6
479.327	1	-8
479.667	1	0
480.008	1	3
480.349	1	-1
480.690	1	-1
481.030	1	-2
481.371	1	4
481.712	1	5
482.053	1	7
482.393	1	-9
482.734	1	0
483.075	1	-2
483.415	1	7
483.756	1	14
484.097	1	-15
484.437	1	-10
484.778	1	2
485.119	1	-3
485.459	1	2
485.800	1	0
486.141	1	-8
486.481	1	4
486.822	1	3
487.163	1	-6
487.503	1	-10
487.844	1	3
488.185	1	-6
488.525	1	0
488.866	1	10
489.207	1	9
489.547	1	-4
489.888	1	-5
490.228	1	-11
490.569	1	3
490.910	1	-11
491.250	1	-4
491.591	1	-8
491.932	1	6
492.272	1	3
492.613	1	3
492.953	1	0
493.294	1	11
493.635	1	-5
493.975	1	-4
494.316	1	9
494.656	1	0
494.997	1	-1
495.337	1	5
495.678	1	10
496.019	1	-4
496.359	1	2
496.700	1	-3
497.040	1	-5
497.381	1	-17
497.721	1	-1
498.062	1	-10
498.403	1	4
498.743	1	-9
499.084	1	-2
499.424	1	3
499.765	1	-4
500.105	1	-3
500.446	1	-2
500.786	1	4
501.127	1	5
501.467	1	5
501.808	1	-6
502.148	1	-2
502.489	1	-6
502.829	1	7
503.170	1	4
503.510	1	-3
503.851	1	-26
504.191	1	3
504.532	1	-12
504.872	1	-10
505.213	1	-1
505.553	1	0
505.894	1	10
506.234	1	3
506.575	1	1
506.915	1	3
507.256	1	0
507.596	1	-5
507.936	1	5
508.277	1	0
508.617	1	9
508.958	1	8
509.298	1	20
509.639	1	5
509.979	1	-6
510.319	1	-3
510.660	1	0
511.000	1	13
511.341	1	-12
511.681	1	8
512.022	1	-2
512.362	1	1
512.702	1	-2
513.043	1	8
513.383	1	-12
513.724	1	7
514.064	1	4
514.404	1	2
514.745	1	-9
515.085	1	0
515.425	1	-4
515.766	1	8
516.106	1	-9
516.447	1	4
516.787	1	0
517.127	1	3
517.468	1	-4
517.808	1	3
518.148	1	-7
518.489	1	3
518.829	1	-4
519.169	1	3
519.510	1	4
519.850	1	-9
520.190	1	2
520.531	1	4
520.871	1	-6
521.211	1	-5
521.552	1	6
521.892	1	-9
522.232	1	-11
522.573	1	-1
522.913	1	0
523.253	1	-13
523.593	1	-8
523.934	1	-4
524.274	1	-7
524.614	1	8
524.955	1	1
525.295	1	-4
525.635	1	21
525.975	1	-1
526.316	1	-4
526.656	1	10
526.996	1	9
527.337	1	-5
527.677	1	12
528.017	1	-8
528.357	1	1
528.698	1	-11
529.038	1	2
529.378	1	8
529.718	1	4
530.058	1	2
530.399	1	9
530.739	1	-4
531.079	1	12
531.419	1	11
531.760	1	1
532.100	1	5
532.440	1	-3
532.780	1	2
533.120	1	-9
533.461	1	7
533.801	1	-4
534.141	1	7
534.481	1	0
534.821	1	5
535.162	1	3
535.502	1	2
535.842	1	-2
536.182	1	-4
536.522	1	-3
536.862	1	-2
537.203	1	1
537.543	1	6
537.883	1	6
538.223	1	13
538.563	1	-2
538.903	1	10
539.243	1	-1
539.584	1	4
539.924	1	0
540.264	1	-9
540.604	1	3
540.944	1	-6
541.284	1	-2
541.624	1	2
541.964	1	-5
542.305	1	-7
542.645	1	-2
542.985	1	-5
543.325	1	-7
543.665	1	9
544.005	1	-10
544.345	1	4
544.685	1	-2
545.025	1	0
545.365	1	-6
545.705	1	6
546.045	1	7
546.386	1	8
546.726	1	1
547.066	1	-11
547.406	1	-4
547.746	1	11
548.086	1	0
548.426	1	-1
548.766	1	1
549.106	1	0
549.446	1	-1
549.786	1	3
550.126	1	-7
550.466	1	-9
550.806	1	1
551.146	1	-4
551.486	1	2
551.826	1	16
552.166	1	-5
552.506	1	2
552.846	1	2
553.186	1	-6
553.526	1	0
553.866	1	-2
554.206	1	7
554.546	1	-9
554.886	1	1
555.226	1	-7
555.566	1	7
555.906	1	9
556.246	1	-5
556.586	1	11
556.926	1	5
557.266	1	7
557.606	1	-10
557.946	1	-1
558.286	1	3
558.626	1	2
558.966	1	-4
559.306	1	-2
559.646	1	-3
559.986	1	-8
560.325	1	-6
560.665	1	2
561.005	1	5
561.345	1	-2
561.685	1	-1
562.025	1	-10
562.365	1	-4
562.705	1	8
563.045	1	5
563.385	1	-6
563.725	1	-3
564.064	1	10
564.404	1	-13
564.744	1	-1
565.084	1	-15
565.424	1	8
565.764	1	10
566.104	1	-13
566.444	1	1
566.783	1	2
567.123	1	16
567.463	1	-2
567.803	1	-6
568.143	1	-9
568.483	1	-8
568.823	1	10
569.162	1	5
569.502	1	2
569.842	1	-2
570.182	1	-9
570.522	1	10
570.862	1	1
571.201	1	3
571.541	1	-6
571.881	1	1
572.221	1	9
572.561	1	3
572.900	1	10
573.240	1	-8
573.580	1	6
573.920	1	0
574.260	1	6
574.599	1	-4
574.939	1	-9
575.279	1	3
575.619	1	-8
575.959	1	6
576.298	1	-15
576.638	1	2
576.978	1	4
577.318	1	3
577.657	1	-15
577.997	1	-3
578.337	1	-7
578.677	1	-1
579.016	1	15
579.356	1	4
579.696	1	-5
580.036	1	-1
580.375	1	-2
580.715	1	5
581.055	1	-2
581.394	1	-11
581.734	1	-2
582.074	1	-6
582.414	1	1
582.753	1	3
583.093	1	2
583.433	1	-9
583.772	1	1
584.112	1	1
584.452	1	0
584.791	1	-3
585.131	1	-1
585.471	1	-3
585.811	1	-7
586.150	1	3
586.490	1	-7
586.830	1	-9
587.169	1	1
587.509	1	5
587.849	1	12
588.188	1	0
588.528	1	3
588.867	1	2
589.207	1	-13
589.547	1	-10
589.886	1	-14
590.226	1	6
590.566	1	7
590.905	1	10
591.245	1	3
591.585	1	-5
591.924	1	-4
592.264	1	-5
592.603	1	-4
592.943	1	-2
593.283	1	4
593.622	1	2
593.962	1	4
594.301	1	9
594.641	1	-2
594.981	1	1
595.320	1	4
595.660	1	-2
595.999	1	5
596.339	1	2
596.678	1	3
597.018	1	-3
597.358	1	1
597.697	1	-2
598.037	1	4
598.376	1	-1
598.716	1	-12
599.055	1	2
599.395	1	8
599.734	1	2
600.074	1	-9
600.413	1	-6
600.753	1	11
601.092	1	-18
601.432	1	0
601.771	1	0
602.111	1	-7
602.451	1	7
602.790	1	1
603.130	1	2
603.469	1	-6
603.809	1	2
604.148	1	-1
604.487	1	1
604.827	1	-10
605.166	1	-3
605.506	1	1
605.845	1	3
606.185	1	3
606.524	1	-7
606.864	1	1
607.203	1	9
607.543	1	0
607.882	1	-9
608.222	1	4
608.561	1	10
608.901	1	2
609.240	1	-3
609.579	1	0
609.919	1	-1
610.258	1	0
610.598	1	2
610.937	1	-4
611.277	1	-1
611.616	1	-9
611.955	1	3
612.295	1	1
612.634	1	-2
612.974	1	8
613.313	1	2
613.652	1	-5
613.992	1	4
614.331	1	3
614.671	1	5
615.010	1	-5
615.349	1	-3
615.689	1	-2
616.028	1	6
616.368	1	-1
616.707	1	-3
617.046	1	2
617.386	1	3
617.725	1	6
618.064	1	-3
618.404	1	1
618.743	1	-2
619.082	1	7
619.422	1	-1
619.761	1	-3
620.100	1	8
620.440	1	2
620.779	1	-3
621.118	1	-6
621.458	1	3
621.797	1	-2
622.136	1	6
622.476	1	7
622.815	1	-3
623.154	1	2
623.494	1	4
623.833	1	-6
624.172	1	5
624.511	1	-5
624.851	1	-8
625.190	1	8
625.529	1	5
625.869	1	-1
626.208	1	-4
626.547	1	8
626.886	1	-2
627.226	1	-8
627.565	1	5
627.904	1	-2
628.243	1	-6
628.583	1	-7
628.922	1	-1
629.261	1	-3
629.600	1	7
629.940	1	1
630.279	1	-9
630.618	1	0
630.957	1	-3
631.297	1	-7
631.636	1	-1
631.975	1	3
632.314	1	3
632.653	1	-8
632.993	1	9
633.332	1	4
633.671	1	-5
634.010	1	-5
634.349	1	10
634.689	1	8
635.028	1	-3
635.367	1	-7
635.706	1	2
636.045	1	-1
636.384	1	10
636.724	1	-4
637.063	1	12
637.402	1	1
637.741	1	7
638.080	1	1
638.419	1	6
638.759	1	7
639.098	1	-3
639.437	1	-3
639.776	1	-3
640.115	1	2
640.454	1	14
640.793	1	6
641.132	1	-2
641.472	1	-9
641.811	1	6
642.150	1	-1
642.489	1	-1
642.828	1	6
643.167	1	11
643.506	1	-11
643.845	1	1
644.184	1	6
644.524	1	-1
644.863	1	-8
645.202	1	-4
645.541	1	-7
645.880	1	-6
646.219	1	5
646.558	1	-2
646.897	1	-3
647.236	1	4
647.575	1	3
647.914	1	-4
648.253	1	4
648.592	1	2
648.931	1	-4
649.270	1	-1
649.610	1	13
649.949	1	7
650.288	1	-4
650.627	1	-5
650.966	1	-5
651.305	1	-14
651.644	1	-4
651.983	1	7
652.322	1	1
652.661	1	-3
653.000	1	0
653.339	1	2
653.678	1	1
654.017	1	2
654.356	1	9
654.695	1	8
655.034	1	11
655.373	1	1
655.712	1	1
656.051	1	6
656.390	1	0
656.729	1	7
657.068	1	-8
657.406	1	-3
657.745	1	1
658.084	1	9
658.423	1	-10
658.762	1	-8
659.101	1	-12
659.440	1	12
659.779	1	-1
660.118	1	3
660.457	1	-6
660.796	1	-8
661.135	1	-4
661.474	1	-3
661.813	1	2
662.152	1	-1
662.491	1	1
662.829	1	-7
663.168	1	-3
663.507	1	2
663.846	1	-1
664.185	1	-3
664.524	1	-16
664.863	1	5
665.202	1	-2
665.541	1	1
665.879	1	-6
666.218	1	-2
666.557	1	-2
666.896	1	-4
667.235	1	1
667.574	1	7
667.913	1	-3
668.251	1	4
668.590	1	-1
668.929	1	5
669.268	1	-4
669.607	1	-20
669.946	1	9
670.285	1	0
670.623	1	6
670.962	1	-5
671.301	1	-5
671.640	1	-20
671.979	1	15
672.317	1	4
672.656	1	0
672.995	1	7
673.334	1	6
673.673	1	17
674.011	1	11
674.350	1	2
674.689	1	-5
675.028	1	2
675.367	1	7
675.705	1	-1
676.044	1	-4
676.383	1	-10
676.722	1	7
677.060	1	4
677.399	1	-10
677.738	1	-3
678.077	1	-4
678.416	1	-1
678.754	1	3
679.093	1	6
679.432	1	-8
679.771	1	-10
680.109	1	-1
680.448	1	-1
680.787	1	1
681.125	1	11
681.464	1	4
681.803	1	-8
682.142	1	17
682.480	1	-3
682.819	1	5
683.158	1	-9
683.496	1	-8
683.835	1	4
684.174	1	6
684.512	1	-3
684.851	1	0
685.190	1	7
685.529	1	1
685.867	1	1
686.206	1	6
686.545	1	9
686.883	1	-7
687.222	1	2
687.561	1	3
687.899	1	2
688.238	1	5
688.577	1	-10
688.746	1	3