File: Analysis/GaN_68K_200ms/GaN_sample E_spot4_UVVIS_68 K_200um_200 ms 2x2mm1_224.txt
340.368	1	6
340.710	1	-7
341.052	1	12
341.394	1	-4
341.737	1	11
342.079	1	-8
342.421	1	-4
342.763	1	2
343.105	1	14
343.447	1	0
343.789	1	-3
344.131	1	2
344.473	1	9
344.815	1	3
345.157	1	13
345.499	1	8
345.841	1	5
346.183	1	-5
346.526	1	12
346.868	1	7
347.210	1	7
347.552	1	7
347.894	1	7
348.236	1	11
348.578	1	7
348.920	1	17
349.262	1	6
349.604	1	6
349.946	1	8
350.288	1	3
350.630	1	1
350.972	1	-1
351.314	1	1
351.656	1	6
351.998	1	4
352.340	1	7
352.682	1	5
353.024	1	-6
353.366	1	5
353.708	1	3
354.050	1	10
354.392	1	14
354.734	1	0
355.076	1	9
355.418	1	7
355.760	1	5
356.102	1	-5
356.444	1	6
356.785	1	20
357.127	1	10
357.469	1	9
357.811	1	21
358.153	1	-3
358.495	1	14
358.837	1	4
359.179	1	8
359.521	1	1
359.863	1	4
360.205	1	6
360.547	1	12
360.889	1	3
361.231	1	8
361.572	1	4
361.914	1	8
362.256	1	23
362.598	1	11
362.940	1	3
363.282	1	9
363.624	1	4
363.966	1	22
364.308	1	6
364.649	1	9
364.991	1	10
365.333	1	24
365.675	1	14
366.017	1	19
366.359	1	15
366.701	1	10
367.042	1	27
367.384	1	17
367.726	1	27
368.068	1	9
368.410	1	9
368.752	1	4
369.093	1	14
369.435	1	13
369.777	1	5
370.119	1	17
370.461	1	3
370.803	1	5
371.144	1	18
371.486	1	20
371.828	1	17
372.170	1	16
372.512	1	-1
372.853	1	9
373.195	1	0
373.537	1	11
373.879	1	8
374.220	1	6
374.562	1	10
374.904	1	12
375.246	1	17
375.588	1	6
375.929	1	10
376.271	1	6
376.613	1	-1
376.955	1	-1
377.296	1	9
377.638	1	2
377.980	1	8
378.321	1	5
378.663	1	6
379.005	1	10
379.347	1	5
379.688	1	2
380.030	1	6
380.372	1	3
380.714	1	12
381.055	1	3
381.397	1	8
381.739	1	17
382.080	1	2
382.422	1	23
382.764	1	15
383.105	1	12
383.447	1	22
383.789	1	2
384.130	1	1
384.472	1	4
384.814	1	28
385.156	1	26
385.497	1	29
385.839	1	25
386.180	1	18
386.522	1	24
386.864	1	14
387.205	1	9
387.547	1	16
387.889	1	24
388.230	1	16
388.572	1	11
388.914	1	22
389.255	1	23
389.597	1	15
389.939	1	23
390.280	1	17
390.622	1	9
390.963	1	19
391.305	1	25
391.647	1	25
391.988	1	7
392.330	1	25
392.671	1	19
393.013	1	26
393.355	1	22
393.696	1	7
394.038	1	13
394.379	1	14
394.721	1	23
395.062	1	15
395.404	1	14
395.746	1	17
396.087	1	8
396.429	1	8
396.770	1	21
397.112	1	9
397.453	1	9
397.795	1	20
398.136	1	30
398.478	1	11
398.819	1	23
399.161	1	9
399.503	1	22
399.844	1	13
400.186	1	18
400.527	1	22
400.869	1	18
401.210	1	1
401.552	1	28
401.893	1	16
402.235	1	18
402.576	1	25
402.918	1	9
403.259	1	6
403.601	1	11
403.942	1	19
404.284	1	7
404.625	1	12
404.967	1	20
405.308	1	17
405.649	1	15
405.991	1	24
406.332	1	8
406.674	1	18
407.015	1	9
407.357	1	18
407.698	1	10
408.040	1	5
408.381	1	13
408.722	1	7
409.064	1	18
409.405	1	11
409.747	1	12
410.088	1	16
410.430	1	21
410.771	1	8
411.112	1	11
411.454	1	22
411.795	1	15
412.137	1	15
412.478	1	15
412.819	1	5
413.161	1	3
413.502	1	3
413.844	1	11
414.185	1	7
414.526	1	10
414.868	1	15
415.209	1	5
415.550	1	7
415.892	1	9
416.233	1	9
416.575	1	4
416.916	1	10
417.257	1	14
417.599	1	15
417.940	1	7
418.281	1	15
418.623	1	4
418.964	1	10
419.305	1	7
419.647	1	9
419.988	1	4
420.329	1	15
420.671	1	14
421.012	1	10
421.353	1	12
421.695	1	9
422.036	1	10
422.377	1	12
422.718	1	10
423.060	1	5
423.401	1	6
423.742	1	6
424.084	1	10
424.425	1	10
424.766	1	5
425.107	1	16
425.449	1	9
425.790	1	-1
426.131	1	14
426.472	1	10
426.814	1	18
427.155	1	6
427.496	1	16
427.837	1	5
428.179	1	4
428.520	1	3
428.861	1	2
429.202	1	14
429.544	1	11
429.885	1	-1
430.226	1	2
430.567	1	19
430.909	1	5
431.250	1	7
431.591	1	11
431.932	1	9
432.273	1	8
432.615	1	7
432.956	1	1
433.297	1	14
433.638	1	5
433.979	1	7
434.320	1	11
434.662	1	1
435.003	1	12
435.344	1	8
435.685	1	13
436.026	1	8
436.368	1	-3
436.709	1	-1
437.050	1	12
437.391	1	11
437.732	1	6
438.073	1	13
438.414	1	3
438.756	1	18
439.097	1	10
439.438	1	20
439.779	1	12
440.120	1	6
440.461	1	0
440.802	1	12
441.143	1	23
441.485	1	6
441.826	1	1
442.167	1	8
442.508	1	-2
442.849	1	13
443.190	1	-8
443.531	1	1
443.872	1	3
444.213	1	-3
444.554	1	-2
444.895	1	-9
445.237	1	1
445.578	1	15
445.919	1	6
446.260	1	6
446.601	1	-2
446.942	1	7
447.283	1	1
447.624	1	9
447.965	1	4
448.306	1	5
448.647	1	15
448.988	1	-5
449.329	1	12
449.670	1	6
450.011	1	2
450.352	1	8
450.693	1	6
451.034	1	4
451.375	1	10
451.716	1	12
452.057	1	11
452.398	1	9
452.739	1	0
453.080	1	14
453.421	1	12
453.762	1	-1
454.103	1	9
454.444	1	18
454.785	1	4
455.126	1	-1
455.467	1	9
455.808	1	9
456.149	1	4
456.490	1	8
456.831	1	14
457.172	1	7
457.513	1	10
457.854	1	-1
458.195	1	8
458.536	1	3
458.877	1	2
459.218	1	7
459.559	1	3
459.899	1	14
460.240	1	8
460.581	1	5
460.922	1	10
461.263	1	6
461.604	1	8
461.945	1	6
462.286	1	19
462.627	1	4
462.968	1	1
463.309	1	-5
463.649	1	9
463.990	1	5
464.331	1	9
464.672	1	-4
465.013	1	-10
465.354	1	6
465.695	1	17
466.036	1	5
466.376	1	0
466.717	1	1
467.058	1	14
467.399	1	6
467.740	1	-5
468.081	1	7
468.422	1	9
468.762	1	-6
469.103	1	3
469.444	1	3
469.785	1	6
470.126	1	5
470.467	1	-1
470.807	1	2
471.148	1	4
471.489	1	-1
471.830	1	18
472.171	1	1
472.511	1	15
472.852	1	-1
473.193	1	2
473.534	1	7
473.875	1	5
474.215	1	5
474.556	1	-1
474.897	1	11
475.238	1	5
475.578	1	11
475.919	1	4
476.260	1	8
476.601	1	1
476.942	1	2
477.282	1	-9
477.623	1	0
477.964	1	5
478.305	1	11
478.645	1	5
478.986	1	4
479.327	1	-10
479.667	1	12
480.008	1	5
480.349	1	10
480.690	1	-2
481.030	1	0
481.371	1	4
481.712	1	7
482.053	1	6
482.393	1	-13
482.734	1	6
483.075	1	9
483.415	1	7
483.756	1	10
484.097	1	-1
484.437	1	-4
484.778	1	5
485.119	1	8
485.459	1	9
485.800	1	4
486.141	1	2
486.481	1	4
486.822	1	8
487.163	1	5
487.503	1	-1
487.844	1	4
488.185	1	-2
488.525	1	-2
488.866	1	15
489.207	1	8
489.547	1	4
489.888	1	-2
490.228	1	-11
490.569	1	12
490.910	1	4
491.250	1	5
491.591	1	-4
491.932	1	5
492.272	1	14
492.613	1	11
492.953	1	19
493.294	1	16
493.635	1	5
493.975	1	5
494.316	1	11
494.656	1	1
494.997	1	2
495.337	1	13
495.678	1	8
496.019	1	9
496.359	1	11
496.700	1	12
497.040	1	9
497.381	1	-12
497.721	1	-1
498.062	1	8
498.403	1	10
498.743	1	7
499.084	1	-5
499.424	1	22
499.765	1	5
500.105	1	8
500.446	1	17
500.786	1	10
501.127	1	5
501.467	1	9
501.808	1	-3
502.148	1	10
502.489	1	8
502.829	1	-2
503.170	1	10
503.510	1	-1
503.851	1	3
504.191	1	14
504.532	1	8
504.872	1	8
505.213	1	11
505.553	1	4
505.894	1	16
506.234	1	15
506.575	1	7
506.915	1	7
507.256	1	-4
507.596	1	12
507.936	1	14
508.277	1	3
508.617	1	9
508.958	1	16
509.298	1	15
509.639	1	15
509.979	1	1
510.319	1	-1
510.660	1	15
511.000	1	15
511.341	1	5
511.681	1	10
512.022	1	6
512.362	1	9
512.702	1	11
513.043	1	7
513.383	1	5
513.724	1	12
514.064	1	7
514.404	1	5
514.745	1	8
515.085	1	9
515.425	1	3
515.766	1	12
516.106	1	4
516.447	1	12
516.787	1	11
517.127	1	8
517.468	1	4
517.808	1	15
518.148	1	5
518.489	1	12
518.829	1	-2
519.169	1	25
519.510	1	6
519.850	1	6
520.190	1	9
520.531	1	7
520.871	1	9
521.211	1	14
521.552	1	6
521.892	1	2
522.232	1	4
522.573	1	16
522.913	1	14
523.253	1	17
523.593	1	-2
523.934	1	11
524.274	1	5
524.614	1	17
524.955	1	3
525.295	1	6
525.635	1	25
525.975	1	13
526.316	1	10
526.656	1	24
526.996	1	28
527.337	1	12
527.677	1	28
528.017	1	1
528.357	1	13
528.698	1	1
529.038	1	17
529.378	1	16
529.718	1	15
530.058	1	17
530.399	1	26
530.739	1	12
531.079	1	13
531.419	1	19
531.760	1	15
532.100	1	10
532.440	1	8
532.780	1	10
533.120	1	8
533.461	1	24
533.801	1	16
534.141	1	12
534.481	1	14
534.821	1	11
535.162	1	21
535.502	1	23
535.842	1	21
536.182	1	9
536.522	1	13
536.862	1	14
537.203	1	19
537.543	1	16
537.883	1	11
538.223	1	18
538.563	1	16
538.903	1	15
539.243	1	13
539.584	1	11
539.924	1	18
540.264	1	7
540.604	1	8
540.944	1	6
541.284	1	0
541.624	1	5
541.964	1	7
542.305	1	2
542.645	1	1
542.985	1	11
543.325	1	9
543.665	1	27
544.005	1	10
544.345	1	-1
544.685	1	6
545.025	1	4
545.365	1	3
545.705	1	21
546.045	1	21
546.386	1	4
546.726	1	11
547.066	1	-3
547.406	1	13
547.746	1	16
548.086	1	7
548.426	1	12
548.766	1	17
549.106	1	11
549.446	1	12
549.786	1	17
550.126	1	7
550.466	1	9
550.806	1	20
551.146	1	9
551.486	1	11
551.826	1	11
552.166	1	18
552.506	1	13
552.846	1	16
553.186	1	1
553.526	1	11
553.866	1	18
554.206	1	11
554.546	1	1
554.886	1	12
555.226	1	3
555.566	1	8
555.906	1	11
556.246	1	1
556.586	1	17
556.926	1	6
557.266	1	19
557.606	1	6
557.946	1	10
558.286	1	17
558.626	1	17
558.966	1	15
559.306	1	15
559.646	1	5
559.986	1	6
560.325	1	2
560.665	1	12
561.005	1	8
561.345	1	11
561.685	1	3
562.025	1	6
562.365	1	13
562.705	1	15
563.045	1	5
563.385	1	2
563.725	1	2
564.064	1	11
564.404	1	3
564.744	1	8
565.084	1	-3
565.424	1	13
565.764	1	15
566.104	1	0
566.444	1	15
566.783	1	2
567.123	1	24
567.463	1	8
567.803	1	-1
568.143	1	0
568.483	1	-5
568.823	1	12
569.162	1	4
569.502	1	6
569.842	1	9
570.182	1	2
570.522	1	9
570.862	1	13
571.201	1	13
571.541	1	4
571.881	1	9
572.221	1	12
572.561	1	2
572.900	1	20
573.240	1	8
573.580	1	18
573.920	1	-1
574.260	1	1
574.599	1	6
574.939	1	8
575.279	1	16
575.619	1	11
575.959	1	2
576.298	1	-2
576.638	1	12
576.978	1	10
577.318	1	11
577.657	1	-6
577.997	1	0
578.337	1	0
578.677	1	12
579.016	1	18
579.356	1	1
579.696	1	5
580.036	1	6
580.375	1	13
580.715	1	9
581.055	1	10
581.394	1	5
581.734	1	2
582.074	1	-2
582.414	1	9
582.753	1	10
583.093	1	7
583.433	1	-10
583.772	1	3
584.112	1	5
584.452	1	16
584.791	1	5
585.131	1	-6
585.471	1	5
585.811	1	3
586.150	1	5
586.490	1	-2
586.830	1	-11
587.169	1	10
587.509	1	9
587.849	1	10
588.188	1	7
588.528	1	5
588.867	1	1
589.207	1	-9
589.547	1	1
589.886	1	-5
590.226	1	7
590.566	1	7
590.905	1	3
591.245	1	7
591.585	1	-7
591.924	1	5
592.264	1	5
592.603	1	2
592.943	1	-8
593.283	1	7
593.622	1	14
593.962	1	15
594.301	1	9
594.641	1	2
594.981	1	2
595.320	1	11
595.660	1	2
595.999	1	9
596.339	1	5
596.678	1	3
597.018	1	18
597.358	1	4
597.697	1	3
598.037	1	2
598.376	1	10
598.716	1	8
599.055	1	2
599.395	1	13
599.734	1	8
600.074	1	-5
600.413	1	3
600.753	1	13
601.092	1	-7
601.432	1	-1
601.771	1	14
602.111	1	0
602.451	1	5
602.790	1	-4
603.130	1	9
603.469	1	1
603.809	1	8
604.148	1	7
604.487	1	14
604.827	1	-12
605.166	1	-3
605.506	1	7
605.845	1	5
606.185	1	4
606.524	1	1
606.864	1	-1
607.203	1	14
607.543	1	-1
607.882	1	-1
608.222	1	6
608.561	1	6
608.901	1	2
609.240	1	7
609.579	1	6
609.919	1	1
610.258	1	13
610.598	1	13
610.937	1	1
611.277	1	9
611.616	1	-4
611.955	1	9
612.295	1	8
612.634	1	-2
612.974	1	12
613.313	1	9
613.652	1	6
613.992	1	-4
614.331	1	5
614.671	1	8
615.010	1	2
615.349	1	2
615.689	1	5
616.028	1	3
616.368	1	6
616.707	1	10
617.046	1	0
617.386	1	-8
617.725	1	16
618.064	1	7
618.404	1	13
618.743	1	2
619.082	1	7
619.422	1	2
619.761	1	5
620.100	1	5
620.440	1	8
620.779	1	-8
621.118	1	-4
621.458	1	11
621.797	1	-3
622.136	1	3
622.476	1	6
622.815	1	4
623.154	1	5
623.494	1	3
623.833	1	-5
624.172	1	14
624.511	1	-1
624.851	1	-1
625.190	1	4
625.529	1	-1
625.869	1	3
626.208	1	1
626.547	1	14
626.886	1	4
627.226	1	6
627.565	1	16
627.904	1	1
628.243	1	0
628.583	1	5
628.922	1	0
629.261	1	11
629.600	1	12
629.940	1	7
630.279	1	3
630.618	1	0
630.957	1	1
631.297	1	-5
631.636	1	5
631.975	1	11
632.314	1	6
632.653	1	-5
632.993	1	8
633.332	1	7
633.671	1	6
634.010	1	-4
634.349	1	14
634.689	1	8
635.028	1	6
635.367	1	1
635.706	1	1
636.045	1	2
636.384	1	9
636.724	1	-4
637.063	1	6
637.402	1	8
637.741	1	8
638.080	1	4
638.419	1	15
638.759	1	12
639.098	1	6
639.437	1	-6
639.776	1	8
640.115	1	5
640.454	1	22
640.793	1	8
641.132	1	9
641.472	1	-8
641.811	1	8
642.150	1	4
642.489	1	-1
642.828	1	7
643.167	1	14
643.506	1	-3
643.845	1	14
644.184	1	9
644.524	1	-5
644.863	1	-7
645.202	1	5
645.541	1	-6
645.880	1	3
646.219	1	9
646.558	1	5
646.897	1	-2
647.236	1	3
647.575	1	1
647.914	1	2
648.253	1	8
648.592	1	-2
648.931	1	17
649.270	1	16
649.610	1	18
649.949	1	4
650.288	1	-6
650.627	1	-5
650.966	1	1
651.305	1	-2
651.644	1	6
651.983	1	5
652.322	1	-3
652.661	1	-3
653.000	1	6
653.339	1	9
653.678	1	3
654.017	1	-2
654.356	1	13
654.695	1	8
655.034	1	4
655.373	1	5
655.712	1	5
656.051	1	8
656.390	1	4
656.729	1	5
657.068	1	4
657.406	1	16
657.745	1	3
658.084	1	6
658.423	1	-10
658.762	1	-2
659.101	1	2
659.440	1	14
659.779	1	6
660.118	1	11
660.457	1	5
660.796	1	-7
661.135	1	7
661.474	1	6
661.813	1	5
662.152	1	-4
662.491	1	3
662.829	1	0
663.168	1	8
663.507	1	0
663.846	1	7
664.185	1	2
664.524	1	-8
664.863	1	10
665.202	1	-2
665.541	1	3
665.879	1	5
666.218	1	-9
666.557	1	2
666.896	1	1
667.235	1	4
667.574	1	1
667.913	1	6
668.251	1	6
668.590	1	2
668.929	1	-3
669.268	1	2
669.607	1	-8
669.946	1	5
670.285	1	11
670.623	1	10
670.962	1	-1
671.301	1	7
671.640	1	-10
671.979	1	16
672.317	1	4
672.656	1	9
672.995	1	5
673.334	1	9
673.673	1	9
674.011	1	7
674.350	1	-3
674.689	1	-2
675.028	1	-1
675.367	1	13
675.705	1	-7
676.044	1	6
676.383	1	0
676.722	1	2
677.060	1	4
677.399	1	6
677.738	1	-7
678.077	1	4
678.416	1	-2
678.754	1	3
679.093	1	2
679.432	1	-3
679.771	1	-2
680.109	1	9
680.448	1	13
680.787	1	-4
681.125	1	6
681.464	1	3
681.803	1	-6
682.142	1	11
682.480	1	8
682.819	1	9
683.158	1	6
683.496	1	5
683.835	1	-2
684.174	1	-2
684.512	1	7
684.851	1	3
685.190	1	10
685.529	1	0
685.867	1	17
686.206	1	2
686.545	1	19
686.883	1	-2
687.222	1	-10
687.561	1	1
687.899	1	3
688.238	1	-1
688.577	1	-3
688.746	1	5