File: Analysis/GaN_68K_200ms/GaN_sample E_spot4_UVVIS_68 K_200um_200 ms 2x2mm1_79.txt
340.368	1	-6
340.710	1	-3
341.052	1	0
341.394	1	5
341.737	1	10
342.079	1	-3
342.421	1	-6
342.763	1	1
343.105	1	11
343.447	1	10
343.789	1	-3
344.131	1	-4
344.473	1	3
344.815	1	0
345.157	1	0
345.499	1	9
345.841	1	1
346.183	1	-3
346.526	1	5
346.868	1	2
347.210	1	-10
347.552	1	1
347.894	1	5
348.236	1	3
348.578	1	7
348.920	1	10
349.262	1	3
349.604	1	13
349.946	1	8
350.288	1	4
350.630	1	-14
350.972	1	1
351.314	1	3
351.656	1	6
351.998	1	1
352.340	1	2
352.682	1	-10
353.024	1	-5
353.366	1	6
353.708	1	2
354.050	1	5
354.392	1	9
354.734	1	4
355.076	1	3
355.418	1	2
355.760	1	6
356.102	1	9
356.444	1	12
356.785	1	14
357.127	1	6
357.469	1	0
357.811	1	12
358.153	1	1
358.495	1	9
358.837	1	-3
359.179	1	0
359.521	1	-1
359.863	1	-6
360.205	1	-2
360.547	1	4
360.889	1	5
361.231	1	-3
361.572	1	-2
361.914	1	1
362.256	1	8
362.598	1	1
362.940	1	-3
363.282	1	0
363.624	1	-4
363.966	1	5
364.308	1	2
364.649	1	-1
364.991	1	0
365.333	1	11
365.675	1	1
366.017	1	6
366.359	1	5
366.701	1	-10
367.042	1	11
367.384	1	12
367.726	1	12
368.068	1	-4
368.410	1	-4
368.752	1	-3
369.093	1	-1
369.435	1	0
369.777	1	1
370.119	1	7
370.461	1	1
370.803	1	-10
371.144	1	4
371.486	1	13
371.828	1	9
372.170	1	6
372.512	1	-3
372.853	1	4
373.195	1	-11
373.537	1	0
373.879	1	1
374.220	1	-1
374.562	1	4
374.904	1	0
375.246	1	5
375.588	1	10
375.929	1	7
376.271	1	-2
376.613	1	4
376.955	1	-1
377.296	1	11
377.638	1	2
377.980	1	-4
378.321	1	1
378.663	1	4
379.005	1	9
379.347	1	13
379.688	1	-1
380.030	1	-3
380.372	1	2
380.714	1	4
381.055	1	6
381.397	1	-2
381.739	1	11
382.080	1	-15
382.422	1	18
382.764	1	-4
383.105	1	2
383.447	1	5
383.789	1	-1
384.130	1	-4
384.472	1	-8
384.814	1	6
385.156	1	16
385.497	1	3
385.839	1	4
386.180	1	6
386.522	1	2
386.864	1	4
387.205	1	-1
387.547	1	3
387.889	1	16
388.230	1	-1
388.572	1	4
388.914	1	8
389.255	1	2
389.597	1	-14
389.939	1	5
390.280	1	7
390.622	1	-8
390.963	1	3
391.305	1	13
391.647	1	0
391.988	1	-8
392.330	1	4
392.671	1	0
393.013	1	10
393.355	1	8
393.696	1	2
394.038	1	-11
394.379	1	0
394.721	1	7
395.062	1	-6
395.404	1	4
395.746	1	-7
396.087	1	-1
396.429	1	5
396.770	1	2
397.112	1	1
397.453	1	-4
397.795	1	8
398.136	1	4
398.478	1	2
398.819	1	1
399.161	1	-1
399.503	1	0
399.844	1	8
400.186	1	9
400.527	1	6
400.869	1	9
401.210	1	-14
401.552	1	10
401.893	1	7
402.235	1	9
402.576	1	14
402.918	1	2
403.259	1	-2
403.601	1	-13
403.942	1	13
404.284	1	-3
404.625	1	4
404.967	1	3
405.308	1	3
405.649	1	-4
405.991	1	11
406.332	1	2
406.674	1	5
407.015	1	-6
407.357	1	4
407.698	1	-4
408.040	1	3
408.381	1	-4
408.722	1	1
409.064	1	4
409.405	1	10
409.747	1	-1
410.088	1	0
410.430	1	5
410.771	1	1
411.112	1	0
411.454	1	-2
411.795	1	6
412.137	1	2
412.478	1	3
412.819	1	8
413.161	1	-5
413.502	1	-4
413.844	1	3
414.185	1	8
414.526	1	7
414.868	1	15
415.209	1	2
415.550	1	1
415.892	1	-3
416.233	1	-3
416.575	1	4
416.916	1	-13
417.257	1	9
417.599	1	5
417.940	1	-8
418.281	1	3
418.623	1	-4
418.964	1	3
419.305	1	0
419.647	1	-2
419.988	1	-2
420.329	1	4
420.671	1	-4
421.012	1	8
421.353	1	6
421.695	1	-2
422.036	1	2
422.377	1	4
422.718	1	7
423.060	1	-2
423.401	1	-3
423.742	1	0
424.084	1	4
424.425	1	1
424.766	1	1
425.107	1	-2
425.449	1	-2
425.790	1	1
426.131	1	5
426.472	1	-5
426.814	1	6
427.155	1	-1
427.496	1	10
427.837	1	-10
428.179	1	-6
428.520	1	-1
428.861	1	-9
429.202	1	2
429.544	1	2
429.885	1	3
430.226	1	-1
430.567	1	-2
430.909	1	-13
431.250	1	-10
431.591	1	4
431.932	1	13
432.273	1	1
432.615	1	-2
432.956	1	0
433.297	1	7
433.638	1	7
433.979	1	12
434.320	1	6
434.662	1	-4
435.003	1	6
435.344	1	0
435.685	1	1
436.026	1	4
436.368	1	-3
436.709	1	-4
437.050	1	7
437.391	1	1
437.732	1	-1
438.073	1	1
438.414	1	1
438.756	1	3
439.097	1	10
439.438	1	12
439.779	1	-3
440.120	1	2
440.461	1	0
440.802	1	-4
441.143	1	22
441.485	1	0
441.826	1	-2
442.167	1	10
442.508	1	-1
442.849	1	6
443.190	1	-20
443.531	1	-4
443.872	1	5
444.213	1	-4
444.554	1	-1
444.895	1	1
445.237	1	-6
445.578	1	9
445.919	1	4
446.260	1	-1
446.601	1	-1
446.942	1	5
447.283	1	-3
447.624	1	1
447.965	1	-9
448.306	1	-6
448.647	1	10
448.988	1	-6
449.329	1	7
449.670	1	9
450.011	1	0
450.352	1	7
450.693	1	8
451.034	1	9
451.375	1	7
451.716	1	9
452.057	1	7
452.398	1	0
452.739	1	1
453.080	1	11
453.421	1	0
453.762	1	0
454.103	1	2
454.444	1	7
454.785	1	-1
455.126	1	6
455.467	1	-4
455.808	1	5
456.149	1	1
456.490	1	6
456.831	1	18
457.172	1	-4
457.513	1	8
457.854	1	-2
458.195	1	6
458.536	1	-3
458.877	1	-3
459.218	1	12
459.559	1	9
459.899	1	14
460.240	1	-1
460.581	1	10
460.922	1	2
461.263	1	6
461.604	1	4
461.945	1	7
462.286	1	9
462.627	1	6
462.968	1	-15
463.309	1	-7
463.649	1	7
463.990	1	3
464.331	1	3
464.672	1	8
465.013	1	0
465.354	1	9
465.695	1	5
466.036	1	9
466.376	1	-2
466.717	1	-12
467.058	1	10
467.399	1	1
467.740	1	-6
468.081	1	3
468.422	1	7
468.762	1	-7
469.103	1	-8
469.444	1	3
469.785	1	7
470.126	1	2
470.467	1	0
470.807	1	-1
471.148	1	-2
471.489	1	1
471.830	1	12
472.171	1	-5
472.511	1	10
472.852	1	-6
473.193	1	-2
473.534	1	-5
473.875	1	3
474.215	1	-5
474.556	1	-8
474.897	1	-3
475.238	1	0
475.578	1	8
475.919	1	1
476.260	1	1
476.601	1	0
476.942	1	4
477.282	1	-8
477.623	1	4
477.964	1	13
478.305	1	6
478.645	1	-6
478.986	1	-5
479.327	1	2
479.667	1	2
480.008	1	14
480.349	1	7
480.690	1	-10
481.030	1	0
481.371	1	4
481.712	1	2
482.053	1	-1
482.393	1	-10
482.734	1	2
483.075	1	6
483.415	1	4
483.756	1	16
484.097	1	-2
484.437	1	-10
484.778	1	6
485.119	1	8
485.459	1	12
485.800	1	-9
486.141	1	-7
486.481	1	3
486.822	1	6
487.163	1	-6
487.503	1	-4
487.844	1	5
488.185	1	-7
488.525	1	-3
488.866	1	7
489.207	1	9
489.547	1	0
489.888	1	-2
490.228	1	-3
490.569	1	14
490.910	1	-8
491.250	1	10
491.591	1	-6
491.932	1	8
492.272	1	16
492.613	1	5
492.953	1	8
493.294	1	13
493.635	1	-5
493.975	1	9
494.316	1	11
494.656	1	1
494.997	1	1
495.337	1	9
495.678	1	9
496.019	1	-9
496.359	1	2
496.700	1	3
497.040	1	5
497.381	1	-13
497.721	1	-7
498.062	1	-1
498.403	1	9
498.743	1	1
499.084	1	-11
499.424	1	13
499.765	1	-3
500.105	1	3
500.446	1	8
500.786	1	5
501.127	1	12
501.467	1	3
501.808	1	-7
502.148	1	0
502.489	1	-9
502.829	1	9
503.170	1	6
503.510	1	0
503.851	1	-15
504.191	1	0
504.532	1	-11
504.872	1	1
505.213	1	-5
505.553	1	14
505.894	1	3
506.234	1	8
506.575	1	-11
506.915	1	0
507.256	1	1
507.596	1	2
507.936	1	9
508.277	1	-4
508.617	1	9
508.958	1	5
509.298	1	20
509.639	1	14
509.979	1	-5
510.319	1	-7
510.660	1	5
511.000	1	11
511.341	1	3
511.681	1	-3
512.022	1	-1
512.362	1	5
512.702	1	-3
513.043	1	-1
513.383	1	2
513.724	1	5
514.064	1	1
514.404	1	-8
514.745	1	3
515.085	1	2
515.425	1	-10
515.766	1	2
516.106	1	-4
516.447	1	-3
516.787	1	-8
517.127	1	1
517.468	1	-9
517.808	1	6
518.148	1	-1
518.489	1	6
518.829	1	-4
519.169	1	14
519.510	1	0
519.850	1	-6
520.190	1	-1
520.531	1	2
520.871	1	3
521.211	1	4
521.552	1	6
521.892	1	-6
522.232	1	-7
522.573	1	2
522.913	1	7
523.253	1	-5
523.593	1	-18
523.934	1	4
524.274	1	0
524.614	1	-2
524.955	1	-3
525.295	1	-6
525.635	1	9
525.975	1	-3
526.316	1	2
526.656	1	9
526.996	1	12
527.337	1	-5
527.677	1	7
528.017	1	-2
528.357	1	3
528.698	1	0
529.038	1	8
529.378	1	-4
529.718	1	-3
530.058	1	3
530.399	1	11
530.739	1	5
531.079	1	6
531.419	1	-6
531.760	1	6
532.100	1	7
532.440	1	-7
532.780	1	-4
533.120	1	-9
533.461	1	19
533.801	1	9
534.141	1	1
534.481	1	3
534.821	1	3
535.162	1	2
535.502	1	2
535.842	1	11
536.182	1	-1
536.522	1	11
536.862	1	5
537.203	1	7
537.543	1	6
537.883	1	11
538.223	1	8
538.563	1	0
538.903	1	7
539.243	1	2
539.584	1	-8
539.924	1	5
540.264	1	9
540.604	1	1
540.944	1	-6
541.284	1	-5
541.624	1	2
541.964	1	0
542.305	1	-6
542.645	1	3
542.985	1	-5
543.325	1	1
543.665	1	10
544.005	1	-1
544.345	1	-13
544.685	1	4
545.025	1	-11
545.365	1	4
545.705	1	4
546.045	1	14
546.386	1	10
546.726	1	2
547.066	1	2
547.406	1	3
547.746	1	7
548.086	1	11
548.426	1	-8
548.766	1	11
549.106	1	8
549.446	1	7
549.786	1	5
550.126	1	4
550.466	1	-6
550.806	1	3
551.146	1	2
551.486	1	-2
551.826	1	7
552.166	1	1
552.506	1	-8
552.846	1	1
553.186	1	0
553.526	1	-2
553.866	1	9
554.206	1	-1
554.546	1	-2
554.886	1	4
555.226	1	-2
555.566	1	1
555.906	1	1
556.246	1	-1
556.586	1	11
556.926	1	13
557.266	1	3
557.606	1	-3
557.946	1	2
558.286	1	1
558.626	1	6
558.966	1	2
559.306	1	1
559.646	1	-1
559.986	1	2
560.325	1	-9
560.665	1	3
561.005	1	3
561.345	1	-1
561.685	1	4
562.025	1	-3
562.365	1	0
562.705	1	11
563.045	1	6
563.385	1	-3
563.725	1	-3
564.064	1	1
564.404	1	4
564.744	1	7
565.084	1	-7
565.424	1	7
565.764	1	7
566.104	1	-1
566.444	1	9
566.783	1	9
567.123	1	14
567.463	1	2
567.803	1	-5
568.143	1	-3
568.483	1	0
568.823	1	11
569.162	1	3
569.502	1	6
569.842	1	-3
570.182	1	-6
570.522	1	0
570.862	1	7
571.201	1	2
571.541	1	-7
571.881	1	7
572.221	1	8
572.561	1	-8
572.900	1	12
573.240	1	-6
573.580	1	11
573.920	1	-4
574.260	1	3
574.599	1	4
574.939	1	4
575.279	1	3
575.619	1	-3
575.959	1	-2
576.298	1	-4
576.638	1	11
576.978	1	5
577.318	1	12
577.657	1	-8
577.997	1	-8
578.337	1	2
578.677	1	1
579.016	1	6
579.356	1	-8
579.696	1	7
580.036	1	-4
580.375	1	-7
580.715	1	6
581.055	1	4
581.394	1	5
581.734	1	4
582.074	1	-3
582.414	1	2
582.753	1	-1
583.093	1	3
583.433	1	-4
583.772	1	0
584.112	1	7
584.452	1	-1
584.791	1	4
585.131	1	-1
585.471	1	5
585.811	1	0
586.150	1	14
586.490	1	1
586.830	1	-5
587.169	1	-1
587.509	1	-2
587.849	1	3
588.188	1	0
588.528	1	4
588.867	1	8
589.207	1	-5
589.547	1	2
589.886	1	-4
590.226	1	-3
590.566	1	-1
590.905	1	14
591.245	1	0
591.585	1	-2
591.924	1	-6
592.264	1	-6
592.603	1	0
592.943	1	-3
593.283	1	1
593.622	1	1
593.962	1	12
594.301	1	12
594.641	1	-2
594.981	1	-5
595.320	1	5
595.660	1	3
595.999	1	2
596.339	1	7
596.678	1	-4
597.018	1	2
597.358	1	8
597.697	1	0
598.037	1	14
598.376	1	11
598.716	1	-13
599.055	1	-1
599.395	1	7
599.734	1	-2
600.074	1	3
600.413	1	-8
600.753	1	12
601.092	1	-9
601.432	1	-2
601.771	1	1
602.111	1	2
602.451	1	1
602.790	1	4
603.130	1	-3
603.469	1	-10
603.809	1	11
604.148	1	0
604.487	1	-1
604.827	1	-12
605.166	1	-7
605.506	1	5
605.845	1	3
606.185	1	-6
606.524	1	1
606.864	1	3
607.203	1	14
607.543	1	-7
607.882	1	-4
608.222	1	7
608.561	1	7
608.901	1	9
609.240	1	-2
609.579	1	2
609.919	1	-1
610.258	1	10
610.598	1	13
610.937	1	-2
611.277	1	-7
611.616	1	-3
611.955	1	10
612.295	1	7
612.634	1	8
612.974	1	3
613.313	1	4
613.652	1	-4
613.992	1	3
614.331	1	-1
614.671	1	0
615.010	1	0
615.349	1	6
615.689	1	4
616.028	1	7
616.368	1	-4
616.707	1	4
617.046	1	15
617.386	1	-2
617.725	1	13
618.064	1	7
618.404	1	6
618.743	1	0
619.082	1	7
619.422	1	-2
619.761	1	-1
620.100	1	6
620.440	1	-2
620.779	1	-4
621.118	1	6
621.458	1	7
621.797	1	-3
622.136	1	5
622.476	1	9
622.815	1	-6
623.154	1	10
623.494	1	-3
623.833	1	3
624.172	1	13
624.511	1	0
624.851	1	3
625.190	1	3
625.529	1	10
625.869	1	-2
626.208	1	-1
626.547	1	-4
626.886	1	-3
627.226	1	3
627.565	1	18
627.904	1	-2
628.243	1	2
628.583	1	4
628.922	1	-5
629.261	1	5
629.600	1	16
629.940	1	1
630.279	1	-5
630.618	1	5
630.957	1	-1
631.297	1	0
631.636	1	1
631.975	1	0
632.314	1	4
632.653	1	-16
632.993	1	0
633.332	1	13
633.671	1	5
634.010	1	10
634.349	1	1
634.689	1	11
635.028	1	-1
635.367	1	-7
635.706	1	0
636.045	1	4
636.384	1	2
636.724	1	11
637.063	1	9
637.402	1	8
637.741	1	8
638.080	1	-7
638.419	1	3
638.759	1	-2
639.098	1	9
639.437	1	-4
639.776	1	-1
640.115	1	0
640.454	1	7
640.793	1	6
641.132	1	4
641.472	1	-5
641.811	1	2
642.150	1	0
642.489	1	-5
642.828	1	7
643.167	1	9
643.506	1	1
643.845	1	-2
644.184	1	1
644.524	1	-5
644.863	1	-9
645.202	1	-1
645.541	1	-6
645.880	1	-1
646.219	1	5
646.558	1	5
646.897	1	-9
647.236	1	6
647.575	1	4
647.914	1	-5
648.253	1	2
648.592	1	-8
648.931	1	3
649.270	1	12
649.610	1	9
649.949	1	-2
650.288	1	-3
650.627	1	0
650.966	1	-1
651.305	1	0
651.644	1	-3
651.983	1	1
652.322	1	13
652.661	1	-1
653.000	1	6
653.339	1	1
653.678	1	3
654.017	1	-6
654.356	1	9
654.695	1	6
655.034	1	-2
655.373	1	-2
655.712	1	-4
656.051	1	7
656.390	1	1
656.729	1	-1
657.068	1	-6
657.406	1	1
657.745	1	-5
658.084	1	8
658.423	1	2
658.762	1	-11
659.101	1	-7
659.440	1	14
659.779	1	3
660.118	1	11
660.457	1	-7
660.796	1	2
661.135	1	7
661.474	1	3
661.813	1	4
662.152	1	6
662.491	1	2
662.829	1	-8
663.168	1	-3
663.507	1	4
663.846	1	11
664.185	1	6
664.524	1	-3
664.863	1	6
665.202	1	-8
665.541	1	-1
665.879	1	-7
666.218	1	-7
666.557	1	2
666.896	1	9
667.235	1	3
667.574	1	6
667.913	1	8
668.251	1	3
668.590	1	3
668.929	1	8
669.268	1	-4
669.607	1	-3
669.946	1	6
670.285	1	2
670.623	1	5
670.962	1	7
671.301	1	3
671.640	1	-10
671.979	1	11
672.317	1	-4
672.656	1	6
672.995	1	9
673.334	1	8
673.673	1	11
674.011	1	13
674.350	1	-7
674.689	1	0
675.028	1	1
675.367	1	2
675.705	1	-10
676.044	1	-7
676.383	1	3
676.722	1	0
677.060	1	1
677.399	1	-8
677.738	1	-5
678.077	1	2
678.416	1	-4
678.754	1	-2
679.093	1	4
679.432	1	3
679.771	1	1
680.109	1	9
680.448	1	3
680.787	1	9
681.125	1	2
681.464	1	0
681.803	1	-5
682.142	1	8
682.480	1	-1
682.819	1	0
683.158	1	3
683.496	1	-6
683.835	1	8
684.174	1	5
684.512	1	-4
684.851	1	-6
685.190	1	8
685.529	1	8
685.867	1	0
686.206	1	3
686.545	1	9
686.883	1	-6
687.222	1	-5
687.561	1	4
687.899	1	-3
688.238	1	5
688.577	1	-13
688.746	1	9