File: Analysis/GaN_68K_200ms/GaN_sample E_spot4_UVVIS_68 K_200um_200 ms 2x2mm1_816.txt
340.368	1	3
340.710	1	1
341.052	1	4
341.394	1	-5
341.737	1	2
342.079	1	-6
342.421	1	2
342.763	1	-2
343.105	1	14
343.447	1	2
343.789	1	0
344.131	1	-6
344.473	1	1
344.815	1	-1
345.157	1	2
345.499	1	5
345.841	1	1
346.183	1	-3
346.526	1	4
346.868	1	-4
347.210	1	-7
347.552	1	-3
347.894	1	-3
348.236	1	4
348.578	1	-4
348.920	1	5
349.262	1	-6
349.604	1	8
349.946	1	7
350.288	1	8
350.630	1	-6
350.972	1	2
351.314	1	-2
351.656	1	-2
351.998	1	2
352.340	1	4
352.682	1	-3
353.024	1	-4
353.366	1	5
353.708	1	5
354.050	1	5
354.392	1	-3
354.734	1	-14
355.076	1	2
355.418	1	-4
355.760	1	1
356.102	1	-7
356.444	1	1
356.785	1	15
357.127	1	2
357.469	1	-1
357.811	1	8
358.153	1	-1
358.495	1	18
358.837	1	-2
359.179	1	10
359.521	1	-4
359.863	1	-7
360.205	1	-6
360.547	1	1
360.889	1	4
361.231	1	-5
361.572	1	4
361.914	1	-6
362.256	1	-1
362.598	1	2
362.940	1	-1
363.282	1	7
363.624	1	1
363.966	1	6
364.308	1	-3
364.649	1	-5
364.991	1	7
365.333	1	6
365.675	1	6
366.017	1	2
366.359	1	-3
366.701	1	-9
367.042	1	5
367.384	1	8
367.726	1	5
368.068	1	0
368.410	1	-9
368.752	1	-7
369.093	1	-6
369.435	1	0
369.777	1	-10
370.119	1	2
370.461	1	4
370.803	1	0
371.144	1	5
371.486	1	8
371.828	1	3
372.170	1	7
372.512	1	-5
372.853	1	-1
373.195	1	-5
373.537	1	6
373.879	1	5
374.220	1	1
374.562	1	1
374.904	1	3
375.246	1	-10
375.588	1	4
375.929	1	8
376.271	1	-5
376.613	1	1
376.955	1	4
377.296	1	3
377.638	1	-7
377.980	1	7
378.321	1	7
378.663	1	-4
379.005	1	7
379.347	1	1
379.688	1	0
380.030	1	-5
380.372	1	2
380.714	1	14
381.055	1	-1
381.397	1	0
381.739	1	0
382.080	1	-8
382.422	1	0
382.764	1	-10
383.105	1	-4
383.447	1	8
383.789	1	2
384.130	1	-8
384.472	1	-6
384.814	1	9
385.156	1	3
385.497	1	9
385.839	1	11
386.180	1	8
386.522	1	12
386.864	1	-6
387.205	1	-4
387.547	1	-1
387.889	1	7
388.230	1	-2
388.572	1	-2
388.914	1	2
389.255	1	7
389.597	1	-8
389.939	1	12
390.280	1	4
390.622	1	-4
390.963	1	5
391.305	1	10
391.647	1	-5
391.988	1	2
392.330	1	1
392.671	1	0
393.013	1	-5
393.355	1	13
393.696	1	0
394.038	1	-10
394.379	1	-10
394.721	1	4
395.062	1	-10
395.404	1	0
395.746	1	-7
396.087	1	11
396.429	1	5
396.770	1	0
397.112	1	-9
397.453	1	-10
397.795	1	5
398.136	1	5
398.478	1	-11
398.819	1	6
399.161	1	5
399.503	1	-2
399.844	1	-5
400.186	1	8
400.527	1	-3
400.869	1	6
401.210	1	-3
401.552	1	14
401.893	1	-2
402.235	1	11
402.576	1	6
402.918	1	-1
403.259	1	-6
403.601	1	-7
403.942	1	2
404.284	1	2
404.625	1	2
404.967	1	0
405.308	1	6
405.649	1	-6
405.991	1	4
406.332	1	0
406.674	1	-2
407.015	1	-16
407.357	1	1
407.698	1	-13
408.040	1	-3
408.381	1	5
408.722	1	-5
409.064	1	12
409.405	1	-2
409.747	1	-3
410.088	1	5
410.430	1	0
410.771	1	-4
411.112	1	8
411.454	1	8
411.795	1	2
412.137	1	11
412.478	1	2
412.819	1	0
413.161	1	-4
413.502	1	-4
413.844	1	-3
414.185	1	2
414.526	1	-2
414.868	1	6
415.209	1	-4
415.550	1	2
415.892	1	-2
416.233	1	10
416.575	1	-5
416.916	1	-1
417.257	1	-3
417.599	1	-2
417.940	1	-2
418.281	1	3
418.623	1	-2
418.964	1	6
419.305	1	-5
419.647	1	7
419.988	1	-8
420.329	1	11
420.671	1	-2
421.012	1	4
421.353	1	7
421.695	1	-2
422.036	1	-4
422.377	1	-5
422.718	1	2
423.060	1	-9
423.401	1	5
423.742	1	-3
424.084	1	10
424.425	1	2
424.766	1	8
425.107	1	-2
425.449	1	2
425.790	1	-6
426.131	1	9
426.472	1	-7
426.814	1	3
427.155	1	6
427.496	1	11
427.837	1	-6
428.179	1	-11
428.520	1	-11
428.861	1	-5
429.202	1	1
429.544	1	6
429.885	1	-2
430.226	1	-3
430.567	1	10
430.909	1	-8
431.250	1	-18
431.591	1	-6
431.932	1	3
432.273	1	-5
432.615	1	2
432.956	1	-6
433.297	1	2
433.638	1	4
433.979	1	6
434.320	1	-8
434.662	1	2
435.003	1	9
435.344	1	1
435.685	1	11
436.026	1	1
436.368	1	-3
436.709	1	-5
437.050	1	3
437.391	1	2
437.732	1	-1
438.073	1	6
438.414	1	0
438.756	1	9
439.097	1	8
439.438	1	10
439.779	1	-7
440.120	1	-13
440.461	1	1
440.802	1	2
441.143	1	9
441.485	1	-1
441.826	1	-9
442.167	1	-4
442.508	1	4
442.849	1	6
443.190	1	-18
443.531	1	-4
443.872	1	-3
444.213	1	0
444.554	1	-11
444.895	1	-5
445.237	1	-9
445.578	1	2
445.919	1	6
446.260	1	1
446.601	1	-7
446.942	1	5
447.283	1	-7
447.624	1	8
447.965	1	-3
448.306	1	1
448.647	1	11
448.988	1	-15
449.329	1	2
449.670	1	4
450.011	1	-1
450.352	1	9
450.693	1	0
451.034	1	2
451.375	1	2
451.716	1	11
452.057	1	5
452.398	1	-4
452.739	1	1
453.080	1	10
453.421	1	2
453.762	1	7
454.103	1	6
454.444	1	1
454.785	1	4
455.126	1	7
455.467	1	7
455.808	1	-5
456.149	1	-6
456.490	1	-2
456.831	1	14
457.172	1	-14
457.513	1	3
457.854	1	-4
458.195	1	-12
458.536	1	8
458.877	1	5
459.218	1	0
459.559	1	-7
459.899	1	-1
460.240	1	2
460.581	1	8
460.922	1	3
461.263	1	17
461.604	1	0
461.945	1	5
462.286	1	3
462.627	1	0
462.968	1	1
463.309	1	-5
463.649	1	-8
463.990	1	1
464.331	1	5
464.672	1	0
465.013	1	-10
465.354	1	4
465.695	1	5
466.036	1	0
466.376	1	-4
466.717	1	-4
467.058	1	16
467.399	1	-5
467.740	1	1
468.081	1	-6
468.422	1	0
468.762	1	-10
469.103	1	-5
469.444	1	0
469.785	1	9
470.126	1	0
470.467	1	-6
470.807	1	0
471.148	1	-7
471.489	1	-10
471.830	1	8
472.171	1	-3
472.511	1	7
472.852	1	-14
473.193	1	-5
473.534	1	-3
473.875	1	0
474.215	1	2
474.556	1	-13
474.897	1	-4
475.238	1	-1
475.578	1	-2
475.919	1	3
476.260	1	-4
476.601	1	3
476.942	1	-2
477.282	1	-18
477.623	1	1
477.964	1	4
478.305	1	0
478.645	1	-3
478.986	1	-3
479.327	1	-4
479.667	1	2
480.008	1	8
480.349	1	-7
480.690	1	-1
481.030	1	-5
481.371	1	6
481.712	1	8
482.053	1	-2
482.393	1	-14
482.734	1	7
483.075	1	1
483.415	1	1
483.756	1	6
484.097	1	-6
484.437	1	-4
484.778	1	-6
485.119	1	-3
485.459	1	3
485.800	1	-4
486.141	1	-14
486.481	1	3
486.822	1	9
487.163	1	-12
487.503	1	-13
487.844	1	0
488.185	1	-2
488.525	1	-8
488.866	1	2
489.207	1	0
489.547	1	-5
489.888	1	5
490.228	1	-6
490.569	1	9
490.910	1	-13
491.250	1	-3
491.591	1	-13
491.932	1	7
492.272	1	6
492.613	1	3
492.953	1	6
493.294	1	7
493.635	1	-8
493.975	1	-7
494.316	1	10
494.656	1	4
494.997	1	-6
495.337	1	9
495.678	1	6
496.019	1	-2
496.359	1	7
496.700	1	-6
497.040	1	-1
497.381	1	-22
497.721	1	-6
498.062	1	-7
498.403	1	7
498.743	1	6
499.084	1	-10
499.424	1	13
499.765	1	0
500.105	1	4
500.446	1	5
500.786	1	-1
501.127	1	4
501.467	1	-3
501.808	1	-13
502.148	1	1
502.489	1	-2
502.829	1	-4
503.170	1	-2
503.510	1	-1
503.851	1	-8
504.191	1	0
504.532	1	-10
504.872	1	-7
505.213	1	-3
505.553	1	2
505.894	1	-1
506.234	1	13
506.575	1	-12
506.915	1	-1
507.256	1	-6
507.596	1	6
507.936	1	-7
508.277	1	-3
508.617	1	14
508.958	1	20
509.298	1	10
509.639	1	4
509.979	1	-2
510.319	1	-10
510.660	1	11
511.000	1	0
511.341	1	-5
511.681	1	5
512.022	1	4
512.362	1	-3
512.702	1	-3
513.043	1	2
513.383	1	-6
513.724	1	5
514.064	1	3
514.404	1	3
514.745	1	4
515.085	1	-6
515.425	1	-7
515.766	1	-2
516.106	1	-8
516.447	1	-3
516.787	1	5
517.127	1	1
517.468	1	0
517.808	1	10
518.148	1	-7
518.489	1	0
518.829	1	-11
519.169	1	3
519.510	1	-3
519.850	1	-13
520.190	1	-2
520.531	1	5
520.871	1	-8
521.211	1	8
521.552	1	0
521.892	1	-10
522.232	1	-11
522.573	1	-1
522.913	1	-1
523.253	1	0
523.593	1	-12
523.934	1	6
524.274	1	-7
524.614	1	1
524.955	1	2
525.295	1	-1
525.635	1	1
525.975	1	-7
526.316	1	-5
526.656	1	13
526.996	1	9
527.337	1	-4
527.677	1	15
528.017	1	-5
528.357	1	3
528.698	1	-5
529.038	1	-2
529.378	1	-1
529.718	1	-1
530.058	1	-11
530.399	1	17
530.739	1	-12
531.079	1	6
531.419	1	13
531.760	1	3
532.100	1	-2
532.440	1	-10
532.780	1	-5
533.120	1	-8
533.461	1	12
533.801	1	-3
534.141	1	7
534.481	1	1
534.821	1	1
535.162	1	-1
535.502	1	6
535.842	1	-1
536.182	1	1
536.522	1	6
536.862	1	0
537.203	1	11
537.543	1	-8
537.883	1	5
538.223	1	3
538.563	1	3
538.903	1	0
539.243	1	-4
539.584	1	8
539.924	1	10
540.264	1	-5
540.604	1	4
540.944	1	4
541.284	1	-4
541.624	1	-5
541.964	1	0
542.305	1	-8
542.645	1	-2
542.985	1	2
543.325	1	-4
543.665	1	6
544.005	1	-8
544.345	1	-5
544.685	1	2
545.025	1	-9
545.365	1	1
545.705	1	8
546.045	1	8
546.386	1	4
546.726	1	0
547.066	1	-10
547.406	1	7
547.746	1	7
548.086	1	5
548.426	1	-4
548.766	1	7
549.106	1	10
549.446	1	-1
549.786	1	-3
550.126	1	3
550.466	1	-11
550.806	1	6
551.146	1	-1
551.486	1	-2
551.826	1	7
552.166	1	2
552.506	1	-9
552.846	1	-2
553.186	1	-2
553.526	1	-8
553.866	1	5
554.206	1	-7
554.546	1	-6
554.886	1	8
555.226	1	-1
555.566	1	-4
555.906	1	8
556.246	1	-7
556.586	1	7
556.926	1	6
557.266	1	4
557.606	1	-5
557.946	1	1
558.286	1	-2
558.626	1	7
558.966	1	1
559.306	1	-7
559.646	1	-4
559.986	1	-6
560.325	1	-21
560.665	1	-1
561.005	1	2
561.345	1	0
561.685	1	-5
562.025	1	-2
562.365	1	-2
562.705	1	8
563.045	1	5
563.385	1	-8
563.725	1	2
564.064	1	-2
564.404	1	2
564.744	1	8
565.084	1	1
565.424	1	-2
565.764	1	11
566.104	1	-1
566.444	1	8
566.783	1	0
567.123	1	13
567.463	1	2
567.803	1	-1
568.143	1	-7
568.483	1	-8
568.823	1	13
569.162	1	3
569.502	1	-2
569.842	1	-12
570.182	1	-3
570.522	1	9
570.862	1	0
571.201	1	4
571.541	1	-10
571.881	1	0
572.221	1	6
572.561	1	-5
572.900	1	13
573.240	1	-8
573.580	1	0
573.920	1	0
574.260	1	-8
574.599	1	-8
574.939	1	-4
575.279	1	2
575.619	1	11
575.959	1	-13
576.298	1	0
576.638	1	-4
576.978	1	2
577.318	1	0
577.657	1	-17
577.997	1	-1
578.337	1	-2
578.677	1	-9
579.016	1	16
579.356	1	-3
579.696	1	2
580.036	1	-8
580.375	1	7
580.715	1	4
581.055	1	8
581.394	1	-8
581.734	1	7
582.074	1	-8
582.414	1	0
582.753	1	9
583.093	1	-7
583.433	1	0
583.772	1	-14
584.112	1	2
584.452	1	7
584.791	1	1
585.131	1	-8
585.471	1	-7
585.811	1	-3
586.150	1	0
586.490	1	-6
586.830	1	-4
587.169	1	-7
587.509	1	2
587.849	1	3
588.188	1	0
588.528	1	1
588.867	1	0
589.207	1	-3
589.547	1	-1
589.886	1	-1
590.226	1	-1
590.566	1	-3
590.905	1	10
591.245	1	-3
591.585	1	-7
591.924	1	-6
592.264	1	4
592.603	1	3
592.943	1	-5
593.283	1	9
593.622	1	-8
593.962	1	5
594.301	1	13
594.641	1	-4
594.981	1	1
595.320	1	5
595.660	1	-10
595.999	1	10
596.339	1	2
596.678	1	-9
597.018	1	0
597.358	1	-5
597.697	1	-8
598.037	1	-1
598.376	1	8
598.716	1	-10
599.055	1	2
599.395	1	9
599.734	1	2
600.074	1	1
600.413	1	0
600.753	1	3
601.092	1	-13
601.432	1	1
601.771	1	8
602.111	1	-10
602.451	1	2
602.790	1	-1
603.130	1	-2
603.469	1	-2
603.809	1	2
604.148	1	2
604.487	1	-2
604.827	1	-12
605.166	1	-6
605.506	1	1
605.845	1	-3
606.185	1	8
606.524	1	0
606.864	1	-2
607.203	1	4
607.543	1	-6
607.882	1	-3
608.222	1	2
608.561	1	8
608.901	1	10
609.240	1	-7
609.579	1	-1
609.919	1	-3
610.258	1	6
610.598	1	1
610.937	1	-3
611.277	1	2
611.616	1	-10
611.955	1	3
612.295	1	10
612.634	1	3
612.974	1	17
613.313	1	17
613.652	1	-10
613.992	1	-8
614.331	1	1
614.671	1	2
615.010	1	4
615.349	1	-2
615.689	1	2
616.028	1	-4
616.368	1	-6
616.707	1	4
617.046	1	4
617.386	1	3
617.725	1	-1
618.064	1	0
618.404	1	7
618.743	1	5
619.082	1	0
619.422	1	2
619.761	1	-1
620.100	1	0
620.440	1	0
620.779	1	1
621.118	1	-11
621.458	1	9
621.797	1	3
622.136	1	4
622.476	1	0
622.815	1	-3
623.154	1	3
623.494	1	6
623.833	1	-10
624.172	1	4
624.511	1	-8
624.851	1	-5
625.190	1	2
625.529	1	3
625.869	1	4
626.208	1	-7
626.547	1	6
626.886	1	-2
627.226	1	0
627.565	1	1
627.904	1	-3
628.243	1	-7
628.583	1	-9
628.922	1	-3
629.261	1	7
629.600	1	2
629.940	1	-8
630.279	1	-12
630.618	1	-2
630.957	1	0
631.297	1	-8
631.636	1	-1
631.975	1	1
632.314	1	12
632.653	1	-2
632.993	1	-4
633.332	1	-1
633.671	1	-2
634.010	1	-3
634.349	1	5
634.689	1	2
635.028	1	-2
635.367	1	-7
635.706	1	-8
636.045	1	-3
636.384	1	-2
636.724	1	-7
637.063	1	-2
637.402	1	12
637.741	1	11
638.080	1	1
638.419	1	4
638.759	1	-6
639.098	1	-1
639.437	1	-6
639.776	1	-4
640.115	1	-11
640.454	1	11
640.793	1	5
641.132	1	10
641.472	1	-9
641.811	1	-3
642.150	1	-4
642.489	1	5
642.828	1	2
643.167	1	5
643.506	1	-8
643.845	1	-6
644.184	1	1
644.524	1	-4
644.863	1	-11
645.202	1	0
645.541	1	-2
645.880	1	6
646.219	1	2
646.558	1	-3
646.897	1	-7
647.236	1	6
647.575	1	-4
647.914	1	-10
648.253	1	-2
648.592	1	-8
648.931	1	5
649.270	1	15
649.610	1	11
649.949	1	0
650.288	1	-5
650.627	1	7
650.966	1	6
651.305	1	-4
651.644	1	-3
651.983	1	5
652.322	1	2
652.661	1	2
653.000	1	2
653.339	1	12
653.678	1	2
654.017	1	-4
654.356	1	3
654.695	1	9
655.034	1	3
655.373	1	-4
655.712	1	3
656.051	1	2
656.390	1	-9
656.729	1	7
657.068	1	-5
657.406	1	4
657.745	1	-6
658.084	1	3
658.423	1	-17
658.762	1	-2
659.101	1	-9
659.440	1	10
659.779	1	-1
660.118	1	3
660.457	1	-1
660.796	1	2
661.135	1	2
661.474	1	-1
661.813	1	-1
662.152	1	9
662.491	1	3
662.829	1	-7
663.168	1	-6
663.507	1	2
663.846	1	11
664.185	1	0
664.524	1	-3
664.863	1	0
665.202	1	-3
665.541	1	-3
665.879	1	-5
666.218	1	-7
666.557	1	-1
666.896	1	-6
667.235	1	4
667.574	1	4
667.913	1	-2
668.251	1	0
668.590	1	-2
668.929	1	-1
669.268	1	-6
669.607	1	-11
669.946	1	7
670.285	1	1
670.623	1	-1
670.962	1	-3
671.301	1	-3
671.640	1	-16
671.979	1	8
672.317	1	-7
672.656	1	-4
672.995	1	7
673.334	1	-5
673.673	1	11
674.011	1	9
674.350	1	-6
674.689	1	-1
675.028	1	3
675.367	1	6
675.705	1	-10
676.044	1	-7
676.383	1	1
676.722	1	-3
677.060	1	-4
677.399	1	1
677.738	1	-5
678.077	1	-3
678.416	1	0
678.754	1	-3
679.093	1	3
679.432	1	-13
679.771	1	-4
680.109	1	3
680.448	1	4
680.787	1	1
681.125	1	9
681.464	1	0
681.803	1	-15
682.142	1	8
682.480	1	-5
682.819	1	1
683.158	1	-1
683.496	1	-4
683.835	1	-1
684.174	1	-4
684.512	1	-9
684.851	1	-5
685.190	1	5
685.529	1	-7
685.867	1	-11
686.206	1	2
686.545	1	4
686.883	1	-6
687.222	1	-7
687.561	1	0
687.899	1	-8
688.238	1	3
688.577	1	-3
688.746	1	8