File: Analysis/GaN_68K_200ms/GaN_sample E_spot4_UVVIS_68 K_200um_200 ms 2x2mm1_630.txt
340.368	1	1
340.710	1	-6
341.052	1	4
341.394	1	-3
341.737	1	5
342.079	1	-8
342.421	1	-5
342.763	1	2
343.105	1	1
343.447	1	3
343.789	1	2
344.131	1	-5
344.473	1	-5
344.815	1	10
345.157	1	4
345.499	1	3
345.841	1	3
346.183	1	-1
346.526	1	7
346.868	1	1
347.210	1	-4
347.552	1	2
347.894	1	5
348.236	1	6
348.578	1	0
348.920	1	12
349.262	1	0
349.604	1	6
349.946	1	2
350.288	1	-2
350.630	1	-10
350.972	1	-4
351.314	1	-1
351.656	1	5
351.998	1	-3
352.340	1	-5
352.682	1	-5
353.024	1	-13
353.366	1	2
353.708	1	3
354.050	1	4
354.392	1	6
354.734	1	-3
355.076	1	-1
355.418	1	2
355.760	1	4
356.102	1	-12
356.444	1	3
356.785	1	9
357.127	1	2
357.469	1	2
357.811	1	13
358.153	1	1
358.495	1	13
358.837	1	4
359.179	1	-3
359.521	1	0
359.863	1	-5
360.205	1	-7
360.547	1	5
360.889	1	-4
361.231	1	-3
361.572	1	-4
361.914	1	6
362.256	1	4
362.598	1	-2
362.940	1	5
363.282	1	-5
363.624	1	-1
363.966	1	-1
364.308	1	-5
364.649	1	-5
364.991	1	4
365.333	1	1
365.675	1	4
366.017	1	-10
366.359	1	0
366.701	1	-5
367.042	1	-4
367.384	1	-11
367.726	1	5
368.068	1	-1
368.410	1	-1
368.752	1	-7
369.093	1	1
369.435	1	-8
369.777	1	-5
370.119	1	3
370.461	1	-3
370.803	1	2
371.144	1	2
371.486	1	5
371.828	1	0
372.170	1	11
372.512	1	-3
372.853	1	-1
373.195	1	-8
373.537	1	0
373.879	1	12
374.220	1	-1
374.562	1	2
374.904	1	10
375.246	1	4
375.588	1	-6
375.929	1	1
376.271	1	-6
376.613	1	2
376.955	1	-5
377.296	1	-1
377.638	1	-3
377.980	1	5
378.321	1	-6
378.663	1	-19
379.005	1	14
379.347	1	12
379.688	1	-2
380.030	1	-6
380.372	1	1
380.714	1	7
381.055	1	-2
381.397	1	-6
381.739	1	10
382.080	1	-17
382.422	1	5
382.764	1	-2
383.105	1	3
383.447	1	7
383.789	1	1
384.130	1	-4
384.472	1	-6
384.814	1	12
385.156	1	13
385.497	1	9
385.839	1	7
386.180	1	10
386.522	1	12
386.864	1	-6
387.205	1	-6
387.547	1	0
387.889	1	4
388.230	1	5
388.572	1	8
388.914	1	19
389.255	1	8
389.597	1	-7
389.939	1	6
390.280	1	19
390.622	1	0
390.963	1	8
391.305	1	4
391.647	1	-2
391.988	1	2
392.330	1	15
392.671	1	1
393.013	1	10
393.355	1	15
393.696	1	-9
394.038	1	-1
394.379	1	-4
394.721	1	5
395.062	1	-12
395.404	1	7
395.746	1	-1
396.087	1	-1
396.429	1	9
396.770	1	6
397.112	1	-6
397.453	1	-9
397.795	1	10
398.136	1	9
398.478	1	-1
398.819	1	6
399.161	1	0
399.503	1	5
399.844	1	-1
400.186	1	2
400.527	1	0
400.869	1	14
401.210	1	3
401.552	1	13
401.893	1	-11
402.235	1	11
402.576	1	12
402.918	1	-1
403.259	1	-1
403.601	1	-12
403.942	1	12
404.284	1	1
404.625	1	4
404.967	1	-1
405.308	1	6
405.649	1	-4
405.991	1	7
406.332	1	-7
406.674	1	-4
407.015	1	-7
407.357	1	4
407.698	1	-7
408.040	1	-1
408.381	1	-2
408.722	1	-6
409.064	1	6
409.405	1	3
409.747	1	-2
410.088	1	1
410.430	1	5
410.771	1	4
411.112	1	10
411.454	1	11
411.795	1	1
412.137	1	9
412.478	1	10
412.819	1	-1
413.161	1	-1
413.502	1	-7
413.844	1	3
414.185	1	3
414.526	1	-3
414.868	1	11
415.209	1	-1
415.550	1	-5
415.892	1	-11
416.233	1	1
416.575	1	0
416.916	1	4
417.257	1	2
417.599	1	1
417.940	1	-3
418.281	1	-1
418.623	1	2
418.964	1	7
419.305	1	-4
419.647	1	1
419.988	1	-7
420.329	1	-4
420.671	1	3
421.012	1	8
421.353	1	16
421.695	1	8
422.036	1	3
422.377	1	0
422.718	1	-10
423.060	1	-10
423.401	1	3
423.742	1	-8
424.084	1	2
424.425	1	7
424.766	1	1
425.107	1	1
425.449	1	-1
425.790	1	-4
426.131	1	8
426.472	1	-13
426.814	1	8
427.155	1	-2
427.496	1	6
427.837	1	-1
428.179	1	-3
428.520	1	-11
428.861	1	-4
429.202	1	11
429.544	1	7
429.885	1	-7
430.226	1	-12
430.567	1	5
430.909	1	-9
431.250	1	-8
431.591	1	6
431.932	1	5
432.273	1	-8
432.615	1	-3
432.956	1	2
433.297	1	7
433.638	1	2
433.979	1	0
434.320	1	-3
434.662	1	-8
435.003	1	6
435.344	1	5
435.685	1	8
436.026	1	4
436.368	1	6
436.709	1	-1
437.050	1	6
437.391	1	-3
437.732	1	-5
438.073	1	12
438.414	1	4
438.756	1	5
439.097	1	8
439.438	1	1
439.779	1	-7
440.120	1	1
440.461	1	-3
440.802	1	2
441.143	1	10
441.485	1	3
441.826	1	-10
442.167	1	2
442.508	1	-3
442.849	1	3
443.190	1	-7
443.531	1	-3
443.872	1	-8
444.213	1	-2
444.554	1	5
444.895	1	-7
445.237	1	1
445.578	1	10
445.919	1	-1
446.260	1	3
446.601	1	-5
446.942	1	3
447.283	1	0
447.624	1	0
447.965	1	-14
448.306	1	-3
448.647	1	21
448.988	1	-14
449.329	1	-1
449.670	1	5
450.011	1	6
450.352	1	0
450.693	1	-2
451.034	1	6
451.375	1	4
451.716	1	12
452.057	1	14
452.398	1	-6
452.739	1	1
453.080	1	9
453.421	1	2
453.762	1	-1
454.103	1	2
454.444	1	7
454.785	1	-7
455.126	1	-2
455.467	1	4
455.808	1	-7
456.149	1	4
456.490	1	7
456.831	1	15
457.172	1	-1
457.513	1	10
457.854	1	5
458.195	1	-4
458.536	1	7
458.877	1	-9
459.218	1	8
459.559	1	0
459.899	1	7
460.240	1	2
460.581	1	3
460.922	1	-2
461.263	1	3
461.604	1	-2
461.945	1	0
462.286	1	1
462.627	1	-1
462.968	1	0
463.309	1	5
463.649	1	-7
463.990	1	-1
464.331	1	10
464.672	1	6
465.013	1	-3
465.354	1	2
465.695	1	6
466.036	1	3
466.376	1	-3
466.717	1	-2
467.058	1	14
467.399	1	-3
467.740	1	-8
468.081	1	7
468.422	1	4
468.762	1	-7
469.103	1	-13
469.444	1	-1
469.785	1	5
470.126	1	6
470.467	1	-1
470.807	1	1
471.148	1	-8
471.489	1	-5
471.830	1	10
472.171	1	1
472.511	1	2
472.852	1	-6
473.193	1	-7
473.534	1	-1
473.875	1	-9
474.215	1	0
474.556	1	-9
474.897	1	0
475.238	1	-8
475.578	1	-2
475.919	1	-2
476.260	1	-1
476.601	1	-6
476.942	1	4
477.282	1	-4
477.623	1	5
477.964	1	1
478.305	1	1
478.645	1	4
478.986	1	1
479.327	1	-9
479.667	1	1
480.008	1	12
480.349	1	8
480.690	1	7
481.030	1	-2
481.371	1	-1
481.712	1	6
482.053	1	7
482.393	1	-9
482.734	1	7
483.075	1	19
483.415	1	4
483.756	1	10
484.097	1	-2
484.437	1	-8
484.778	1	4
485.119	1	0
485.459	1	14
485.800	1	-4
486.141	1	-10
486.481	1	10
486.822	1	2
487.163	1	-1
487.503	1	-9
487.844	1	0
488.185	1	-8
488.525	1	-5
488.866	1	4
489.207	1	6
489.547	1	-8
489.888	1	-4
490.228	1	-5
490.569	1	0
490.910	1	-2
491.250	1	-2
491.591	1	-11
491.932	1	1
492.272	1	8
492.613	1	2
492.953	1	-1
493.294	1	4
493.635	1	-1
493.975	1	0
494.316	1	0
494.656	1	-1
494.997	1	-2
495.337	1	-6
495.678	1	8
496.019	1	-15
496.359	1	5
496.700	1	-2
497.040	1	7
497.381	1	-15
497.721	1	-1
498.062	1	2
498.403	1	1
498.743	1	3
499.084	1	-6
499.424	1	4
499.765	1	5
500.105	1	5
500.446	1	3
500.786	1	-2
501.127	1	3
501.467	1	-3
501.808	1	-6
502.148	1	-1
502.489	1	1
502.829	1	11
503.170	1	11
503.510	1	5
503.851	1	-21
504.191	1	5
504.532	1	-6
504.872	1	-5
505.213	1	0
505.553	1	2
505.894	1	1
506.234	1	6
506.575	1	-3
506.915	1	-1
507.256	1	3
507.596	1	2
507.936	1	6
508.277	1	0
508.617	1	8
508.958	1	9
509.298	1	4
509.639	1	3
509.979	1	3
510.319	1	-6
510.660	1	1
511.000	1	0
511.341	1	-10
511.681	1	9
512.022	1	-5
512.362	1	7
512.702	1	-7
513.043	1	4
513.383	1	-4
513.724	1	11
514.064	1	14
514.404	1	-1
514.745	1	-6
515.085	1	-6
515.425	1	-8
515.766	1	2
516.106	1	3
516.447	1	-4
516.787	1	8
517.127	1	2
517.468	1	0
517.808	1	-3
518.148	1	3
518.489	1	1
518.829	1	-8
519.169	1	5
519.510	1	0
519.850	1	-12
520.190	1	-2
520.531	1	10
520.871	1	-2
521.211	1	1
521.552	1	1
521.892	1	-11
522.232	1	-4
522.573	1	2
522.913	1	-2
523.253	1	1
523.593	1	-11
523.934	1	9
524.274	1	-4
524.614	1	5
524.955	1	1
525.295	1	-4
525.635	1	6
525.975	1	-19
526.316	1	-9
526.656	1	21
526.996	1	7
527.337	1	-1
527.677	1	12
528.017	1	-7
528.357	1	2
528.698	1	6
529.038	1	3
529.378	1	9
529.718	1	-1
530.058	1	-2
530.399	1	9
530.739	1	1
531.079	1	10
531.419	1	10
531.760	1	2
532.100	1	7
532.440	1	8
532.780	1	0
533.120	1	-5
533.461	1	12
533.801	1	8
534.141	1	5
534.481	1	8
534.821	1	14
535.162	1	2
535.502	1	3
535.842	1	1
536.182	1	-7
536.522	1	0
536.862	1	8
537.203	1	1
537.543	1	-1
537.883	1	15
538.223	1	7
538.563	1	4
538.903	1	-10
539.243	1	0
539.584	1	-4
539.924	1	2
540.264	1	2
540.604	1	7
540.944	1	1
541.284	1	0
541.624	1	-3
541.964	1	1
542.305	1	-14
542.645	1	-4
542.985	1	-2
543.325	1	-1
543.665	1	7
544.005	1	-2
544.345	1	-1
544.685	1	3
545.025	1	-8
545.365	1	1
545.705	1	8
546.045	1	-2
546.386	1	6
546.726	1	3
547.066	1	-2
547.406	1	12
547.746	1	9
548.086	1	3
548.426	1	0
548.766	1	11
549.106	1	-4
549.446	1	2
549.786	1	5
550.126	1	-3
550.466	1	2
550.806	1	10
551.146	1	-10
551.486	1	3
551.826	1	10
552.166	1	1
552.506	1	-6
552.846	1	5
553.186	1	3
553.526	1	-3
553.866	1	8
554.206	1	4
554.546	1	-9
554.886	1	-4
555.226	1	-4
555.566	1	6
555.906	1	-4
556.246	1	3
556.586	1	10
556.926	1	4
557.266	1	8
557.606	1	-1
557.946	1	6
558.286	1	7
558.626	1	3
558.966	1	2
559.306	1	-7
559.646	1	-4
559.986	1	-3
560.325	1	-7
560.665	1	7
561.005	1	6
561.345	1	0
561.685	1	4
562.025	1	5
562.365	1	4
562.705	1	8
563.045	1	7
563.385	1	-8
563.725	1	-1
564.064	1	15
564.404	1	-5
564.744	1	-2
565.084	1	-7
565.424	1	-3
565.764	1	10
566.104	1	-3
566.444	1	4
566.783	1	1
567.123	1	12
567.463	1	-4
567.803	1	-5
568.143	1	-11
568.483	1	-8
568.823	1	9
569.162	1	2
569.502	1	1
569.842	1	0
570.182	1	-7
570.522	1	7
570.862	1	12
571.201	1	2
571.541	1	-2
571.881	1	4
572.221	1	7
572.561	1	3
572.900	1	15
573.240	1	-4
573.580	1	3
573.920	1	1
574.260	1	-6
574.599	1	-2
574.939	1	-3
575.279	1	9
575.619	1	2
575.959	1	0
576.298	1	-12
576.638	1	5
576.978	1	-1
577.318	1	13
577.657	1	-16
577.997	1	-11
578.337	1	-4
578.677	1	5
579.016	1	13
579.356	1	-6
579.696	1	8
580.036	1	5
580.375	1	-4
580.715	1	5
581.055	1	2
581.394	1	6
581.734	1	7
582.074	1	1
582.414	1	0
582.753	1	5
583.093	1	-9
583.433	1	-11
583.772	1	1
584.112	1	-1
584.452	1	2
584.791	1	-8
585.131	1	-4
585.471	1	-4
585.811	1	-3
586.150	1	1
586.490	1	3
586.830	1	-13
587.169	1	-6
587.509	1	10
587.849	1	7
588.188	1	-2
588.528	1	0
588.867	1	4
589.207	1	-10
589.547	1	-4
589.886	1	-3
590.226	1	1
590.566	1	1
590.905	1	-2
591.245	1	-9
591.585	1	-11
591.924	1	-1
592.264	1	5
592.603	1	-4
592.943	1	3
593.283	1	5
593.622	1	0
593.962	1	6
594.301	1	11
594.641	1	7
594.981	1	-5
595.320	1	11
595.660	1	-6
595.999	1	3
596.339	1	8
596.678	1	0
597.018	1	6
597.358	1	-1
597.697	1	-12
598.037	1	-5
598.376	1	-2
598.716	1	-12
599.055	1	-1
599.395	1	3
599.734	1	-6
600.074	1	-1
600.413	1	-3
600.753	1	1
601.092	1	-13
601.432	1	0
601.771	1	12
602.111	1	-3
602.451	1	6
602.790	1	1
603.130	1	3
603.469	1	-1
603.809	1	8
604.148	1	-1
604.487	1	5
604.827	1	-8
605.166	1	2
605.506	1	2
605.845	1	-3
606.185	1	7
606.524	1	-5
606.864	1	-7
607.203	1	12
607.543	1	-9
607.882	1	-10
608.222	1	3
608.561	1	11
608.901	1	4
609.240	1	-5
609.579	1	0
609.919	1	-10
610.258	1	13
610.598	1	-3
610.937	1	-3
611.277	1	2
611.616	1	-15
611.955	1	10
612.295	1	3
612.634	1	-2
612.974	1	-1
613.313	1	6
613.652	1	-9
613.992	1	-2
614.331	1	1
614.671	1	1
615.010	1	-2
615.349	1	0
615.689	1	3
616.028	1	-1
616.368	1	-2
616.707	1	0
617.046	1	2
617.386	1	-4
617.725	1	5
618.064	1	10
618.404	1	3
618.743	1	7
619.082	1	7
619.422	1	-1
619.761	1	-1
620.100	1	6
620.440	1	7
620.779	1	4
621.118	1	3
621.458	1	2
621.797	1	2
622.136	1	-6
622.476	1	0
622.815	1	-4
623.154	1	3
623.494	1	8
623.833	1	0
624.172	1	8
624.511	1	4
624.851	1	-7
625.190	1	1
625.529	1	0
625.869	1	0
626.208	1	1
626.547	1	9
626.886	1	-7
627.226	1	7
627.565	1	9
627.904	1	-3
628.243	1	-4
628.583	1	4
628.922	1	-7
629.261	1	7
629.600	1	13
629.940	1	-2
630.279	1	0
630.618	1	0
630.957	1	-9
631.297	1	-3
631.636	1	-3
631.975	1	3
632.314	1	7
632.653	1	-7
632.993	1	2
633.332	1	6
633.671	1	-3
634.010	1	-6
634.349	1	1
634.689	1	5
635.028	1	13
635.367	1	2
635.706	1	-8
636.045	1	-1
636.384	1	5
636.724	1	1
637.063	1	7
637.402	1	-2
637.741	1	1
638.080	1	1
638.419	1	7
638.759	1	1
639.098	1	-4
639.437	1	1
639.776	1	-3
640.115	1	0
640.454	1	7
640.793	1	7
641.132	1	5
641.472	1	-2
641.811	1	2
642.150	1	-11
642.489	1	4
642.828	1	4
643.167	1	6
643.506	1	-3
643.845	1	5
644.184	1	-1
644.524	1	-9
644.863	1	-6
645.202	1	0
645.541	1	-6
645.880	1	-4
646.219	1	-5
646.558	1	-3
646.897	1	-13
647.236	1	4
647.575	1	0
647.914	1	-10
648.253	1	6
648.592	1	3
648.931	1	3
649.270	1	9
649.610	1	6
649.949	1	-1
650.288	1	-4
650.627	1	-8
650.966	1	-4
651.305	1	0
651.644	1	-9
651.983	1	-3
652.322	1	9
652.661	1	0
653.000	1	1
653.339	1	-3
653.678	1	6
654.017	1	6
654.356	1	3
654.695	1	-1
655.034	1	-5
655.373	1	2
655.712	1	0
656.051	1	11
656.390	1	6
656.729	1	-1
657.068	1	-3
657.406	1	7
657.745	1	-3
658.084	1	9
658.423	1	-10
658.762	1	-6
659.101	1	0
659.440	1	13
659.779	1	0
660.118	1	-8
660.457	1	1
660.796	1	-7
661.135	1	4
661.474	1	2
661.813	1	1
662.152	1	2
662.491	1	1
662.829	1	-13
663.168	1	0
663.507	1	-7
663.846	1	8
664.185	1	-3
664.524	1	-11
664.863	1	5
665.202	1	-14
665.541	1	-5
665.879	1	1
666.218	1	-8
666.557	1	5
666.896	1	-6
667.235	1	-3
667.574	1	5
667.913	1	2
668.251	1	1
668.590	1	-6
668.929	1	-1
669.268	1	1
669.607	1	-10
669.946	1	14
670.285	1	4
670.623	1	6
670.962	1	-2
671.301	1	4
671.640	1	-16
671.979	1	6
672.317	1	2
672.656	1	-1
672.995	1	3
673.334	1	10
673.673	1	8
674.011	1	9
674.350	1	-4
674.689	1	-2
675.028	1	-2
675.367	1	2
675.705	1	-8
676.044	1	-9
676.383	1	0
676.722	1	8
677.060	1	-1
677.399	1	-2
677.738	1	-4
678.077	1	4
678.416	1	1
678.754	1	-4
679.093	1	5
679.432	1	-14
679.771	1	-3
680.109	1	15
680.448	1	8
680.787	1	0
681.125	1	6
681.464	1	-1
681.803	1	-9
682.142	1	13
682.480	1	-6
682.819	1	-5
683.158	1	-2
683.496	1	-7
683.835	1	-1
684.174	1	-2
684.512	1	-1
684.851	1	-2
685.190	1	6
685.529	1	2
685.867	1	4
686.206	1	1
686.545	1	9
686.883	1	-4
687.222	1	-10
687.561	1	-3
687.899	1	-1
688.238	1	-2
688.577	1	-2
688.746	1	1