File: Analysis/GaN_68K_200ms/GaN_sample E_spot4_UVVIS_68 K_200um_200 ms 2x2mm1_646.txt
340.368	1	2
340.710	1	-8
341.052	1	-4
341.394	1	-9
341.737	1	-1
342.079	1	-8
342.421	1	-2
342.763	1	0
343.105	1	13
343.447	1	1
343.789	1	-3
344.131	1	-5
344.473	1	-6
344.815	1	-3
345.157	1	-2
345.499	1	-1
345.841	1	10
346.183	1	5
346.526	1	12
346.868	1	5
347.210	1	-7
347.552	1	0
347.894	1	8
348.236	1	9
348.578	1	-1
348.920	1	11
349.262	1	-6
349.604	1	10
349.946	1	3
350.288	1	-1
350.630	1	0
350.972	1	-5
351.314	1	-2
351.656	1	4
351.998	1	-6
352.340	1	0
352.682	1	-8
353.024	1	-8
353.366	1	-9
353.708	1	1
354.050	1	0
354.392	1	4
354.734	1	-2
355.076	1	0
355.418	1	-5
355.760	1	-8
356.102	1	-8
356.444	1	0
356.785	1	11
357.127	1	1
357.469	1	-4
357.811	1	9
358.153	1	9
358.495	1	4
358.837	1	-1
359.179	1	2
359.521	1	6
359.863	1	-5
360.205	1	0
360.547	1	3
360.889	1	10
361.231	1	4
361.572	1	3
361.914	1	-1
362.256	1	8
362.598	1	4
362.940	1	5
363.282	1	0
363.624	1	-5
363.966	1	-7
364.308	1	-5
364.649	1	2
364.991	1	-3
365.333	1	-1
365.675	1	5
366.017	1	6
366.359	1	4
366.701	1	-1
367.042	1	6
367.384	1	3
367.726	1	19
368.068	1	-3
368.410	1	-7
368.752	1	-11
369.093	1	-4
369.435	1	-5
369.777	1	2
370.119	1	10
370.461	1	0
370.803	1	-6
371.144	1	-1
371.486	1	17
371.828	1	0
372.170	1	9
372.512	1	-11
372.853	1	3
373.195	1	-10
373.537	1	-4
373.879	1	4
374.220	1	-8
374.562	1	-5
374.904	1	-7
375.246	1	2
375.588	1	-1
375.929	1	-2
376.271	1	1
376.613	1	-3
376.955	1	-3
377.296	1	2
377.638	1	-9
377.980	1	4
378.321	1	6
378.663	1	4
379.005	1	4
379.347	1	-3
379.688	1	-8
380.030	1	-2
380.372	1	2
380.714	1	1
381.055	1	-6
381.397	1	-7
381.739	1	8
382.080	1	-10
382.422	1	10
382.764	1	9
383.105	1	-7
383.447	1	2
383.789	1	-3
384.130	1	-2
384.472	1	2
384.814	1	2
385.156	1	4
385.497	1	7
385.839	1	0
386.180	1	5
386.522	1	8
386.864	1	0
387.205	1	-3
387.547	1	-2
387.889	1	7
388.230	1	-3
388.572	1	-1
388.914	1	9
389.255	1	12
389.597	1	-3
389.939	1	10
390.280	1	11
390.622	1	-4
390.963	1	4
391.305	1	4
391.647	1	0
391.988	1	-6
392.330	1	9
392.671	1	10
393.013	1	13
393.355	1	14
393.696	1	4
394.038	1	-7
394.379	1	-5
394.721	1	6
395.062	1	-12
395.404	1	1
395.746	1	-5
396.087	1	4
396.429	1	6
396.770	1	11
397.112	1	3
397.453	1	-16
397.795	1	16
398.136	1	6
398.478	1	-5
398.819	1	8
399.161	1	-8
399.503	1	12
399.844	1	1
400.186	1	10
400.527	1	2
400.869	1	6
401.210	1	-6
401.552	1	15
401.893	1	1
402.235	1	15
402.576	1	11
402.918	1	2
403.259	1	-16
403.601	1	-1
403.942	1	4
404.284	1	-1
404.625	1	10
404.967	1	-1
405.308	1	1
405.649	1	0
405.991	1	1
406.332	1	2
406.674	1	-3
407.015	1	-10
407.357	1	1
407.698	1	-9
408.040	1	-7
408.381	1	-1
408.722	1	-2
409.064	1	2
409.405	1	3
409.747	1	-6
410.088	1	4
410.430	1	4
410.771	1	-2
411.112	1	7
411.454	1	11
411.795	1	5
412.137	1	7
412.478	1	4
412.819	1	-10
413.161	1	-3
413.502	1	-2
413.844	1	9
414.185	1	-7
414.526	1	3
414.868	1	3
415.209	1	-3
415.550	1	-5
415.892	1	-1
416.233	1	7
416.575	1	-2
416.916	1	-1
417.257	1	5
417.599	1	0
417.940	1	-5
418.281	1	5
418.623	1	0
418.964	1	1
419.305	1	-7
419.647	1	4
419.988	1	-13
420.329	1	0
420.671	1	-3
421.012	1	-5
421.353	1	3
421.695	1	0
422.036	1	0
422.377	1	2
422.718	1	-3
423.060	1	12
423.401	1	1
423.742	1	3
424.084	1	1
424.425	1	-2
424.766	1	10
425.107	1	-2
425.449	1	6
425.790	1	2
426.131	1	4
426.472	1	-4
426.814	1	0
427.155	1	-14
427.496	1	13
427.837	1	-8
428.179	1	-15
428.520	1	-8
428.861	1	-9
429.202	1	-4
429.544	1	1
429.885	1	-4
430.226	1	-6
430.567	1	-1
430.909	1	-8
431.250	1	-4
431.591	1	5
431.932	1	-2
432.273	1	6
432.615	1	5
432.956	1	-4
433.297	1	5
433.638	1	1
433.979	1	-1
434.320	1	-3
434.662	1	-12
435.003	1	1
435.344	1	4
435.685	1	8
436.026	1	-4
436.368	1	0
436.709	1	-18
437.050	1	3
437.391	1	4
437.732	1	6
438.073	1	11
438.414	1	1
438.756	1	1
439.097	1	4
439.438	1	8
439.779	1	-10
440.120	1	2
440.461	1	2
440.802	1	6
441.143	1	12
441.485	1	-3
441.826	1	-16
442.167	1	0
442.508	1	-1
442.849	1	4
443.190	1	-9
443.531	1	0
443.872	1	-7
444.213	1	-6
444.554	1	-5
444.895	1	0
445.237	1	-11
445.578	1	7
445.919	1	1
446.260	1	4
446.601	1	-1
446.942	1	-2
447.283	1	-4
447.624	1	8
447.965	1	-6
448.306	1	0
448.647	1	-1
448.988	1	-11
449.329	1	1
449.670	1	7
450.011	1	-1
450.352	1	1
450.693	1	-6
451.034	1	3
451.375	1	6
451.716	1	11
452.057	1	10
452.398	1	0
452.739	1	-1
453.080	1	13
453.421	1	-1
453.762	1	0
454.103	1	4
454.444	1	-1
454.785	1	-2
455.126	1	-4
455.467	1	11
455.808	1	-4
456.149	1	-7
456.490	1	4
456.831	1	8
457.172	1	0
457.513	1	0
457.854	1	5
458.195	1	-5
458.536	1	7
458.877	1	2
459.218	1	2
459.559	1	2
459.899	1	5
460.240	1	1
460.581	1	9
460.922	1	-4
461.263	1	0
461.604	1	-6
461.945	1	3
462.286	1	2
462.627	1	-3
462.968	1	-4
463.309	1	2
463.649	1	-1
463.990	1	0
464.331	1	3
464.672	1	-7
465.013	1	-4
465.354	1	12
465.695	1	7
466.036	1	13
466.376	1	-1
466.717	1	-2
467.058	1	9
467.399	1	4
467.740	1	-2
468.081	1	-5
468.422	1	1
468.762	1	-7
469.103	1	-5
469.444	1	-3
469.785	1	1
470.126	1	-2
470.467	1	1
470.807	1	2
471.148	1	-4
471.489	1	-11
471.830	1	17
472.171	1	3
472.511	1	9
472.852	1	-11
473.193	1	-8
473.534	1	0
473.875	1	8
474.215	1	-6
474.556	1	-13
474.897	1	0
475.238	1	-3
475.578	1	7
475.919	1	5
476.260	1	-4
476.601	1	4
476.942	1	-5
477.282	1	-6
477.623	1	2
477.964	1	13
478.305	1	1
478.645	1	-6
478.986	1	10
479.327	1	-13
479.667	1	0
480.008	1	1
480.349	1	-3
480.690	1	2
481.030	1	-7
481.371	1	3
481.712	1	-7
482.053	1	7
482.393	1	-5
482.734	1	3
483.075	1	6
483.415	1	16
483.756	1	9
484.097	1	-4
484.437	1	-6
484.778	1	3
485.119	1	2
485.459	1	12
485.800	1	-9
486.141	1	-9
486.481	1	4
486.822	1	3
487.163	1	-4
487.503	1	-7
487.844	1	-1
488.185	1	-1
488.525	1	-2
488.866	1	12
489.207	1	10
489.547	1	-6
489.888	1	-4
490.228	1	-8
490.569	1	3
490.910	1	-4
491.250	1	0
491.591	1	-3
491.932	1	-1
492.272	1	7
492.613	1	-9
492.953	1	-1
493.294	1	7
493.635	1	-7
493.975	1	3
494.316	1	5
494.656	1	-4
494.997	1	-1
495.337	1	2
495.678	1	14
496.019	1	-12
496.359	1	3
496.700	1	-1
497.040	1	4
497.381	1	-16
497.721	1	-10
498.062	1	-4
498.403	1	10
498.743	1	1
499.084	1	-10
499.424	1	7
499.765	1	3
500.105	1	6
500.446	1	9
500.786	1	-5
501.127	1	3
501.467	1	4
501.808	1	-10
502.148	1	8
502.489	1	11
502.829	1	1
503.170	1	6
503.510	1	-4
503.851	1	-7
504.191	1	5
504.532	1	-12
504.872	1	-6
505.213	1	-1
505.553	1	1
505.894	1	6
506.234	1	1
506.575	1	2
506.915	1	1
507.256	1	-7
507.596	1	6
507.936	1	12
508.277	1	2
508.617	1	2
508.958	1	8
509.298	1	3
509.639	1	5
509.979	1	-9
510.319	1	-9
510.660	1	4
511.000	1	8
511.341	1	-7
511.681	1	0
512.022	1	-3
512.362	1	2
512.702	1	-13
513.043	1	5
513.383	1	-5
513.724	1	20
514.064	1	-3
514.404	1	0
514.745	1	-1
515.085	1	-4
515.425	1	-4
515.766	1	-2
516.106	1	-2
516.447	1	-1
516.787	1	-5
517.127	1	2
517.468	1	2
517.808	1	0
518.148	1	-3
518.489	1	-4
518.829	1	-8
519.169	1	19
519.510	1	0
519.850	1	-8
520.190	1	6
520.531	1	4
520.871	1	-4
521.211	1	0
521.552	1	-5
521.892	1	-3
522.232	1	-15
522.573	1	3
522.913	1	5
523.253	1	-7
523.593	1	-19
523.934	1	-2
524.274	1	-5
524.614	1	6
524.955	1	-7
525.295	1	-1
525.635	1	15
525.975	1	-5
526.316	1	-7
526.656	1	21
526.996	1	11
527.337	1	-3
527.677	1	7
528.017	1	-3
528.357	1	7
528.698	1	0
529.038	1	2
529.378	1	3
529.718	1	-1
530.058	1	1
530.399	1	13
530.739	1	-9
531.079	1	4
531.419	1	12
531.760	1	10
532.100	1	3
532.440	1	-5
532.780	1	-4
533.120	1	-8
533.461	1	15
533.801	1	3
534.141	1	11
534.481	1	-5
534.821	1	5
535.162	1	2
535.502	1	5
535.842	1	-4
536.182	1	-4
536.522	1	8
536.862	1	2
537.203	1	8
537.543	1	7
537.883	1	3
538.223	1	3
538.563	1	1
538.903	1	-3
539.243	1	8
539.584	1	5
539.924	1	3
540.264	1	-3
540.604	1	12
540.944	1	-4
541.284	1	-4
541.624	1	10
541.964	1	3
542.305	1	-8
542.645	1	-1
542.985	1	0
543.325	1	0
543.665	1	3
544.005	1	-1
544.345	1	-6
544.685	1	14
545.025	1	1
545.365	1	3
545.705	1	9
546.045	1	9
546.386	1	2
546.726	1	-2
547.066	1	-11
547.406	1	6
547.746	1	1
548.086	1	3
548.426	1	-5
548.766	1	9
549.106	1	0
549.446	1	-5
549.786	1	10
550.126	1	0
550.466	1	-5
550.806	1	3
551.146	1	-6
551.486	1	2
551.826	1	2
552.166	1	7
552.506	1	-4
552.846	1	4
553.186	1	1
553.526	1	-9
553.866	1	5
554.206	1	3
554.546	1	-9
554.886	1	3
555.226	1	-7
555.566	1	8
555.906	1	-2
556.246	1	-3
556.586	1	3
556.926	1	5
557.266	1	10
557.606	1	-8
557.946	1	5
558.286	1	4
558.626	1	5
558.966	1	3
559.306	1	-1
559.646	1	-8
559.986	1	3
560.325	1	-11
560.665	1	3
561.005	1	4
561.345	1	-4
561.685	1	-1
562.025	1	6
562.365	1	1
562.705	1	-4
563.045	1	1
563.385	1	-12
563.725	1	2
564.064	1	5
564.404	1	-2
564.744	1	-1
565.084	1	-2
565.424	1	8
565.764	1	17
566.104	1	-1
566.444	1	1
566.783	1	-6
567.123	1	13
567.463	1	-3
567.803	1	-12
568.143	1	-7
568.483	1	-3
568.823	1	14
569.162	1	4
569.502	1	-3
569.842	1	-3
570.182	1	-6
570.522	1	-1
570.862	1	2
571.201	1	13
571.541	1	-10
571.881	1	0
572.221	1	-4
572.561	1	-12
572.900	1	8
573.240	1	0
573.580	1	-6
573.920	1	4
574.260	1	-10
574.599	1	-1
574.939	1	-2
575.279	1	-3
575.619	1	2
575.959	1	0
576.298	1	-2
576.638	1	-6
576.978	1	0
577.318	1	8
577.657	1	-10
577.997	1	-2
578.337	1	-2
578.677	1	-8
579.016	1	7
579.356	1	-6
579.696	1	9
580.036	1	-3
580.375	1	1
580.715	1	7
581.055	1	3
581.394	1	-6
581.734	1	2
582.074	1	-10
582.414	1	-2
582.753	1	8
583.093	1	-1
583.433	1	-15
583.772	1	0
584.112	1	8
584.452	1	2
584.791	1	-5
585.131	1	-8
585.471	1	4
585.811	1	-12
586.150	1	-8
586.490	1	-4
586.830	1	-3
587.169	1	-4
587.509	1	-3
587.849	1	11
588.188	1	-5
588.528	1	6
588.867	1	1
589.207	1	-12
589.547	1	-5
589.886	1	-4
590.226	1	5
590.566	1	-3
590.905	1	4
591.245	1	-1
591.585	1	-8
591.924	1	-3
592.264	1	-8
592.603	1	-7
592.943	1	-3
593.283	1	-4
593.622	1	-4
593.962	1	3
594.301	1	12
594.641	1	2
594.981	1	-1
595.320	1	9
595.660	1	-4
595.999	1	7
596.339	1	3
596.678	1	5
597.018	1	11
597.358	1	0
597.697	1	-5
598.037	1	-1
598.376	1	16
598.716	1	-19
599.055	1	-2
599.395	1	4
599.734	1	4
600.074	1	1
600.413	1	5
600.753	1	1
601.092	1	-3
601.432	1	-3
601.771	1	1
602.111	1	-6
602.451	1	-3
602.790	1	-3
603.130	1	12
603.469	1	-10
603.809	1	0
604.148	1	-1
604.487	1	0
604.827	1	-11
605.166	1	-2
605.506	1	1
605.845	1	4
606.185	1	-1
606.524	1	-2
606.864	1	-2
607.203	1	-2
607.543	1	-6
607.882	1	-7
608.222	1	10
608.561	1	-6
608.901	1	0
609.240	1	10
609.579	1	-3
609.919	1	-5
610.258	1	9
610.598	1	11
610.937	1	3
611.277	1	5
611.616	1	-6
611.955	1	4
612.295	1	2
612.634	1	-3
612.974	1	5
613.313	1	3
613.652	1	-7
613.992	1	0
614.331	1	10
614.671	1	3
615.010	1	3
615.349	1	1
615.689	1	2
616.028	1	-1
616.368	1	3
616.707	1	-2
617.046	1	0
617.386	1	-8
617.725	1	-6
618.064	1	3
618.404	1	9
618.743	1	-3
619.082	1	1
619.422	1	-5
619.761	1	7
620.100	1	6
620.440	1	7
620.779	1	1
621.118	1	2
621.458	1	6
621.797	1	-6
622.136	1	5
622.476	1	3
622.815	1	-8
623.154	1	2
623.494	1	1
623.833	1	-3
624.172	1	9
624.511	1	3
624.851	1	-12
625.190	1	-5
625.529	1	8
625.869	1	13
626.208	1	10
626.547	1	4
626.886	1	-4
627.226	1	2
627.565	1	7
627.904	1	12
628.243	1	-6
628.583	1	4
628.922	1	-4
629.261	1	6
629.600	1	8
629.940	1	9
630.279	1	0
630.618	1	-1
630.957	1	-5
631.297	1	-9
631.636	1	-3
631.975	1	0
632.314	1	20
632.653	1	-9
632.993	1	4
633.332	1	0
633.671	1	-1
634.010	1	-1
634.349	1	4
634.689	1	9
635.028	1	3
635.367	1	-5
635.706	1	-15
636.045	1	4
636.384	1	5
636.724	1	2
637.063	1	5
637.402	1	6
637.741	1	3
638.080	1	-1
638.419	1	0
638.759	1	5
639.098	1	-1
639.437	1	-7
639.776	1	-4
640.115	1	-3
640.454	1	9
640.793	1	4
641.132	1	-1
641.472	1	-5
641.811	1	-8
642.150	1	-6
642.489	1	-5
642.828	1	-4
643.167	1	8
643.506	1	-4
643.845	1	2
644.184	1	0
644.524	1	-9
644.863	1	-7
645.202	1	0
645.541	1	-8
645.880	1	9
646.219	1	2
646.558	1	4
646.897	1	1
647.236	1	2
647.575	1	5
647.914	1	-6
648.253	1	4
648.592	1	2
648.931	1	7
649.270	1	10
649.610	1	5
649.949	1	0
650.288	1	-6
650.627	1	-5
650.966	1	-2
651.305	1	1
651.644	1	-3
651.983	1	5
652.322	1	6
652.661	1	1
653.000	1	-1
653.339	1	5
653.678	1	-2
654.017	1	-8
654.356	1	0
654.695	1	-5
655.034	1	3
655.373	1	-6
655.712	1	-11
656.051	1	4
656.390	1	4
656.729	1	5
657.068	1	-5
657.406	1	-1
657.745	1	-17
658.084	1	11
658.423	1	-11
658.762	1	-4
659.101	1	-5
659.440	1	8
659.779	1	3
660.118	1	-6
660.457	1	-1
660.796	1	-4
661.135	1	2
661.474	1	-2
661.813	1	-5
662.152	1	1
662.491	1	6
662.829	1	0
663.168	1	2
663.507	1	-6
663.846	1	-2
664.185	1	2
664.524	1	-8
664.863	1	2
665.202	1	-7
665.541	1	-1
665.879	1	7
666.218	1	-7
666.557	1	-5
666.896	1	3
667.235	1	2
667.574	1	7
667.913	1	-3
668.251	1	-3
668.590	1	-6
668.929	1	0
669.268	1	-3
669.607	1	-10
669.946	1	15
670.285	1	1
670.623	1	4
670.962	1	-1
671.301	1	4
671.640	1	-15
671.979	1	13
672.317	1	-8
672.656	1	4
672.995	1	-4
673.334	1	6
673.673	1	12
674.011	1	9
674.350	1	-8
674.689	1	0
675.028	1	3
675.367	1	4
675.705	1	-5
676.044	1	-12
676.383	1	-1
676.722	1	6
677.060	1	0
677.399	1	-3
677.738	1	-13
678.077	1	5
678.416	1	-9
678.754	1	2
679.093	1	15
679.432	1	-9
679.771	1	5
680.109	1	11
680.448	1	-1
680.787	1	3
681.125	1	3
681.464	1	-4
681.803	1	-11
682.142	1	8
682.480	1	0
682.819	1	4
683.158	1	4
683.496	1	0
683.835	1	-2
684.174	1	9
684.512	1	0
684.851	1	5
685.190	1	0
685.529	1	0
685.867	1	2
686.206	1	1
686.545	1	3
686.883	1	-6
687.222	1	1
687.561	1	-4
687.899	1	-6
688.238	1	-13
688.577	1	-4
688.746	1	2