File: Analysis/GaN_68K_200ms/GaN_sample E_spot4_UVVIS_68 K_200um_200 ms 2x2mm1_507.txt
340.368	1	3
340.710	1	-12
341.052	1	-4
341.394	1	-8
341.737	1	6
342.079	1	-2
342.421	1	0
342.763	1	-9
343.105	1	10
343.447	1	8
343.789	1	-5
344.131	1	2
344.473	1	2
344.815	1	-1
345.157	1	-2
345.499	1	-1
345.841	1	6
346.183	1	-4
346.526	1	7
346.868	1	2
347.210	1	-2
347.552	1	5
347.894	1	-7
348.236	1	2
348.578	1	3
348.920	1	7
349.262	1	2
349.604	1	7
349.946	1	6
350.288	1	-2
350.630	1	-2
350.972	1	4
351.314	1	3
351.656	1	-3
351.998	1	5
352.340	1	-12
352.682	1	-4
353.024	1	-5
353.366	1	7
353.708	1	12
354.050	1	2
354.392	1	6
354.734	1	4
355.076	1	-3
355.418	1	3
355.760	1	-1
356.102	1	-4
356.444	1	8
356.785	1	6
357.127	1	-1
357.469	1	1
357.811	1	12
358.153	1	6
358.495	1	6
358.837	1	5
359.179	1	6
359.521	1	2
359.863	1	-6
360.205	1	-3
360.547	1	1
360.889	1	4
361.231	1	5
361.572	1	4
361.914	1	-3
362.256	1	2
362.598	1	6
362.940	1	-3
363.282	1	-2
363.624	1	-4
363.966	1	1
364.308	1	-5
364.649	1	-2
364.991	1	5
365.333	1	10
365.675	1	-1
366.017	1	6
366.359	1	5
366.701	1	-7
367.042	1	15
367.384	1	9
367.726	1	12
368.068	1	-2
368.410	1	5
368.752	1	-5
369.093	1	-1
369.435	1	4
369.777	1	-3
370.119	1	10
370.461	1	-6
370.803	1	-1
371.144	1	9
371.486	1	13
371.828	1	0
372.170	1	14
372.512	1	-7
372.853	1	5
373.195	1	-4
373.537	1	0
373.879	1	10
374.220	1	-2
374.562	1	-9
374.904	1	11
375.246	1	8
375.588	1	-4
375.929	1	6
376.271	1	-2
376.613	1	5
376.955	1	-2
377.296	1	0
377.638	1	-1
377.980	1	7
378.321	1	4
378.663	1	-4
379.005	1	6
379.347	1	7
379.688	1	0
380.030	1	-1
380.372	1	6
380.714	1	-4
381.055	1	-4
381.397	1	-6
381.739	1	8
382.080	1	-13
382.422	1	9
382.764	1	-2
383.105	1	2
383.447	1	12
383.789	1	-2
384.130	1	2
384.472	1	-7
384.814	1	2
385.156	1	10
385.497	1	8
385.839	1	11
386.180	1	3
386.522	1	11
386.864	1	-5
387.205	1	-2
387.547	1	-6
387.889	1	16
388.230	1	4
388.572	1	-2
388.914	1	13
389.255	1	9
389.597	1	-11
389.939	1	11
390.280	1	9
390.622	1	3
390.963	1	7
391.305	1	4
391.647	1	1
391.988	1	0
392.330	1	13
392.671	1	0
393.013	1	12
393.355	1	7
393.696	1	-3
394.038	1	-6
394.379	1	-6
394.721	1	9
395.062	1	-3
395.404	1	14
395.746	1	-2
396.087	1	8
396.429	1	1
396.770	1	8
397.112	1	-1
397.453	1	-11
397.795	1	14
398.136	1	9
398.478	1	-1
398.819	1	6
399.161	1	3
399.503	1	-10
399.844	1	-4
400.186	1	18
400.527	1	-2
400.869	1	12
401.210	1	-15
401.552	1	10
401.893	1	2
402.235	1	17
402.576	1	10
402.918	1	-3
403.259	1	-4
403.601	1	-16
403.942	1	15
404.284	1	1
404.625	1	10
404.967	1	2
405.308	1	1
405.649	1	4
405.991	1	15
406.332	1	0
406.674	1	3
407.015	1	0
407.357	1	3
407.698	1	0
408.040	1	3
408.381	1	3
408.722	1	5
409.064	1	10
409.405	1	-3
409.747	1	-10
410.088	1	8
410.430	1	0
410.771	1	7
411.112	1	6
411.454	1	12
411.795	1	10
412.137	1	8
412.478	1	5
412.819	1	1
413.161	1	0
413.502	1	7
413.844	1	3
414.185	1	2
414.526	1	10
414.868	1	10
415.209	1	1
415.550	1	-7
415.892	1	1
416.233	1	-6
416.575	1	-2
416.916	1	2
417.257	1	2
417.599	1	0
417.940	1	-1
418.281	1	9
418.623	1	0
418.964	1	-4
419.305	1	0
419.647	1	5
419.988	1	-5
420.329	1	5
420.671	1	4
421.012	1	-1
421.353	1	9
421.695	1	7
422.036	1	6
422.377	1	-3
422.718	1	-1
423.060	1	-1
423.401	1	8
423.742	1	2
424.084	1	-1
424.425	1	4
424.766	1	3
425.107	1	5
425.449	1	2
425.790	1	2
426.131	1	8
426.472	1	-3
426.814	1	7
427.155	1	5
427.496	1	13
427.837	1	-4
428.179	1	-9
428.520	1	3
428.861	1	4
429.202	1	9
429.544	1	9
429.885	1	-5
430.226	1	2
430.567	1	8
430.909	1	-8
431.250	1	-5
431.591	1	3
431.932	1	3
432.273	1	-2
432.615	1	6
432.956	1	-7
433.297	1	8
433.638	1	-4
433.979	1	-1
434.320	1	3
434.662	1	-7
435.003	1	5
435.344	1	-4
435.685	1	12
436.026	1	11
436.368	1	2
436.709	1	-11
437.050	1	2
437.391	1	-4
437.732	1	2
438.073	1	9
438.414	1	-6
438.756	1	13
439.097	1	8
439.438	1	5
439.779	1	2
440.120	1	2
440.461	1	4
440.802	1	0
441.143	1	11
441.485	1	-1
441.826	1	-9
442.167	1	-9
442.508	1	1
442.849	1	3
443.190	1	-9
443.531	1	-6
443.872	1	-2
444.213	1	-12
444.554	1	-1
444.895	1	1
445.237	1	-5
445.578	1	5
445.919	1	0
446.260	1	-3
446.601	1	0
446.942	1	5
447.283	1	-4
447.624	1	-5
447.965	1	-12
448.306	1	0
448.647	1	7
448.988	1	-4
449.329	1	-3
449.670	1	12
450.011	1	6
450.352	1	13
450.693	1	6
451.034	1	12
451.375	1	16
451.716	1	14
452.057	1	14
452.398	1	3
452.739	1	7
453.080	1	16
453.421	1	3
453.762	1	4
454.103	1	3
454.444	1	14
454.785	1	-6
455.126	1	-2
455.467	1	5
455.808	1	-2
456.149	1	-7
456.490	1	-2
456.831	1	14
457.172	1	8
457.513	1	8
457.854	1	-6
458.195	1	-7
458.536	1	4
458.877	1	-5
459.218	1	7
459.559	1	1
459.899	1	8
460.240	1	1
460.581	1	10
460.922	1	-1
461.263	1	3
461.604	1	-8
461.945	1	2
462.286	1	19
462.627	1	-4
462.968	1	-6
463.309	1	-6
463.649	1	-2
463.990	1	3
464.331	1	9
464.672	1	-1
465.013	1	-6
465.354	1	12
465.695	1	-3
466.036	1	4
466.376	1	-4
466.717	1	-1
467.058	1	15
467.399	1	7
467.740	1	-2
468.081	1	-3
468.422	1	4
468.762	1	3
469.103	1	1
469.444	1	-4
469.785	1	1
470.126	1	3
470.467	1	-5
470.807	1	-3
471.148	1	-7
471.489	1	-10
471.830	1	12
472.171	1	-2
472.511	1	5
472.852	1	-1
473.193	1	-1
473.534	1	-8
473.875	1	2
474.215	1	4
474.556	1	-8
474.897	1	1
475.238	1	-1
475.578	1	0
475.919	1	5
476.260	1	2
476.601	1	-5
476.942	1	2
477.282	1	-6
477.623	1	-4
477.964	1	0
478.305	1	4
478.645	1	-5
478.986	1	2
479.327	1	2
479.667	1	3
480.008	1	4
480.349	1	-1
480.690	1	3
481.030	1	-1
481.371	1	2
481.712	1	0
482.053	1	3
482.393	1	-14
482.734	1	3
483.075	1	4
483.415	1	9
483.756	1	9
484.097	1	2
484.437	1	-10
484.778	1	5
485.119	1	4
485.459	1	6
485.800	1	2
486.141	1	-1
486.481	1	4
486.822	1	-1
487.163	1	-4
487.503	1	-7
487.844	1	1
488.185	1	-15
488.525	1	-3
488.866	1	2
489.207	1	15
489.547	1	0
489.888	1	-2
490.228	1	-4
490.569	1	7
490.910	1	-6
491.250	1	2
491.591	1	-6
491.932	1	6
492.272	1	-1
492.613	1	2
492.953	1	4
493.294	1	6
493.635	1	-10
493.975	1	-2
494.316	1	11
494.656	1	0
494.997	1	-5
495.337	1	8
495.678	1	5
496.019	1	-7
496.359	1	3
496.700	1	3
497.040	1	2
497.381	1	-26
497.721	1	-1
498.062	1	5
498.403	1	7
498.743	1	4
499.084	1	-10
499.424	1	12
499.765	1	-4
500.105	1	4
500.446	1	8
500.786	1	8
501.127	1	14
501.467	1	9
501.808	1	3
502.148	1	9
502.489	1	3
502.829	1	1
503.170	1	6
503.510	1	-1
503.851	1	-19
504.191	1	6
504.532	1	0
504.872	1	-1
505.213	1	7
505.553	1	11
505.894	1	2
506.234	1	10
506.575	1	-3
506.915	1	0
507.256	1	0
507.596	1	-1
507.936	1	4
508.277	1	1
508.617	1	7
508.958	1	7
509.298	1	11
509.639	1	3
509.979	1	-2
510.319	1	1
510.660	1	16
511.000	1	8
511.341	1	-7
511.681	1	4
512.022	1	0
512.362	1	1
512.702	1	-13
513.043	1	-5
513.383	1	-3
513.724	1	10
514.064	1	6
514.404	1	1
514.745	1	2
515.085	1	1
515.425	1	7
515.766	1	-1
516.106	1	-2
516.447	1	-3
516.787	1	-5
517.127	1	3
517.468	1	1
517.808	1	1
518.148	1	-4
518.489	1	9
518.829	1	6
519.169	1	16
519.510	1	0
519.850	1	-12
520.190	1	1
520.531	1	-2
520.871	1	-7
521.211	1	-8
521.552	1	6
521.892	1	-17
522.232	1	-1
522.573	1	0
522.913	1	11
523.253	1	-7
523.593	1	-22
523.934	1	0
524.274	1	-8
524.614	1	2
524.955	1	3
525.295	1	-8
525.635	1	16
525.975	1	-9
526.316	1	1
526.656	1	10
526.996	1	11
527.337	1	1
527.677	1	14
528.017	1	2
528.357	1	7
528.698	1	-8
529.038	1	8
529.378	1	4
529.718	1	-2
530.058	1	4
530.399	1	5
530.739	1	-5
531.079	1	7
531.419	1	7
531.760	1	5
532.100	1	2
532.440	1	0
532.780	1	6
533.120	1	-5
533.461	1	13
533.801	1	7
534.141	1	0
534.481	1	4
534.821	1	0
535.162	1	1
535.502	1	6
535.842	1	-1
536.182	1	-3
536.522	1	14
536.862	1	9
537.203	1	4
537.543	1	9
537.883	1	9
538.223	1	4
538.563	1	-1
538.903	1	-2
539.243	1	3
539.584	1	-2
539.924	1	6
540.264	1	10
540.604	1	5
540.944	1	3
541.284	1	-5
541.624	1	-4
541.964	1	-3
542.305	1	-6
542.645	1	7
542.985	1	0
543.325	1	-1
543.665	1	10
544.005	1	-6
544.345	1	-4
544.685	1	-2
545.025	1	-2
545.365	1	-8
545.705	1	4
546.045	1	10
546.386	1	2
546.726	1	-4
547.066	1	-11
547.406	1	2
547.746	1	7
548.086	1	9
548.426	1	1
548.766	1	8
549.106	1	5
549.446	1	5
549.786	1	6
550.126	1	-9
550.466	1	-5
550.806	1	2
551.146	1	4
551.486	1	9
551.826	1	16
552.166	1	-13
552.506	1	-7
552.846	1	4
553.186	1	3
553.526	1	1
553.866	1	4
554.206	1	3
554.546	1	-7
554.886	1	2
555.226	1	-8
555.566	1	10
555.906	1	6
556.246	1	3
556.586	1	10
556.926	1	13
557.266	1	4
557.606	1	-5
557.946	1	1
558.286	1	10
558.626	1	6
558.966	1	2
559.306	1	5
559.646	1	-8
559.986	1	1
560.325	1	-10
560.665	1	-1
561.005	1	1
561.345	1	5
561.685	1	2
562.025	1	-5
562.365	1	4
562.705	1	2
563.045	1	7
563.385	1	-7
563.725	1	-5
564.064	1	0
564.404	1	4
564.744	1	14
565.084	1	1
565.424	1	2
565.764	1	4
566.104	1	-2
566.444	1	2
566.783	1	7
567.123	1	11
567.463	1	-2
567.803	1	-7
568.143	1	-5
568.483	1	0
568.823	1	12
569.162	1	6
569.502	1	-2
569.842	1	-1
570.182	1	-3
570.522	1	3
570.862	1	2
571.201	1	4
571.541	1	-6
571.881	1	10
572.221	1	1
572.561	1	-2
572.900	1	0
573.240	1	0
573.580	1	6
573.920	1	4
574.260	1	-4
574.599	1	0
574.939	1	1
575.279	1	9
575.619	1	14
575.959	1	-3
576.298	1	-10
576.638	1	4
576.978	1	2
577.318	1	4
577.657	1	-14
577.997	1	-12
578.337	1	4
578.677	1	-5
579.016	1	19
579.356	1	-1
579.696	1	7
580.036	1	1
580.375	1	1
580.715	1	4
581.055	1	0
581.394	1	2
581.734	1	0
582.074	1	-6
582.414	1	0
582.753	1	5
583.093	1	2
583.433	1	-6
583.772	1	2
584.112	1	-3
584.452	1	-5
584.791	1	3
585.131	1	-4
585.471	1	0
585.811	1	-15
586.150	1	8
586.490	1	-16
586.830	1	-2
587.169	1	4
587.509	1	2
587.849	1	6
588.188	1	12
588.528	1	8
588.867	1	6
589.207	1	-5
589.547	1	-3
589.886	1	-10
590.226	1	-1
590.566	1	3
590.905	1	9
591.245	1	-5
591.585	1	9
591.924	1	-5
592.264	1	-1
592.603	1	-2
592.943	1	-7
593.283	1	1
593.622	1	-2
593.962	1	15
594.301	1	11
594.641	1	-3
594.981	1	-4
595.320	1	6
595.660	1	0
595.999	1	3
596.339	1	12
596.678	1	4
597.018	1	2
597.358	1	0
597.697	1	1
598.037	1	0
598.376	1	2
598.716	1	-10
599.055	1	9
599.395	1	4
599.734	1	4
600.074	1	-8
600.413	1	1
600.753	1	2
601.092	1	-6
601.432	1	-1
601.771	1	5
602.111	1	-2
602.451	1	0
602.790	1	3
603.130	1	2
603.469	1	-6
603.809	1	3
604.148	1	7
604.487	1	7
604.827	1	-20
605.166	1	2
605.506	1	4
605.845	1	3
606.185	1	-6
606.524	1	-1
606.864	1	-3
607.203	1	3
607.543	1	-3
607.882	1	-4
608.222	1	8
608.561	1	-3
608.901	1	2
609.240	1	-2
609.579	1	8
609.919	1	-7
610.258	1	0
610.598	1	0
610.937	1	-2
611.277	1	-1
611.616	1	-8
611.955	1	9
612.295	1	10
612.634	1	-6
612.974	1	5
613.313	1	3
613.652	1	7
613.992	1	7
614.331	1	5
614.671	1	1
615.010	1	3
615.349	1	1
615.689	1	7
616.028	1	-4
616.368	1	-3
616.707	1	-5
617.046	1	3
617.386	1	3
617.725	1	10
618.064	1	11
618.404	1	10
618.743	1	5
619.082	1	3
619.422	1	-2
619.761	1	2
620.100	1	-5
620.440	1	0
620.779	1	4
621.118	1	1
621.458	1	10
621.797	1	0
622.136	1	-1
622.476	1	1
622.815	1	2
623.154	1	6
623.494	1	0
623.833	1	-3
624.172	1	13
624.511	1	2
624.851	1	-8
625.190	1	4
625.529	1	4
625.869	1	3
626.208	1	0
626.547	1	9
626.886	1	3
627.226	1	2
627.565	1	9
627.904	1	8
628.243	1	-7
628.583	1	2
628.922	1	0
629.261	1	6
629.600	1	2
629.940	1	-9
630.279	1	-7
630.618	1	-5
630.957	1	-7
631.297	1	-2
631.636	1	2
631.975	1	-5
632.314	1	14
632.653	1	-7
632.993	1	6
633.332	1	1
633.671	1	1
634.010	1	-2
634.349	1	5
634.689	1	8
635.028	1	1
635.367	1	-3
635.706	1	-4
636.045	1	7
636.384	1	0
636.724	1	4
637.063	1	6
637.402	1	11
637.741	1	-4
638.080	1	2
638.419	1	11
638.759	1	11
639.098	1	-2
639.437	1	2
639.776	1	-4
640.115	1	2
640.454	1	15
640.793	1	14
641.132	1	9
641.472	1	-11
641.811	1	-5
642.150	1	0
642.489	1	-7
642.828	1	7
643.167	1	16
643.506	1	1
643.845	1	0
644.184	1	0
644.524	1	-8
644.863	1	-3
645.202	1	5
645.541	1	-5
645.880	1	2
646.219	1	-1
646.558	1	3
646.897	1	3
647.236	1	12
647.575	1	-2
647.914	1	-4
648.253	1	-7
648.592	1	2
648.931	1	4
649.270	1	9
649.610	1	15
649.949	1	-2
650.288	1	-3
650.627	1	6
650.966	1	-1
651.305	1	4
651.644	1	-5
651.983	1	12
652.322	1	-2
652.661	1	5
653.000	1	-3
653.339	1	4
653.678	1	-2
654.017	1	1
654.356	1	18
654.695	1	5
655.034	1	0
655.373	1	-6
655.712	1	-5
656.051	1	16
656.390	1	-2
656.729	1	2
657.068	1	-4
657.406	1	4
657.745	1	2
658.084	1	-1
658.423	1	-2
658.762	1	-6
659.101	1	0
659.440	1	4
659.779	1	3
660.118	1	-5
660.457	1	0
660.796	1	0
661.135	1	3
661.474	1	6
661.813	1	0
662.152	1	6
662.491	1	6
662.829	1	-9
663.168	1	-4
663.507	1	-1
663.846	1	11
664.185	1	-1
664.524	1	-10
664.863	1	-5
665.202	1	-5
665.541	1	-3
665.879	1	9
666.218	1	-10
666.557	1	4
666.896	1	4
667.235	1	-1
667.574	1	9
667.913	1	-2
668.251	1	2
668.590	1	1
668.929	1	2
669.268	1	6
669.607	1	-5
669.946	1	2
670.285	1	6
670.623	1	-3
670.962	1	5
671.301	1	5
671.640	1	-13
671.979	1	9
672.317	1	-1
672.656	1	1
672.995	1	9
673.334	1	5
673.673	1	13
674.011	1	6
674.350	1	5
674.689	1	3
675.028	1	-5
675.367	1	9
675.705	1	0
676.044	1	-8
676.383	1	1
676.722	1	-4
677.060	1	6
677.399	1	0
677.738	1	-3
678.077	1	8
678.416	1	7
678.754	1	12
679.093	1	4
679.432	1	-6
679.771	1	-2
680.109	1	12
680.448	1	3
680.787	1	5
681.125	1	7
681.464	1	-11
681.803	1	-16
682.142	1	15
682.480	1	-3
682.819	1	5
683.158	1	-1
683.496	1	1
683.835	1	5
684.174	1	-5
684.512	1	-4
684.851	1	-6
685.190	1	7
685.529	1	4
685.867	1	3
686.206	1	-2
686.545	1	9
686.883	1	-2
687.222	1	-14
687.561	1	3
687.899	1	-1
688.238	1	-1
688.577	1	1
688.746	1	2