File: Analysis/GaN_68K_200ms/GaN_sample E_spot4_UVVIS_68 K_200um_200 ms 2x2mm1_378.txt
340.368	1	10
340.710	1	-11
341.052	1	-3
341.394	1	-1
341.737	1	9
342.079	1	1
342.421	1	-2
342.763	1	-5
343.105	1	13
343.447	1	6
343.789	1	7
344.131	1	1
344.473	1	2
344.815	1	6
345.157	1	6
345.499	1	3
345.841	1	0
346.183	1	1
346.526	1	6
346.868	1	10
347.210	1	-3
347.552	1	2
347.894	1	7
348.236	1	5
348.578	1	3
348.920	1	9
349.262	1	6
349.604	1	13
349.946	1	10
350.288	1	0
350.630	1	-5
350.972	1	-4
351.314	1	-2
351.656	1	7
351.998	1	-1
352.340	1	0
352.682	1	-11
353.024	1	0
353.366	1	8
353.708	1	4
354.050	1	0
354.392	1	5
354.734	1	4
355.076	1	0
355.418	1	3
355.760	1	8
356.102	1	5
356.444	1	4
356.785	1	12
357.127	1	1
357.469	1	-1
357.811	1	10
358.153	1	6
358.495	1	9
358.837	1	-1
359.179	1	4
359.521	1	-5
359.863	1	-5
360.205	1	5
360.547	1	3
360.889	1	1
361.231	1	-1
361.572	1	1
361.914	1	3
362.256	1	4
362.598	1	6
362.940	1	-1
363.282	1	9
363.624	1	6
363.966	1	1
364.308	1	-9
364.649	1	0
364.991	1	16
365.333	1	8
365.675	1	-3
366.017	1	4
366.359	1	10
366.701	1	-2
367.042	1	16
367.384	1	9
367.726	1	7
368.068	1	8
368.410	1	4
368.752	1	1
369.093	1	7
369.435	1	-1
369.777	1	-1
370.119	1	5
370.461	1	2
370.803	1	0
371.144	1	11
371.486	1	13
371.828	1	2
372.170	1	9
372.512	1	3
372.853	1	0
373.195	1	-2
373.537	1	6
373.879	1	10
374.220	1	-3
374.562	1	-2
374.904	1	-2
375.246	1	1
375.588	1	10
375.929	1	9
376.271	1	2
376.613	1	5
376.955	1	-8
377.296	1	12
377.638	1	4
377.980	1	4
378.321	1	5
378.663	1	-4
379.005	1	7
379.347	1	5
379.688	1	-4
380.030	1	-1
380.372	1	11
380.714	1	8
381.055	1	3
381.397	1	-3
381.739	1	5
382.080	1	-15
382.422	1	13
382.764	1	9
383.105	1	2
383.447	1	18
383.789	1	6
384.130	1	8
384.472	1	-10
384.814	1	9
385.156	1	6
385.497	1	19
385.839	1	10
386.180	1	8
386.522	1	9
386.864	1	0
387.205	1	1
387.547	1	5
387.889	1	18
388.230	1	-5
388.572	1	0
388.914	1	11
389.255	1	0
389.597	1	2
389.939	1	17
390.280	1	17
390.622	1	-3
390.963	1	17
391.305	1	5
391.647	1	8
391.988	1	3
392.330	1	1
392.671	1	4
393.013	1	10
393.355	1	23
393.696	1	6
394.038	1	-3
394.379	1	-8
394.721	1	-2
395.062	1	-1
395.404	1	17
395.746	1	11
396.087	1	9
396.429	1	14
396.770	1	5
397.112	1	5
397.453	1	-3
397.795	1	8
398.136	1	5
398.478	1	-1
398.819	1	9
399.161	1	13
399.503	1	9
399.844	1	1
400.186	1	13
400.527	1	7
400.869	1	17
401.210	1	6
401.552	1	11
401.893	1	7
402.235	1	11
402.576	1	10
402.918	1	-1
403.259	1	-7
403.601	1	3
403.942	1	10
404.284	1	11
404.625	1	13
404.967	1	9
405.308	1	0
405.649	1	10
405.991	1	17
406.332	1	-5
406.674	1	10
407.015	1	-8
407.357	1	9
407.698	1	-5
408.040	1	6
408.381	1	-2
408.722	1	2
409.064	1	4
409.405	1	7
409.747	1	2
410.088	1	0
410.430	1	13
410.771	1	14
411.112	1	14
411.454	1	14
411.795	1	5
412.137	1	15
412.478	1	5
412.819	1	1
413.161	1	-1
413.502	1	1
413.844	1	8
414.185	1	3
414.526	1	5
414.868	1	12
415.209	1	-2
415.550	1	-3
415.892	1	4
416.233	1	-1
416.575	1	8
416.916	1	-5
417.257	1	13
417.599	1	-1
417.940	1	4
418.281	1	-1
418.623	1	-2
418.964	1	1
419.305	1	1
419.647	1	6
419.988	1	9
420.329	1	4
420.671	1	14
421.012	1	9
421.353	1	3
421.695	1	-4
422.036	1	14
422.377	1	6
422.718	1	-1
423.060	1	2
423.401	1	5
423.742	1	10
424.084	1	0
424.425	1	-2
424.766	1	5
425.107	1	6
425.449	1	3
425.790	1	0
426.131	1	3
426.472	1	-12
426.814	1	7
427.155	1	4
427.496	1	14
427.837	1	-3
428.179	1	-3
428.520	1	-11
428.861	1	0
429.202	1	5
429.544	1	4
429.885	1	0
430.226	1	-11
430.567	1	13
430.909	1	0
431.250	1	-10
431.591	1	10
431.932	1	3
432.273	1	2
432.615	1	8
432.956	1	4
433.297	1	8
433.638	1	9
433.979	1	2
434.320	1	2
434.662	1	-3
435.003	1	3
435.344	1	7
435.685	1	4
436.026	1	6
436.368	1	-5
436.709	1	4
437.050	1	2
437.391	1	4
437.732	1	6
438.073	1	12
438.414	1	7
438.756	1	8
439.097	1	10
439.438	1	12
439.779	1	8
440.120	1	-9
440.461	1	0
440.802	1	3
441.143	1	3
441.485	1	-1
441.826	1	-4
442.167	1	4
442.508	1	5
442.849	1	5
443.190	1	-9
443.531	1	3
443.872	1	-2
444.213	1	-4
444.554	1	-7
444.895	1	4
445.237	1	-3
445.578	1	5
445.919	1	-1
446.260	1	2
446.601	1	-4
446.942	1	0
447.283	1	1
447.624	1	12
447.965	1	-4
448.306	1	1
448.647	1	8
448.988	1	-9
449.329	1	-8
449.670	1	3
450.011	1	10
450.352	1	4
450.693	1	7
451.034	1	8
451.375	1	5
451.716	1	12
452.057	1	2
452.398	1	6
452.739	1	17
453.080	1	11
453.421	1	-4
453.762	1	4
454.103	1	4
454.444	1	6
454.785	1	-1
455.126	1	1
455.467	1	10
455.808	1	-4
456.149	1	-3
456.490	1	10
456.831	1	14
457.172	1	7
457.513	1	-5
457.854	1	13
458.195	1	-7
458.536	1	6
458.877	1	-4
459.218	1	10
459.559	1	1
459.899	1	8
460.240	1	5
460.581	1	3
460.922	1	8
461.263	1	12
461.604	1	-1
461.945	1	2
462.286	1	13
462.627	1	4
462.968	1	-5
463.309	1	-2
463.649	1	-3
463.990	1	5
464.331	1	2
464.672	1	-1
465.013	1	-2
465.354	1	9
465.695	1	4
466.036	1	1
466.376	1	-6
466.717	1	-2
467.058	1	15
467.399	1	0
467.740	1	7
468.081	1	1
468.422	1	14
468.762	1	-8
469.103	1	-10
469.444	1	-4
469.785	1	5
470.126	1	9
470.467	1	-10
470.807	1	1
471.148	1	-5
471.489	1	-3
471.830	1	23
472.171	1	-2
472.511	1	10
472.852	1	-3
473.193	1	-6
473.534	1	-5
473.875	1	4
474.215	1	4
474.556	1	-4
474.897	1	2
475.238	1	-4
475.578	1	7
475.919	1	-1
476.260	1	-3
476.601	1	-2
476.942	1	-6
477.282	1	-2
477.623	1	7
477.964	1	6
478.305	1	2
478.645	1	-1
478.986	1	1
479.327	1	-4
479.667	1	0
480.008	1	3
480.349	1	-2
480.690	1	7
481.030	1	3
481.371	1	2
481.712	1	9
482.053	1	7
482.393	1	-8
482.734	1	4
483.075	1	4
483.415	1	12
483.756	1	12
484.097	1	-3
484.437	1	-14
484.778	1	0
485.119	1	2
485.459	1	10
485.800	1	-1
486.141	1	-2
486.481	1	1
486.822	1	4
487.163	1	-5
487.503	1	-17
487.844	1	-1
488.185	1	-7
488.525	1	-2
488.866	1	15
489.207	1	12
489.547	1	-1
489.888	1	-2
490.228	1	-6
490.569	1	4
490.910	1	-2
491.250	1	8
491.591	1	-7
491.932	1	9
492.272	1	4
492.613	1	2
492.953	1	6
493.294	1	0
493.635	1	-5
493.975	1	-5
494.316	1	11
494.656	1	-1
494.997	1	2
495.337	1	6
495.678	1	16
496.019	1	-9
496.359	1	2
496.700	1	7
497.040	1	-5
497.381	1	-23
497.721	1	-4
498.062	1	1
498.403	1	4
498.743	1	-4
499.084	1	-13
499.424	1	15
499.765	1	4
500.105	1	5
500.446	1	17
500.786	1	4
501.127	1	9
501.467	1	-2
501.808	1	-8
502.148	1	1
502.489	1	2
502.829	1	8
503.170	1	0
503.510	1	13
503.851	1	-17
504.191	1	2
504.532	1	-7
504.872	1	-3
505.213	1	4
505.553	1	-3
505.894	1	3
506.234	1	13
506.575	1	3
506.915	1	2
507.256	1	-7
507.596	1	12
507.936	1	1
508.277	1	9
508.617	1	8
508.958	1	13
509.298	1	11
509.639	1	11
509.979	1	1
510.319	1	6
510.660	1	-1
511.000	1	10
511.341	1	-8
511.681	1	1
512.022	1	-2
512.362	1	5
512.702	1	-6
513.043	1	0
513.383	1	-2
513.724	1	9
514.064	1	11
514.404	1	6
514.745	1	-1
515.085	1	8
515.425	1	-4
515.766	1	5
516.106	1	-1
516.447	1	5
516.787	1	-2
517.127	1	11
517.468	1	6
517.808	1	-2
518.148	1	8
518.489	1	5
518.829	1	-6
519.169	1	3
519.510	1	2
519.850	1	-1
520.190	1	2
520.531	1	1
520.871	1	-2
521.211	1	-1
521.552	1	6
521.892	1	-3
522.232	1	-10
522.573	1	0
522.913	1	11
523.253	1	13
523.593	1	-3
523.934	1	14
524.274	1	-2
524.614	1	-2
524.955	1	10
525.295	1	-7
525.635	1	16
525.975	1	4
526.316	1	7
526.656	1	22
526.996	1	7
527.337	1	3
527.677	1	15
528.017	1	3
528.357	1	12
528.698	1	-2
529.038	1	7
529.378	1	7
529.718	1	8
530.058	1	-1
530.399	1	14
530.739	1	4
531.079	1	14
531.419	1	8
531.760	1	5
532.100	1	13
532.440	1	5
532.780	1	0
533.120	1	-1
533.461	1	11
533.801	1	2
534.141	1	14
534.481	1	5
534.821	1	-2
535.162	1	4
535.502	1	-2
535.842	1	6
536.182	1	2
536.522	1	7
536.862	1	5
537.203	1	8
537.543	1	0
537.883	1	10
538.223	1	11
538.563	1	1
538.903	1	-7
539.243	1	8
539.584	1	5
539.924	1	4
540.264	1	-2
540.604	1	9
540.944	1	-3
541.284	1	8
541.624	1	8
541.964	1	7
542.305	1	-4
542.645	1	3
542.985	1	5
543.325	1	0
543.665	1	8
544.005	1	4
544.345	1	-3
544.685	1	16
545.025	1	3
545.365	1	10
545.705	1	3
546.045	1	14
546.386	1	9
546.726	1	1
547.066	1	-12
547.406	1	12
547.746	1	24
548.086	1	8
548.426	1	-6
548.766	1	7
549.106	1	12
549.446	1	-1
549.786	1	7
550.126	1	5
550.466	1	1
550.806	1	4
551.146	1	2
551.486	1	9
551.826	1	1
552.166	1	4
552.506	1	-5
552.846	1	9
553.186	1	1
553.526	1	4
553.866	1	0
554.206	1	6
554.546	1	-6
554.886	1	16
555.226	1	-6
555.566	1	15
555.906	1	2
556.246	1	-4
556.586	1	10
556.926	1	8
557.266	1	15
557.606	1	-5
557.946	1	13
558.286	1	8
558.626	1	6
558.966	1	2
559.306	1	3
559.646	1	-1
559.986	1	0
560.325	1	-5
560.665	1	6
561.005	1	10
561.345	1	-1
561.685	1	4
562.025	1	3
562.365	1	0
562.705	1	7
563.045	1	6
563.385	1	-8
563.725	1	-5
564.064	1	6
564.404	1	10
564.744	1	-3
565.084	1	-3
565.424	1	7
565.764	1	12
566.104	1	6
566.444	1	14
566.783	1	2
567.123	1	14
567.463	1	2
567.803	1	-2
568.143	1	-5
568.483	1	-5
568.823	1	14
569.162	1	5
569.502	1	8
569.842	1	-5
570.182	1	-6
570.522	1	8
570.862	1	14
571.201	1	-1
571.541	1	-5
571.881	1	3
572.221	1	-1
572.561	1	-2
572.900	1	16
573.240	1	2
573.580	1	5
573.920	1	-1
574.260	1	1
574.599	1	-1
574.939	1	1
575.279	1	4
575.619	1	8
575.959	1	-7
576.298	1	-1
576.638	1	12
576.978	1	11
577.318	1	8
577.657	1	-15
577.997	1	-8
578.337	1	5
578.677	1	2
579.016	1	11
579.356	1	-6
579.696	1	4
580.036	1	-5
580.375	1	1
580.715	1	9
581.055	1	6
581.394	1	-3
581.734	1	2
582.074	1	3
582.414	1	0
582.753	1	0
583.093	1	-1
583.433	1	0
583.772	1	0
584.112	1	-3
584.452	1	3
584.791	1	6
585.131	1	-5
585.471	1	5
585.811	1	-3
586.150	1	-2
586.490	1	-2
586.830	1	-1
587.169	1	2
587.509	1	6
587.849	1	2
588.188	1	0
588.528	1	3
588.867	1	6
589.207	1	-9
589.547	1	0
589.886	1	-1
590.226	1	7
590.566	1	2
590.905	1	0
591.245	1	4
591.585	1	4
591.924	1	-5
592.264	1	-1
592.603	1	-7
592.943	1	-4
593.283	1	9
593.622	1	-3
593.962	1	3
594.301	1	5
594.641	1	-3
594.981	1	7
595.320	1	5
595.660	1	-1
595.999	1	-1
596.339	1	2
596.678	1	0
597.018	1	-1
597.358	1	5
597.697	1	3
598.037	1	-1
598.376	1	6
598.716	1	-7
599.055	1	11
599.395	1	4
599.734	1	2
600.074	1	-4
600.413	1	0
600.753	1	1
601.092	1	-14
601.432	1	6
601.771	1	14
602.111	1	-9
602.451	1	3
602.790	1	-2
603.130	1	0
603.469	1	1
603.809	1	13
604.148	1	8
604.487	1	7
604.827	1	-10
605.166	1	0
605.506	1	1
605.845	1	2
606.185	1	4
606.524	1	1
606.864	1	-1
607.203	1	5
607.543	1	-5
607.882	1	-2
608.222	1	10
608.561	1	4
608.901	1	4
609.240	1	0
609.579	1	5
609.919	1	-2
610.258	1	5
610.598	1	2
610.937	1	-3
611.277	1	8
611.616	1	-15
611.955	1	13
612.295	1	3
612.634	1	-3
612.974	1	-3
613.313	1	8
613.652	1	-5
613.992	1	5
614.331	1	2
614.671	1	-1
615.010	1	6
615.349	1	3
615.689	1	6
616.028	1	-1
616.368	1	5
616.707	1	2
617.046	1	6
617.386	1	-1
617.725	1	5
618.064	1	9
618.404	1	11
618.743	1	8
619.082	1	7
619.422	1	3
619.761	1	1
620.100	1	8
620.440	1	6
620.779	1	-5
621.118	1	-1
621.458	1	3
621.797	1	5
622.136	1	11
622.476	1	1
622.815	1	-11
623.154	1	4
623.494	1	4
623.833	1	-4
624.172	1	18
624.511	1	2
624.851	1	-14
625.190	1	-4
625.529	1	14
625.869	1	12
626.208	1	-1
626.547	1	2
626.886	1	-12
627.226	1	6
627.565	1	12
627.904	1	-2
628.243	1	-4
628.583	1	-2
628.922	1	-1
629.261	1	6
629.600	1	5
629.940	1	4
630.279	1	-5
630.618	1	5
630.957	1	-7
631.297	1	-9
631.636	1	6
631.975	1	4
632.314	1	10
632.653	1	2
632.993	1	0
633.332	1	3
633.671	1	3
634.010	1	8
634.349	1	12
634.689	1	7
635.028	1	3
635.367	1	-3
635.706	1	-9
636.045	1	2
636.384	1	3
636.724	1	-4
637.063	1	3
637.402	1	0
637.741	1	13
638.080	1	-5
638.419	1	3
638.759	1	0
639.098	1	0
639.437	1	3
639.776	1	1
640.115	1	-6
640.454	1	4
640.793	1	9
641.132	1	10
641.472	1	-6
641.811	1	1
642.150	1	16
642.489	1	-1
642.828	1	2
643.167	1	16
643.506	1	-6
643.845	1	3
644.184	1	14
644.524	1	-7
644.863	1	0
645.202	1	-1
645.541	1	-8
645.880	1	0
646.219	1	6
646.558	1	1
646.897	1	-2
647.236	1	4
647.575	1	4
647.914	1	-6
648.253	1	-1
648.592	1	-4
648.931	1	0
649.270	1	18
649.610	1	8
649.949	1	2
650.288	1	-6
650.627	1	-3
650.966	1	-1
651.305	1	-5
651.644	1	11
651.983	1	10
652.322	1	8
652.661	1	8
653.000	1	-6
653.339	1	16
653.678	1	7
654.017	1	7
654.356	1	9
654.695	1	10
655.034	1	-3
655.373	1	0
655.712	1	7
656.051	1	0
656.390	1	3
656.729	1	1
657.068	1	4
657.406	1	4
657.745	1	4
658.084	1	6
658.423	1	-11
658.762	1	-1
659.101	1	-6
659.440	1	9
659.779	1	1
660.118	1	1
660.457	1	-8
660.796	1	-1
661.135	1	6
661.474	1	-1
661.813	1	2
662.152	1	-2
662.491	1	-1
662.829	1	-1
663.168	1	-9
663.507	1	-5
663.846	1	1
664.185	1	6
664.524	1	-9
664.863	1	13
665.202	1	-13
665.541	1	5
665.879	1	-6
666.218	1	-5
666.557	1	-5
666.896	1	7
667.235	1	4
667.574	1	2
667.913	1	7
668.251	1	4
668.590	1	-3
668.929	1	5
669.268	1	1
669.607	1	-8
669.946	1	14
670.285	1	2
670.623	1	13
670.962	1	4
671.301	1	-3
671.640	1	-16
671.979	1	15
672.317	1	-9
672.656	1	6
672.995	1	-6
673.334	1	7
673.673	1	11
674.011	1	7
674.350	1	-6
674.689	1	3
675.028	1	9
675.367	1	9
675.705	1	-8
676.044	1	-9
676.383	1	-2
676.722	1	-5
677.060	1	-1
677.399	1	-4
677.738	1	-8
678.077	1	0
678.416	1	0
678.754	1	-8
679.093	1	3
679.432	1	-2
679.771	1	1
680.109	1	-2
680.448	1	2
680.787	1	5
681.125	1	3
681.464	1	-6
681.803	1	-4
682.142	1	15
682.480	1	-3
682.819	1	2
683.158	1	2
683.496	1	-1
683.835	1	10
684.174	1	-2
684.512	1	2
684.851	1	-8
685.190	1	5
685.529	1	4
685.867	1	1
686.206	1	1
686.545	1	-3
686.883	1	-5
687.222	1	-2
687.561	1	1
687.899	1	1
688.238	1	0
688.577	1	-7
688.746	1	-1