File: Analysis/GaN_68K_200ms/GaN_sample E_spot4_UVVIS_68 K_200um_200 ms 2x2mm1_813.txt
340.368	1	1
340.710	1	-4
341.052	1	9
341.394	1	-11
341.737	1	11
342.079	1	-6
342.421	1	2
342.763	1	2
343.105	1	8
343.447	1	1
343.789	1	-2
344.131	1	-5
344.473	1	-4
344.815	1	-4
345.157	1	4
345.499	1	0
345.841	1	4
346.183	1	8
346.526	1	4
346.868	1	6
347.210	1	-3
347.552	1	5
347.894	1	4
348.236	1	4
348.578	1	7
348.920	1	10
349.262	1	2
349.604	1	10
349.946	1	4
350.288	1	4
350.630	1	-1
350.972	1	-7
351.314	1	-5
351.656	1	7
351.998	1	-6
352.340	1	-1
352.682	1	-1
353.024	1	-13
353.366	1	-2
353.708	1	8
354.050	1	-1
354.392	1	4
354.734	1	3
355.076	1	4
355.418	1	-2
355.760	1	8
356.102	1	-8
356.444	1	10
356.785	1	11
357.127	1	5
357.469	1	-8
357.811	1	7
358.153	1	3
358.495	1	7
358.837	1	-1
359.179	1	-8
359.521	1	3
359.863	1	-9
360.205	1	-6
360.547	1	1
360.889	1	3
361.231	1	2
361.572	1	3
361.914	1	-4
362.256	1	12
362.598	1	1
362.940	1	-5
363.282	1	12
363.624	1	1
363.966	1	4
364.308	1	-1
364.649	1	0
364.991	1	6
365.333	1	5
365.675	1	-3
366.017	1	3
366.359	1	3
366.701	1	0
367.042	1	3
367.384	1	7
367.726	1	9
368.068	1	-5
368.410	1	-7
368.752	1	-8
369.093	1	5
369.435	1	-5
369.777	1	-4
370.119	1	3
370.461	1	7
370.803	1	1
371.144	1	4
371.486	1	10
371.828	1	0
372.170	1	12
372.512	1	-12
372.853	1	-2
373.195	1	-12
373.537	1	3
373.879	1	3
374.220	1	2
374.562	1	1
374.904	1	-8
375.246	1	-5
375.588	1	1
375.929	1	2
376.271	1	8
376.613	1	-5
376.955	1	-8
377.296	1	6
377.638	1	-1
377.980	1	-5
378.321	1	-2
378.663	1	-7
379.005	1	1
379.347	1	9
379.688	1	-5
380.030	1	-2
380.372	1	7
380.714	1	12
381.055	1	5
381.397	1	-3
381.739	1	8
382.080	1	-11
382.422	1	20
382.764	1	-3
383.105	1	4
383.447	1	7
383.789	1	-2
384.130	1	-9
384.472	1	-2
384.814	1	4
385.156	1	-2
385.497	1	11
385.839	1	10
386.180	1	1
386.522	1	2
386.864	1	1
387.205	1	6
387.547	1	-11
387.889	1	12
388.230	1	-6
388.572	1	3
388.914	1	15
389.255	1	5
389.597	1	-1
389.939	1	5
390.280	1	8
390.622	1	-5
390.963	1	0
391.305	1	7
391.647	1	9
391.988	1	-9
392.330	1	11
392.671	1	-1
393.013	1	5
393.355	1	14
393.696	1	-2
394.038	1	-10
394.379	1	-13
394.721	1	-1
395.062	1	-4
395.404	1	4
395.746	1	0
396.087	1	-1
396.429	1	-3
396.770	1	8
397.112	1	-4
397.453	1	-5
397.795	1	2
398.136	1	-3
398.478	1	-6
398.819	1	2
399.161	1	0
399.503	1	-3
399.844	1	2
400.186	1	5
400.527	1	6
400.869	1	7
401.210	1	-3
401.552	1	0
401.893	1	1
402.235	1	8
402.576	1	6
402.918	1	-10
403.259	1	-13
403.601	1	-2
403.942	1	13
404.284	1	-4
404.625	1	1
404.967	1	7
405.308	1	9
405.649	1	-7
405.991	1	8
406.332	1	-13
406.674	1	0
407.015	1	-8
407.357	1	4
407.698	1	-1
408.040	1	-10
408.381	1	-7
408.722	1	-7
409.064	1	6
409.405	1	-1
409.747	1	-1
410.088	1	-7
410.430	1	-2
410.771	1	4
411.112	1	-4
411.454	1	14
411.795	1	-3
412.137	1	8
412.478	1	-1
412.819	1	-11
413.161	1	3
413.502	1	-3
413.844	1	-6
414.185	1	3
414.526	1	3
414.868	1	9
415.209	1	-8
415.550	1	-13
415.892	1	0
416.233	1	11
416.575	1	-2
416.916	1	-11
417.257	1	0
417.599	1	8
417.940	1	-8
418.281	1	-1
418.623	1	3
418.964	1	3
419.305	1	8
419.647	1	5
419.988	1	-5
420.329	1	1
420.671	1	2
421.012	1	4
421.353	1	2
421.695	1	5
422.036	1	0
422.377	1	2
422.718	1	-4
423.060	1	1
423.401	1	1
423.742	1	-1
424.084	1	11
424.425	1	5
424.766	1	-2
425.107	1	-6
425.449	1	-5
425.790	1	-7
426.131	1	2
426.472	1	-12
426.814	1	2
427.155	1	-2
427.496	1	19
427.837	1	-1
428.179	1	-8
428.520	1	-3
428.861	1	1
429.202	1	-7
429.544	1	-4
429.885	1	-4
430.226	1	-4
430.567	1	12
430.909	1	-4
431.250	1	-13
431.591	1	4
431.932	1	6
432.273	1	-4
432.615	1	6
432.956	1	-4
433.297	1	4
433.638	1	-1
433.979	1	3
434.320	1	-6
434.662	1	-10
435.003	1	7
435.344	1	6
435.685	1	0
436.026	1	9
436.368	1	-5
436.709	1	-13
437.050	1	0
437.391	1	-2
437.732	1	11
438.073	1	5
438.414	1	3
438.756	1	3
439.097	1	9
439.438	1	16
439.779	1	-2
440.120	1	8
440.461	1	0
440.802	1	3
441.143	1	4
441.485	1	0
441.826	1	-12
442.167	1	-6
442.508	1	1
442.849	1	5
443.190	1	-2
443.531	1	2
443.872	1	3
444.213	1	-7
444.554	1	-1
444.895	1	-2
445.237	1	-2
445.578	1	1
445.919	1	-1
446.260	1	7
446.601	1	6
446.942	1	0
447.283	1	-8
447.624	1	1
447.965	1	-11
448.306	1	0
448.647	1	5
448.988	1	-22
449.329	1	7
449.670	1	9
450.011	1	-6
450.352	1	3
450.693	1	6
451.034	1	3
451.375	1	-4
451.716	1	0
452.057	1	11
452.398	1	3
452.739	1	-9
453.080	1	18
453.421	1	1
453.762	1	6
454.103	1	-1
454.444	1	12
454.785	1	-8
455.126	1	-5
455.467	1	5
455.808	1	-8
456.149	1	-11
456.490	1	-2
456.831	1	12
457.172	1	2
457.513	1	8
457.854	1	2
458.195	1	-7
458.536	1	-4
458.877	1	-8
459.218	1	3
459.559	1	4
459.899	1	0
460.240	1	-2
460.581	1	10
460.922	1	7
461.263	1	7
461.604	1	1
461.945	1	-1
462.286	1	9
462.627	1	8
462.968	1	-7
463.309	1	-7
463.649	1	3
463.990	1	-1
464.331	1	4
464.672	1	5
465.013	1	-15
465.354	1	0
465.695	1	9
466.036	1	12
466.376	1	-4
466.717	1	-8
467.058	1	12
467.399	1	4
467.740	1	2
468.081	1	5
468.422	1	-5
468.762	1	-17
469.103	1	-6
469.444	1	1
469.785	1	9
470.126	1	4
470.467	1	-6
470.807	1	-3
471.148	1	0
471.489	1	-1
471.830	1	10
472.171	1	-4
472.511	1	4
472.852	1	-7
473.193	1	-2
473.534	1	-3
473.875	1	0
474.215	1	-6
474.556	1	-4
474.897	1	-2
475.238	1	1
475.578	1	0
475.919	1	1
476.260	1	0
476.601	1	2
476.942	1	3
477.282	1	-12
477.623	1	3
477.964	1	18
478.305	1	1
478.645	1	-2
478.986	1	-1
479.327	1	-2
479.667	1	-2
480.008	1	4
480.349	1	1
480.690	1	-1
481.030	1	2
481.371	1	-4
481.712	1	-4
482.053	1	8
482.393	1	-6
482.734	1	1
483.075	1	7
483.415	1	4
483.756	1	8
484.097	1	-15
484.437	1	-11
484.778	1	-3
485.119	1	5
485.459	1	1
485.800	1	-2
486.141	1	-5
486.481	1	-6
486.822	1	2
487.163	1	2
487.503	1	-7
487.844	1	-2
488.185	1	-10
488.525	1	-1
488.866	1	9
489.207	1	8
489.547	1	-1
489.888	1	-1
490.228	1	-9
490.569	1	7
490.910	1	-7
491.250	1	1
491.591	1	-2
491.932	1	9
492.272	1	7
492.613	1	-3
492.953	1	1
493.294	1	14
493.635	1	3
493.975	1	2
494.316	1	-2
494.656	1	-4
494.997	1	-5
495.337	1	-3
495.678	1	7
496.019	1	-7
496.359	1	-1
496.700	1	1
497.040	1	-1
497.381	1	-6
497.721	1	-6
498.062	1	-6
498.403	1	7
498.743	1	-4
499.084	1	-3
499.424	1	4
499.765	1	3
500.105	1	10
500.446	1	5
500.786	1	7
501.127	1	6
501.467	1	6
501.808	1	-17
502.148	1	0
502.489	1	-2
502.829	1	0
503.170	1	2
503.510	1	4
503.851	1	-17
504.191	1	-2
504.532	1	-5
504.872	1	3
505.213	1	-6
505.553	1	1
505.894	1	9
506.234	1	5
506.575	1	4
506.915	1	-4
507.256	1	-6
507.596	1	4
507.936	1	4
508.277	1	6
508.617	1	3
508.958	1	18
509.298	1	9
509.639	1	6
509.979	1	-4
510.319	1	0
510.660	1	7
511.000	1	-1
511.341	1	-18
511.681	1	0
512.022	1	-6
512.362	1	3
512.702	1	-18
513.043	1	1
513.383	1	-5
513.724	1	16
514.064	1	-2
514.404	1	7
514.745	1	-10
515.085	1	3
515.425	1	-10
515.766	1	0
516.106	1	-9
516.447	1	8
516.787	1	2
517.127	1	4
517.468	1	4
517.808	1	-7
518.148	1	-2
518.489	1	-2
518.829	1	-4
519.169	1	8
519.510	1	-1
519.850	1	-6
520.190	1	-6
520.531	1	3
520.871	1	-8
521.211	1	9
521.552	1	5
521.892	1	-13
522.232	1	-6
522.573	1	2
522.913	1	1
523.253	1	-4
523.593	1	-6
523.934	1	2
524.274	1	-12
524.614	1	2
524.955	1	5
525.295	1	-4
525.635	1	17
525.975	1	-14
526.316	1	-1
526.656	1	22
526.996	1	8
527.337	1	-3
527.677	1	13
528.017	1	-9
528.357	1	1
528.698	1	3
529.038	1	1
529.378	1	-4
529.718	1	0
530.058	1	-5
530.399	1	3
530.739	1	-3
531.079	1	13
531.419	1	7
531.760	1	6
532.100	1	0
532.440	1	-9
532.780	1	-6
533.120	1	-9
533.461	1	13
533.801	1	5
534.141	1	10
534.481	1	8
534.821	1	8
535.162	1	4
535.502	1	1
535.842	1	6
536.182	1	-3
536.522	1	16
536.862	1	7
537.203	1	5
537.543	1	-3
537.883	1	10
538.223	1	10
538.563	1	5
538.903	1	-2
539.243	1	-1
539.584	1	6
539.924	1	3
540.264	1	3
540.604	1	7
540.944	1	-3
541.284	1	-1
541.624	1	5
541.964	1	-5
542.305	1	-6
542.645	1	-6
542.985	1	-12
543.325	1	-1
543.665	1	5
544.005	1	-5
544.345	1	-11
544.685	1	13
545.025	1	1
545.365	1	6
545.705	1	3
546.045	1	11
546.386	1	0
546.726	1	-3
547.066	1	-6
547.406	1	14
547.746	1	1
548.086	1	-4
548.426	1	0
548.766	1	12
549.106	1	9
549.446	1	-1
549.786	1	-7
550.126	1	-1
550.466	1	-6
550.806	1	-3
551.146	1	2
551.486	1	2
551.826	1	7
552.166	1	-11
552.506	1	-3
552.846	1	5
553.186	1	0
553.526	1	-10
553.866	1	2
554.206	1	5
554.546	1	-13
554.886	1	3
555.226	1	-7
555.566	1	3
555.906	1	0
556.246	1	4
556.586	1	7
556.926	1	5
557.266	1	1
557.606	1	-11
557.946	1	8
558.286	1	4
558.626	1	-2
558.966	1	3
559.306	1	-5
559.646	1	-4
559.986	1	-6
560.325	1	-7
560.665	1	8
561.005	1	-6
561.345	1	5
561.685	1	-5
562.025	1	-7
562.365	1	1
562.705	1	-4
563.045	1	3
563.385	1	1
563.725	1	6
564.064	1	1
564.404	1	-3
564.744	1	4
565.084	1	-8
565.424	1	-8
565.764	1	5
566.104	1	-5
566.444	1	3
566.783	1	8
567.123	1	14
567.463	1	-4
567.803	1	-4
568.143	1	-4
568.483	1	-8
568.823	1	4
569.162	1	-2
569.502	1	5
569.842	1	-1
570.182	1	-7
570.522	1	3
570.862	1	1
571.201	1	5
571.541	1	-8
571.881	1	4
572.221	1	9
572.561	1	-13
572.900	1	13
573.240	1	-2
573.580	1	-1
573.920	1	2
574.260	1	4
574.599	1	-3
574.939	1	-5
575.279	1	2
575.619	1	-1
575.959	1	1
576.298	1	-6
576.638	1	-3
576.978	1	-2
577.318	1	7
577.657	1	-19
577.997	1	-6
578.337	1	7
578.677	1	-8
579.016	1	8
579.356	1	0
579.696	1	5
580.036	1	-8
580.375	1	1
580.715	1	6
581.055	1	-5
581.394	1	3
581.734	1	-2
582.074	1	-4
582.414	1	-1
582.753	1	8
583.093	1	-6
583.433	1	-16
583.772	1	-4
584.112	1	-1
584.452	1	1
584.791	1	3
585.131	1	-5
585.471	1	-6
585.811	1	-9
586.150	1	4
586.490	1	-11
586.830	1	1
587.169	1	4
587.509	1	5
587.849	1	5
588.188	1	1
588.528	1	0
588.867	1	-1
589.207	1	-10
589.547	1	-7
589.886	1	0
590.226	1	6
590.566	1	-12
590.905	1	6
591.245	1	-2
591.585	1	-11
591.924	1	-8
592.264	1	-5
592.603	1	-8
592.943	1	-1
593.283	1	7
593.622	1	-5
593.962	1	16
594.301	1	-2
594.641	1	-2
594.981	1	1
595.320	1	5
595.660	1	3
595.999	1	-7
596.339	1	5
596.678	1	-11
597.018	1	1
597.358	1	-5
597.697	1	-4
598.037	1	-1
598.376	1	8
598.716	1	-11
599.055	1	-2
599.395	1	4
599.734	1	-1
600.074	1	-5
600.413	1	-2
600.753	1	2
601.092	1	-6
601.432	1	-2
601.771	1	8
602.111	1	1
602.451	1	5
602.790	1	1
603.130	1	2
603.469	1	-6
603.809	1	3
604.148	1	4
604.487	1	1
604.827	1	-14
605.166	1	-13
605.506	1	1
605.845	1	7
606.185	1	-2
606.524	1	0
606.864	1	-4
607.203	1	8
607.543	1	-1
607.882	1	-8
608.222	1	1
608.561	1	12
608.901	1	4
609.240	1	-1
609.579	1	5
609.919	1	2
610.258	1	10
610.598	1	1
610.937	1	-1
611.277	1	-1
611.616	1	4
611.955	1	9
612.295	1	-4
612.634	1	-4
612.974	1	5
613.313	1	8
613.652	1	-11
613.992	1	2
614.331	1	-2
614.671	1	2
615.010	1	8
615.349	1	2
615.689	1	2
616.028	1	-7
616.368	1	-9
616.707	1	-7
617.046	1	3
617.386	1	3
617.725	1	8
618.064	1	6
618.404	1	5
618.743	1	-8
619.082	1	-2
619.422	1	-1
619.761	1	4
620.100	1	-2
620.440	1	5
620.779	1	5
621.118	1	1
621.458	1	8
621.797	1	-1
622.136	1	6
622.476	1	1
622.815	1	-5
623.154	1	1
623.494	1	-7
623.833	1	-1
624.172	1	5
624.511	1	2
624.851	1	-5
625.190	1	-6
625.529	1	5
625.869	1	14
626.208	1	-5
626.547	1	0
626.886	1	1
627.226	1	-4
627.565	1	6
627.904	1	-3
628.243	1	-5
628.583	1	-3
628.922	1	-5
629.261	1	9
629.600	1	4
629.940	1	-4
630.279	1	-4
630.618	1	-5
630.957	1	-7
631.297	1	-4
631.636	1	-5
631.975	1	6
632.314	1	4
632.653	1	-2
632.993	1	5
633.332	1	3
633.671	1	-2
634.010	1	-2
634.349	1	10
634.689	1	-1
635.028	1	2
635.367	1	4
635.706	1	-3
636.045	1	-2
636.384	1	13
636.724	1	-4
637.063	1	2
637.402	1	13
637.741	1	8
638.080	1	6
638.419	1	11
638.759	1	0
639.098	1	-3
639.437	1	-3
639.776	1	-3
640.115	1	-8
640.454	1	11
640.793	1	6
641.132	1	3
641.472	1	-5
641.811	1	-1
642.150	1	5
642.489	1	2
642.828	1	-5
643.167	1	6
643.506	1	-1
643.845	1	8
644.184	1	6
644.524	1	-13
644.863	1	-6
645.202	1	-1
645.541	1	-3
645.880	1	-1
646.219	1	0
646.558	1	-6
646.897	1	8
647.236	1	-4
647.575	1	5
647.914	1	1
648.253	1	-1
648.592	1	8
648.931	1	1
649.270	1	13
649.610	1	8
649.949	1	4
650.288	1	-8
650.627	1	-4
650.966	1	-2
651.305	1	-1
651.644	1	-7
651.983	1	1
652.322	1	8
652.661	1	3
653.000	1	-5
653.339	1	2
653.678	1	-2
654.017	1	-1
654.356	1	7
654.695	1	4
655.034	1	-7
655.373	1	0
655.712	1	-2
656.051	1	1
656.390	1	1
656.729	1	6
657.068	1	-6
657.406	1	1
657.745	1	-4
658.084	1	0
658.423	1	-1
658.762	1	1
659.101	1	-2
659.440	1	8
659.779	1	-8
660.118	1	8
660.457	1	-4
660.796	1	-7
661.135	1	-2
661.474	1	-5
661.813	1	10
662.152	1	-4
662.491	1	2
662.829	1	-6
663.168	1	-9
663.507	1	6
663.846	1	3
664.185	1	4
664.524	1	-15
664.863	1	-1
665.202	1	-14
665.541	1	-2
665.879	1	1
666.218	1	-11
666.557	1	4
666.896	1	-5
667.235	1	9
667.574	1	3
667.913	1	-3
668.251	1	-2
668.590	1	-8
668.929	1	0
669.268	1	-4
669.607	1	-7
669.946	1	8
670.285	1	6
670.623	1	1
670.962	1	1
671.301	1	-5
671.640	1	-17
671.979	1	6
672.317	1	7
672.656	1	5
672.995	1	5
673.334	1	1
673.673	1	15
674.011	1	6
674.350	1	-9
674.689	1	-1
675.028	1	1
675.367	1	2
675.705	1	-15
676.044	1	-5
676.383	1	1
676.722	1	-5
677.060	1	4
677.399	1	-4
677.738	1	-4
678.077	1	5
678.416	1	5
678.754	1	2
679.093	1	0
679.432	1	-11
679.771	1	-10
680.109	1	1
680.448	1	0
680.787	1	2
681.125	1	-2
681.464	1	4
681.803	1	-11
682.142	1	6
682.480	1	-9
682.819	1	5
683.158	1	2
683.496	1	-8
683.835	1	5
684.174	1	6
684.512	1	3
684.851	1	3
685.190	1	2
685.529	1	-5
685.867	1	3
686.206	1	0
686.545	1	5
686.883	1	-13
687.222	1	-5
687.561	1	6
687.899	1	-8
688.238	1	3
688.577	1	-3
688.746	1	5