File: Analysis/GaN_68K_200ms/GaN_sample E_spot4_UVVIS_68 K_200um_200 ms 2x2mm1_210.txt
340.368	1	4
340.710	1	3
341.052	1	8
341.394	1	-1
341.737	1	14
342.079	1	2
342.421	1	-11
342.763	1	2
343.105	1	11
343.447	1	2
343.789	1	6
344.131	1	0
344.473	1	4
344.815	1	2
345.157	1	12
345.499	1	14
345.841	1	12
346.183	1	-1
346.526	1	10
346.868	1	7
347.210	1	-4
347.552	1	3
347.894	1	5
348.236	1	10
348.578	1	-2
348.920	1	13
349.262	1	1
349.604	1	13
349.946	1	8
350.288	1	9
350.630	1	-1
350.972	1	7
351.314	1	1
351.656	1	4
351.998	1	9
352.340	1	10
352.682	1	0
353.024	1	-7
353.366	1	11
353.708	1	10
354.050	1	11
354.392	1	14
354.734	1	3
355.076	1	7
355.418	1	8
355.760	1	12
356.102	1	1
356.444	1	6
356.785	1	22
357.127	1	6
357.469	1	4
357.811	1	20
358.153	1	13
358.495	1	14
358.837	1	8
359.179	1	17
359.521	1	9
359.863	1	-10
360.205	1	2
360.547	1	12
360.889	1	16
361.231	1	5
361.572	1	7
361.914	1	15
362.256	1	18
362.598	1	19
362.940	1	14
363.282	1	12
363.624	1	9
363.966	1	15
364.308	1	15
364.649	1	4
364.991	1	20
365.333	1	22
365.675	1	7
366.017	1	20
366.359	1	10
366.701	1	7
367.042	1	27
367.384	1	27
367.726	1	21
368.068	1	10
368.410	1	13
368.752	1	12
369.093	1	18
369.435	1	15
369.777	1	7
370.119	1	13
370.461	1	15
370.803	1	15
371.144	1	17
371.486	1	19
371.828	1	14
372.170	1	19
372.512	1	12
372.853	1	14
373.195	1	-1
373.537	1	14
373.879	1	11
374.220	1	13
374.562	1	3
374.904	1	15
375.246	1	11
375.588	1	9
375.929	1	9
376.271	1	5
376.613	1	7
376.955	1	-2
377.296	1	11
377.638	1	5
377.980	1	1
378.321	1	15
378.663	1	-3
379.005	1	17
379.347	1	7
379.688	1	7
380.030	1	2
380.372	1	2
380.714	1	6
381.055	1	10
381.397	1	7
381.739	1	12
382.080	1	-1
382.422	1	25
382.764	1	11
383.105	1	9
383.447	1	17
383.789	1	18
384.130	1	10
384.472	1	4
384.814	1	23
385.156	1	35
385.497	1	28
385.839	1	26
386.180	1	19
386.522	1	32
386.864	1	24
387.205	1	18
387.547	1	23
387.889	1	29
388.230	1	14
388.572	1	21
388.914	1	23
389.255	1	20
389.597	1	11
389.939	1	26
390.280	1	24
390.622	1	15
390.963	1	27
391.305	1	23
391.647	1	21
391.988	1	16
392.330	1	17
392.671	1	22
393.013	1	29
393.355	1	29
393.696	1	14
394.038	1	16
394.379	1	20
394.721	1	22
395.062	1	15
395.404	1	22
395.746	1	10
396.087	1	14
396.429	1	23
396.770	1	25
397.112	1	16
397.453	1	8
397.795	1	26
398.136	1	25
398.478	1	23
398.819	1	26
399.161	1	21
399.503	1	14
399.844	1	8
400.186	1	27
400.527	1	13
400.869	1	20
401.210	1	13
401.552	1	27
401.893	1	18
402.235	1	28
402.576	1	23
402.918	1	4
403.259	1	7
403.601	1	9
403.942	1	24
404.284	1	9
404.625	1	20
404.967	1	19
405.308	1	18
405.649	1	6
405.991	1	17
406.332	1	11
406.674	1	18
407.015	1	6
407.357	1	16
407.698	1	8
408.040	1	8
408.381	1	22
408.722	1	7
409.064	1	24
409.405	1	15
409.747	1	5
410.088	1	20
410.430	1	22
410.771	1	25
411.112	1	11
411.454	1	18
411.795	1	15
412.137	1	24
412.478	1	15
412.819	1	7
413.161	1	7
413.502	1	15
413.844	1	10
414.185	1	14
414.526	1	10
414.868	1	21
415.209	1	7
415.550	1	4
415.892	1	11
416.233	1	13
416.575	1	6
416.916	1	3
417.257	1	20
417.599	1	19
417.940	1	9
418.281	1	11
418.623	1	5
418.964	1	19
419.305	1	3
419.647	1	20
419.988	1	5
420.329	1	14
420.671	1	13
421.012	1	23
421.353	1	16
421.695	1	12
422.036	1	10
422.377	1	8
422.718	1	6
423.060	1	16
423.401	1	17
423.742	1	9
424.084	1	9
424.425	1	9
424.766	1	13
425.107	1	14
425.449	1	2
425.790	1	8
426.131	1	11
426.472	1	13
426.814	1	26
427.155	1	6
427.496	1	17
427.837	1	3
428.179	1	8
428.520	1	9
428.861	1	12
429.202	1	10
429.544	1	9
429.885	1	10
430.226	1	12
430.567	1	20
430.909	1	2
431.250	1	-9
431.591	1	10
431.932	1	18
432.273	1	8
432.615	1	16
432.956	1	-1
433.297	1	17
433.638	1	11
433.979	1	10
434.320	1	13
434.662	1	13
435.003	1	15
435.344	1	6
435.685	1	6
436.026	1	10
436.368	1	8
436.709	1	-5
437.050	1	10
437.391	1	8
437.732	1	9
438.073	1	12
438.414	1	-3
438.756	1	10
439.097	1	6
439.438	1	12
439.779	1	8
440.120	1	2
440.461	1	-1
440.802	1	9
441.143	1	12
441.485	1	3
441.826	1	-8
442.167	1	6
442.508	1	10
442.849	1	7
443.190	1	-2
443.531	1	4
443.872	1	3
444.213	1	10
444.554	1	5
444.895	1	8
445.237	1	7
445.578	1	11
445.919	1	14
446.260	1	11
446.601	1	-4
446.942	1	5
447.283	1	3
447.624	1	9
447.965	1	5
448.306	1	6
448.647	1	18
448.988	1	-6
449.329	1	16
449.670	1	13
450.011	1	8
450.352	1	12
450.693	1	9
451.034	1	10
451.375	1	9
451.716	1	8
452.057	1	9
452.398	1	8
452.739	1	4
453.080	1	16
453.421	1	4
453.762	1	11
454.103	1	9
454.444	1	19
454.785	1	10
455.126	1	9
455.467	1	14
455.808	1	3
456.149	1	6
456.490	1	-2
456.831	1	16
457.172	1	2
457.513	1	10
457.854	1	1
458.195	1	-4
458.536	1	6
458.877	1	11
459.218	1	-2
459.559	1	6
459.899	1	19
460.240	1	6
460.581	1	15
460.922	1	6
461.263	1	6
461.604	1	2
461.945	1	1
462.286	1	18
462.627	1	5
462.968	1	-2
463.309	1	8
463.649	1	4
463.990	1	5
464.331	1	4
464.672	1	7
465.013	1	-6
465.354	1	-2
465.695	1	7
466.036	1	13
466.376	1	-8
466.717	1	7
467.058	1	13
467.399	1	8
467.740	1	4
468.081	1	5
468.422	1	3
468.762	1	1
469.103	1	-3
469.444	1	4
469.785	1	11
470.126	1	8
470.467	1	-2
470.807	1	5
471.148	1	2
471.489	1	10
471.830	1	15
472.171	1	-1
472.511	1	13
472.852	1	-4
473.193	1	0
473.534	1	4
473.875	1	6
474.215	1	5
474.556	1	-2
474.897	1	9
475.238	1	-3
475.578	1	9
475.919	1	7
476.260	1	5
476.601	1	11
476.942	1	-1
477.282	1	-3
477.623	1	12
477.964	1	14
478.305	1	2
478.645	1	0
478.986	1	11
479.327	1	-4
479.667	1	14
480.008	1	4
480.349	1	4
480.690	1	3
481.030	1	3
481.371	1	-2
481.712	1	7
482.053	1	11
482.393	1	-1
482.734	1	13
483.075	1	3
483.415	1	8
483.756	1	12
484.097	1	-3
484.437	1	-5
484.778	1	3
485.119	1	3
485.459	1	12
485.800	1	4
486.141	1	-1
486.481	1	2
486.822	1	16
487.163	1	2
487.503	1	3
487.844	1	11
488.185	1	2
488.525	1	6
488.866	1	17
489.207	1	13
489.547	1	-8
489.888	1	-2
490.228	1	-5
490.569	1	18
490.910	1	5
491.250	1	-1
491.591	1	5
491.932	1	13
492.272	1	14
492.613	1	15
492.953	1	6
493.294	1	16
493.635	1	2
493.975	1	1
494.316	1	14
494.656	1	3
494.997	1	-2
495.337	1	-3
495.678	1	17
496.019	1	2
496.359	1	4
496.700	1	14
497.040	1	0
497.381	1	-13
497.721	1	12
498.062	1	12
498.403	1	18
498.743	1	17
499.084	1	-4
499.424	1	21
499.765	1	14
500.105	1	11
500.446	1	5
500.786	1	4
501.127	1	7
501.467	1	18
501.808	1	-2
502.148	1	16
502.489	1	11
502.829	1	11
503.170	1	12
503.510	1	7
503.851	1	-4
504.191	1	6
504.532	1	2
504.872	1	2
505.213	1	9
505.553	1	20
505.894	1	7
506.234	1	13
506.575	1	11
506.915	1	14
507.256	1	-3
507.596	1	13
507.936	1	13
508.277	1	2
508.617	1	22
508.958	1	14
509.298	1	19
509.639	1	14
509.979	1	9
510.319	1	8
510.660	1	16
511.000	1	7
511.341	1	4
511.681	1	16
512.022	1	13
512.362	1	10
512.702	1	4
513.043	1	3
513.383	1	8
513.724	1	18
514.064	1	10
514.404	1	11
514.745	1	12
515.085	1	14
515.425	1	3
515.766	1	8
516.106	1	2
516.447	1	20
516.787	1	3
517.127	1	21
517.468	1	16
517.808	1	17
518.148	1	18
518.489	1	15
518.829	1	7
519.169	1	19
519.510	1	14
519.850	1	2
520.190	1	18
520.531	1	17
520.871	1	15
521.211	1	16
521.552	1	16
521.892	1	-4
522.232	1	6
522.573	1	14
522.913	1	22
523.253	1	11
523.593	1	3
523.934	1	12
524.274	1	8
524.614	1	15
524.955	1	7
525.295	1	8
525.635	1	18
525.975	1	-2
526.316	1	7
526.656	1	33
526.996	1	28
527.337	1	7
527.677	1	23
528.017	1	6
528.357	1	19
528.698	1	11
529.038	1	14
529.378	1	17
529.718	1	19
530.058	1	18
530.399	1	30
530.739	1	11
531.079	1	16
531.419	1	20
531.760	1	20
532.100	1	26
532.440	1	16
532.780	1	5
533.120	1	6
533.461	1	19
533.801	1	15
534.141	1	24
534.481	1	15
534.821	1	25
535.162	1	19
535.502	1	19
535.842	1	9
536.182	1	15
536.522	1	9
536.862	1	23
537.203	1	18
537.543	1	17
537.883	1	18
538.223	1	16
538.563	1	13
538.903	1	14
539.243	1	13
539.584	1	7
539.924	1	14
540.264	1	19
540.604	1	19
540.944	1	14
541.284	1	15
541.624	1	13
541.964	1	16
542.305	1	4
542.645	1	9
542.985	1	1
543.325	1	7
543.665	1	22
544.005	1	9
544.345	1	4
544.685	1	21
545.025	1	12
545.365	1	7
545.705	1	21
546.045	1	21
546.386	1	17
546.726	1	11
547.066	1	7
547.406	1	7
547.746	1	11
548.086	1	22
548.426	1	5
548.766	1	17
549.106	1	15
549.446	1	13
549.786	1	18
550.126	1	13
550.466	1	10
550.806	1	16
551.146	1	11
551.486	1	15
551.826	1	12
552.166	1	4
552.506	1	2
552.846	1	9
553.186	1	12
553.526	1	7
553.866	1	15
554.206	1	13
554.546	1	0
554.886	1	13
555.226	1	-2
555.566	1	17
555.906	1	19
556.246	1	12
556.586	1	16
556.926	1	12
557.266	1	12
557.606	1	2
557.946	1	19
558.286	1	15
558.626	1	10
558.966	1	13
559.306	1	2
559.646	1	5
559.986	1	4
560.325	1	0
560.665	1	20
561.005	1	19
561.345	1	9
561.685	1	14
562.025	1	4
562.365	1	3
562.705	1	17
563.045	1	17
563.385	1	6
563.725	1	10
564.064	1	25
564.404	1	6
564.744	1	25
565.084	1	3
565.424	1	11
565.764	1	17
566.104	1	3
566.444	1	5
566.783	1	5
567.123	1	22
567.463	1	4
567.803	1	-2
568.143	1	0
568.483	1	9
568.823	1	17
569.162	1	14
569.502	1	11
569.842	1	10
570.182	1	5
570.522	1	13
570.862	1	15
571.201	1	1
571.541	1	1
571.881	1	7
572.221	1	6
572.561	1	5
572.900	1	22
573.240	1	-2
573.580	1	9
573.920	1	1
574.260	1	7
574.599	1	7
574.939	1	1
575.279	1	8
575.619	1	11
575.959	1	4
576.298	1	-3
576.638	1	9
576.978	1	5
577.318	1	14
577.657	1	-7
577.997	1	2
578.337	1	1
578.677	1	4
579.016	1	20
579.356	1	1
579.696	1	7
580.036	1	-4
580.375	1	8
580.715	1	16
581.055	1	6
581.394	1	-10
581.734	1	15
582.074	1	11
582.414	1	10
582.753	1	10
583.093	1	11
583.433	1	-3
583.772	1	4
584.112	1	14
584.452	1	9
584.791	1	6
585.131	1	-1
585.471	1	6
585.811	1	2
586.150	1	7
586.490	1	-2
586.830	1	-4
587.169	1	6
587.509	1	14
587.849	1	13
588.188	1	7
588.528	1	9
588.867	1	11
589.207	1	-1
589.547	1	10
589.886	1	-2
590.226	1	15
590.566	1	-4
590.905	1	14
591.245	1	8
591.585	1	8
591.924	1	5
592.264	1	4
592.603	1	3
592.943	1	1
593.283	1	8
593.622	1	-3
593.962	1	5
594.301	1	13
594.641	1	4
594.981	1	11
595.320	1	3
595.660	1	4
595.999	1	3
596.339	1	7
596.678	1	3
597.018	1	4
597.358	1	9
597.697	1	3
598.037	1	8
598.376	1	11
598.716	1	4
599.055	1	6
599.395	1	13
599.734	1	4
600.074	1	4
600.413	1	9
600.753	1	1
601.092	1	-3
601.432	1	3
601.771	1	13
602.111	1	-2
602.451	1	8
602.790	1	7
603.130	1	8
603.469	1	-1
603.809	1	13
604.148	1	3
604.487	1	6
604.827	1	-11
605.166	1	-5
605.506	1	12
605.845	1	10
606.185	1	7
606.524	1	2
606.864	1	8
607.203	1	19
607.543	1	-4
607.882	1	3
608.222	1	8
608.561	1	11
608.901	1	10
609.240	1	8
609.579	1	-2
609.919	1	-3
610.258	1	9
610.598	1	6
610.937	1	15
611.277	1	6
611.616	1	-7
611.955	1	4
612.295	1	6
612.634	1	9
612.974	1	8
613.313	1	6
613.652	1	-9
613.992	1	3
614.331	1	3
614.671	1	12
615.010	1	0
615.349	1	10
615.689	1	1
616.028	1	4
616.368	1	-2
616.707	1	0
617.046	1	10
617.386	1	4
617.725	1	7
618.064	1	15
618.404	1	13
618.743	1	-2
619.082	1	4
619.422	1	14
619.761	1	9
620.100	1	13
620.440	1	5
620.779	1	-1
621.118	1	-4
621.458	1	10
621.797	1	13
622.136	1	12
622.476	1	7
622.815	1	19
623.154	1	16
623.494	1	3
623.833	1	-2
624.172	1	15
624.511	1	-1
624.851	1	-2
625.190	1	4
625.529	1	9
625.869	1	7
626.208	1	4
626.547	1	14
626.886	1	1
627.226	1	2
627.565	1	15
627.904	1	6
628.243	1	-5
628.583	1	1
628.922	1	3
629.261	1	8
629.600	1	4
629.940	1	12
630.279	1	-9
630.618	1	11
630.957	1	-6
631.297	1	-2
631.636	1	-2
631.975	1	10
632.314	1	14
632.653	1	3
632.993	1	8
633.332	1	8
633.671	1	3
634.010	1	-4
634.349	1	3
634.689	1	8
635.028	1	4
635.367	1	1
635.706	1	-4
636.045	1	8
636.384	1	8
636.724	1	12
637.063	1	4
637.402	1	13
637.741	1	13
638.080	1	2
638.419	1	6
638.759	1	7
639.098	1	3
639.437	1	3
639.776	1	3
640.115	1	3
640.454	1	18
640.793	1	7
641.132	1	10
641.472	1	-12
641.811	1	8
642.150	1	1
642.489	1	0
642.828	1	3
643.167	1	4
643.506	1	5
643.845	1	6
644.184	1	13
644.524	1	-9
644.863	1	-8
645.202	1	1
645.541	1	2
645.880	1	10
646.219	1	7
646.558	1	-2
646.897	1	2
647.236	1	3
647.575	1	6
647.914	1	7
648.253	1	1
648.592	1	5
648.931	1	11
649.270	1	20
649.610	1	16
649.949	1	7
650.288	1	5
650.627	1	12
650.966	1	-2
651.305	1	8
651.644	1	4
651.983	1	12
652.322	1	11
652.661	1	6
653.000	1	-4
653.339	1	14
653.678	1	4
654.017	1	6
654.356	1	4
654.695	1	15
655.034	1	8
655.373	1	4
655.712	1	-5
656.051	1	12
656.390	1	3
656.729	1	8
657.068	1	2
657.406	1	6
657.745	1	3
658.084	1	13
658.423	1	-5
658.762	1	-2
659.101	1	-1
659.440	1	6
659.779	1	1
660.118	1	5
660.457	1	-1
660.796	1	0
661.135	1	5
661.474	1	7
661.813	1	10
662.152	1	-4
662.491	1	1
662.829	1	6
663.168	1	-4
663.507	1	4
663.846	1	6
664.185	1	-3
664.524	1	-8
664.863	1	5
665.202	1	-6
665.541	1	2
665.879	1	1
666.218	1	4
666.557	1	6
666.896	1	7
667.235	1	5
667.574	1	8
667.913	1	5
668.251	1	8
668.590	1	8
668.929	1	5
669.268	1	7
669.607	1	0
669.946	1	10
670.285	1	8
670.623	1	12
670.962	1	2
671.301	1	1
671.640	1	-7
671.979	1	18
672.317	1	-3
672.656	1	10
672.995	1	13
673.334	1	1
673.673	1	17
674.011	1	10
674.350	1	3
674.689	1	-2
675.028	1	3
675.367	1	6
675.705	1	2
676.044	1	4
676.383	1	5
676.722	1	-1
677.060	1	13
677.399	1	9
677.738	1	-1
678.077	1	8
678.416	1	5
678.754	1	1
679.093	1	4
679.432	1	-1
679.771	1	11
680.109	1	5
680.448	1	11
680.787	1	-3
681.125	1	4
681.464	1	3
681.803	1	-9
682.142	1	9
682.480	1	-3
682.819	1	-2
683.158	1	18
683.496	1	-3
683.835	1	6
684.174	1	8
684.512	1	-2
684.851	1	-1
685.190	1	12
685.529	1	3
685.867	1	0
686.206	1	9
686.545	1	10
686.883	1	3
687.222	1	1
687.561	1	7
687.899	1	1
688.238	1	6
688.577	1	-8
688.746	1	3