File: Analysis/GaN_68K_200ms/GaN_sample E_spot4_UVVIS_68 K_200um_200 ms 2x2mm1_230.txt
340.368	1	16
340.710	1	-4
341.052	1	-4
341.394	1	-1
341.737	1	12
342.079	1	-11
342.421	1	6
342.763	1	2
343.105	1	14
343.447	1	8
343.789	1	4
344.131	1	-3
344.473	1	4
344.815	1	8
345.157	1	11
345.499	1	15
345.841	1	5
346.183	1	0
346.526	1	-1
346.868	1	-2
347.210	1	-1
347.552	1	2
347.894	1	-4
348.236	1	9
348.578	1	11
348.920	1	14
349.262	1	2
349.604	1	9
349.946	1	8
350.288	1	7
350.630	1	0
350.972	1	6
351.314	1	-1
351.656	1	10
351.998	1	6
352.340	1	9
352.682	1	-2
353.024	1	-8
353.366	1	6
353.708	1	13
354.050	1	18
354.392	1	12
354.734	1	0
355.076	1	2
355.418	1	4
355.760	1	6
356.102	1	2
356.444	1	11
356.785	1	17
357.127	1	14
357.469	1	5
357.811	1	9
358.153	1	12
358.495	1	16
358.837	1	11
359.179	1	5
359.521	1	0
359.863	1	6
360.205	1	7
360.547	1	9
360.889	1	13
361.231	1	5
361.572	1	-1
361.914	1	7
362.256	1	5
362.598	1	11
362.940	1	9
363.282	1	8
363.624	1	3
363.966	1	7
364.308	1	8
364.649	1	9
364.991	1	26
365.333	1	17
365.675	1	14
366.017	1	16
366.359	1	10
366.701	1	12
367.042	1	26
367.384	1	14
367.726	1	24
368.068	1	3
368.410	1	9
368.752	1	14
369.093	1	6
369.435	1	8
369.777	1	3
370.119	1	15
370.461	1	8
370.803	1	4
371.144	1	10
371.486	1	14
371.828	1	11
372.170	1	14
372.512	1	14
372.853	1	15
373.195	1	2
373.537	1	12
373.879	1	15
374.220	1	13
374.562	1	10
374.904	1	10
375.246	1	18
375.588	1	11
375.929	1	15
376.271	1	18
376.613	1	5
376.955	1	-2
377.296	1	3
377.638	1	11
377.980	1	8
378.321	1	10
378.663	1	5
379.005	1	12
379.347	1	11
379.688	1	5
380.030	1	5
380.372	1	6
380.714	1	13
381.055	1	1
381.397	1	1
381.739	1	12
382.080	1	-2
382.422	1	14
382.764	1	10
383.105	1	7
383.447	1	17
383.789	1	16
384.130	1	10
384.472	1	5
384.814	1	15
385.156	1	19
385.497	1	20
385.839	1	22
386.180	1	16
386.522	1	25
386.864	1	15
387.205	1	17
387.547	1	19
387.889	1	29
388.230	1	13
388.572	1	17
388.914	1	26
389.255	1	22
389.597	1	11
389.939	1	20
390.280	1	24
390.622	1	14
390.963	1	19
391.305	1	18
391.647	1	28
391.988	1	17
392.330	1	23
392.671	1	23
393.013	1	23
393.355	1	20
393.696	1	21
394.038	1	7
394.379	1	6
394.721	1	22
395.062	1	4
395.404	1	23
395.746	1	12
396.087	1	13
396.429	1	12
396.770	1	23
397.112	1	9
397.453	1	8
397.795	1	27
398.136	1	8
398.478	1	13
398.819	1	19
399.161	1	21
399.503	1	12
399.844	1	11
400.186	1	20
400.527	1	18
400.869	1	25
401.210	1	10
401.552	1	27
401.893	1	22
402.235	1	26
402.576	1	29
402.918	1	2
403.259	1	11
403.601	1	0
403.942	1	17
404.284	1	14
404.625	1	17
404.967	1	12
405.308	1	6
405.649	1	10
405.991	1	23
406.332	1	14
406.674	1	19
407.015	1	1
407.357	1	11
407.698	1	5
408.040	1	6
408.381	1	8
408.722	1	9
409.064	1	9
409.405	1	10
409.747	1	15
410.088	1	9
410.430	1	12
410.771	1	17
411.112	1	13
411.454	1	20
411.795	1	9
412.137	1	15
412.478	1	20
412.819	1	3
413.161	1	3
413.502	1	8
413.844	1	7
414.185	1	6
414.526	1	18
414.868	1	14
415.209	1	6
415.550	1	3
415.892	1	9
416.233	1	5
416.575	1	10
416.916	1	11
417.257	1	16
417.599	1	11
417.940	1	14
418.281	1	10
418.623	1	7
418.964	1	16
419.305	1	6
419.647	1	9
419.988	1	11
420.329	1	9
420.671	1	9
421.012	1	18
421.353	1	13
421.695	1	9
422.036	1	9
422.377	1	8
422.718	1	9
423.060	1	3
423.401	1	7
423.742	1	11
424.084	1	11
424.425	1	7
424.766	1	10
425.107	1	10
425.449	1	16
425.790	1	-1
426.131	1	14
426.472	1	10
426.814	1	19
427.155	1	6
427.496	1	23
427.837	1	-7
428.179	1	7
428.520	1	3
428.861	1	5
429.202	1	9
429.544	1	6
429.885	1	7
430.226	1	-1
430.567	1	12
430.909	1	1
431.250	1	-4
431.591	1	8
431.932	1	10
432.273	1	9
432.615	1	5
432.956	1	10
433.297	1	10
433.638	1	5
433.979	1	2
434.320	1	-1
434.662	1	2
435.003	1	12
435.344	1	9
435.685	1	12
436.026	1	6
436.368	1	9
436.709	1	-2
437.050	1	19
437.391	1	14
437.732	1	0
438.073	1	6
438.414	1	10
438.756	1	18
439.097	1	11
439.438	1	18
439.779	1	3
440.120	1	3
440.461	1	2
440.802	1	8
441.143	1	14
441.485	1	-4
441.826	1	-5
442.167	1	-1
442.508	1	8
442.849	1	15
443.190	1	-9
443.531	1	11
443.872	1	7
444.213	1	7
444.554	1	4
444.895	1	4
445.237	1	0
445.578	1	9
445.919	1	3
446.260	1	-2
446.601	1	9
446.942	1	8
447.283	1	4
447.624	1	5
447.965	1	1
448.306	1	2
448.647	1	12
448.988	1	-6
449.329	1	0
449.670	1	6
450.011	1	12
450.352	1	5
450.693	1	5
451.034	1	16
451.375	1	21
451.716	1	7
452.057	1	10
452.398	1	7
452.739	1	3
453.080	1	5
453.421	1	2
453.762	1	10
454.103	1	4
454.444	1	9
454.785	1	-2
455.126	1	9
455.467	1	4
455.808	1	2
456.149	1	-3
456.490	1	12
456.831	1	16
457.172	1	6
457.513	1	9
457.854	1	8
458.195	1	5
458.536	1	13
458.877	1	-5
459.218	1	5
459.559	1	1
459.899	1	15
460.240	1	7
460.581	1	10
460.922	1	-3
461.263	1	9
461.604	1	9
461.945	1	20
462.286	1	14
462.627	1	4
462.968	1	3
463.309	1	7
463.649	1	10
463.990	1	8
464.331	1	2
464.672	1	6
465.013	1	-4
465.354	1	9
465.695	1	9
466.036	1	5
466.376	1	-3
466.717	1	-4
467.058	1	17
467.399	1	6
467.740	1	5
468.081	1	10
468.422	1	14
468.762	1	0
469.103	1	-3
469.444	1	-3
469.785	1	3
470.126	1	12
470.467	1	1
470.807	1	2
471.148	1	-4
471.489	1	-1
471.830	1	27
472.171	1	7
472.511	1	14
472.852	1	-3
473.193	1	-5
473.534	1	3
473.875	1	10
474.215	1	-2
474.556	1	-14
474.897	1	3
475.238	1	7
475.578	1	3
475.919	1	10
476.260	1	6
476.601	1	8
476.942	1	-1
477.282	1	-7
477.623	1	5
477.964	1	5
478.305	1	9
478.645	1	1
478.986	1	4
479.327	1	-6
479.667	1	2
480.008	1	14
480.349	1	5
480.690	1	0
481.030	1	1
481.371	1	4
481.712	1	4
482.053	1	16
482.393	1	6
482.734	1	0
483.075	1	5
483.415	1	4
483.756	1	14
484.097	1	5
484.437	1	-12
484.778	1	1
485.119	1	12
485.459	1	11
485.800	1	2
486.141	1	8
486.481	1	-1
486.822	1	1
487.163	1	-2
487.503	1	5
487.844	1	12
488.185	1	-4
488.525	1	1
488.866	1	9
489.207	1	7
489.547	1	5
489.888	1	10
490.228	1	-3
490.569	1	11
490.910	1	0
491.250	1	4
491.591	1	-4
491.932	1	8
492.272	1	9
492.613	1	5
492.953	1	8
493.294	1	17
493.635	1	12
493.975	1	-1
494.316	1	10
494.656	1	7
494.997	1	6
495.337	1	8
495.678	1	10
496.019	1	2
496.359	1	8
496.700	1	7
497.040	1	5
497.381	1	-13
497.721	1	-2
498.062	1	5
498.403	1	7
498.743	1	7
499.084	1	-5
499.424	1	12
499.765	1	2
500.105	1	8
500.446	1	20
500.786	1	15
501.127	1	6
501.467	1	12
501.808	1	0
502.148	1	15
502.489	1	7
502.829	1	13
503.170	1	6
503.510	1	11
503.851	1	-4
504.191	1	2
504.532	1	3
504.872	1	-3
505.213	1	2
505.553	1	9
505.894	1	11
506.234	1	14
506.575	1	1
506.915	1	5
507.256	1	6
507.596	1	11
507.936	1	6
508.277	1	-3
508.617	1	5
508.958	1	17
509.298	1	13
509.639	1	17
509.979	1	14
510.319	1	4
510.660	1	13
511.000	1	8
511.341	1	10
511.681	1	5
512.022	1	-1
512.362	1	9
512.702	1	2
513.043	1	15
513.383	1	-2
513.724	1	12
514.064	1	7
514.404	1	8
514.745	1	12
515.085	1	13
515.425	1	-2
515.766	1	-2
516.106	1	5
516.447	1	14
516.787	1	8
517.127	1	7
517.468	1	9
517.808	1	8
518.148	1	9
518.489	1	9
518.829	1	-3
519.169	1	24
519.510	1	8
519.850	1	4
520.190	1	16
520.531	1	17
520.871	1	8
521.211	1	8
521.552	1	23
521.892	1	11
522.232	1	3
522.573	1	8
522.913	1	10
523.253	1	9
523.593	1	0
523.934	1	11
524.274	1	4
524.614	1	11
524.955	1	15
525.295	1	11
525.635	1	26
525.975	1	10
526.316	1	-1
526.656	1	33
526.996	1	18
527.337	1	15
527.677	1	21
528.017	1	3
528.357	1	21
528.698	1	9
529.038	1	17
529.378	1	14
529.718	1	6
530.058	1	4
530.399	1	17
530.739	1	10
531.079	1	11
531.419	1	23
531.760	1	6
532.100	1	14
532.440	1	6
532.780	1	11
533.120	1	3
533.461	1	23
533.801	1	12
534.141	1	28
534.481	1	8
534.821	1	16
535.162	1	8
535.502	1	14
535.842	1	12
536.182	1	2
536.522	1	13
536.862	1	16
537.203	1	19
537.543	1	17
537.883	1	18
538.223	1	12
538.563	1	9
538.903	1	8
539.243	1	9
539.584	1	12
539.924	1	13
540.264	1	7
540.604	1	19
540.944	1	14
541.284	1	10
541.624	1	10
541.964	1	19
542.305	1	-5
542.645	1	7
542.985	1	8
543.325	1	2
543.665	1	11
544.005	1	10
544.345	1	7
544.685	1	15
545.025	1	3
545.365	1	8
545.705	1	9
546.045	1	19
546.386	1	13
546.726	1	16
547.066	1	2
547.406	1	15
547.746	1	12
548.086	1	13
548.426	1	5
548.766	1	10
549.106	1	9
549.446	1	13
549.786	1	15
550.126	1	15
550.466	1	12
550.806	1	21
551.146	1	8
551.486	1	16
551.826	1	12
552.166	1	10
552.506	1	-3
552.846	1	12
553.186	1	3
553.526	1	14
553.866	1	9
554.206	1	7
554.546	1	0
554.886	1	5
555.226	1	1
555.566	1	9
555.906	1	8
556.246	1	10
556.586	1	12
556.926	1	15
557.266	1	19
557.606	1	2
557.946	1	24
558.286	1	11
558.626	1	16
558.966	1	12
559.306	1	6
559.646	1	2
559.986	1	8
560.325	1	-5
560.665	1	10
561.005	1	17
561.345	1	0
561.685	1	10
562.025	1	5
562.365	1	18
562.705	1	11
563.045	1	12
563.385	1	8
563.725	1	-3
564.064	1	19
564.404	1	9
564.744	1	16
565.084	1	10
565.424	1	9
565.764	1	22
566.104	1	9
566.444	1	8
566.783	1	9
567.123	1	15
567.463	1	9
567.803	1	2
568.143	1	3
568.483	1	-9
568.823	1	4
569.162	1	7
569.502	1	9
569.842	1	6
570.182	1	1
570.522	1	11
570.862	1	3
571.201	1	12
571.541	1	3
571.881	1	6
572.221	1	6
572.561	1	7
572.900	1	26
573.240	1	0
573.580	1	8
573.920	1	5
574.260	1	-2
574.599	1	7
574.939	1	8
575.279	1	2
575.619	1	8
575.959	1	3
576.298	1	-3
576.638	1	4
576.978	1	12
577.318	1	17
577.657	1	-6
577.997	1	-1
578.337	1	0
578.677	1	2
579.016	1	17
579.356	1	2
579.696	1	0
580.036	1	5
580.375	1	2
580.715	1	15
581.055	1	0
581.394	1	3
581.734	1	14
582.074	1	-2
582.414	1	7
582.753	1	9
583.093	1	4
583.433	1	0
583.772	1	0
584.112	1	5
584.452	1	7
584.791	1	-2
585.131	1	3
585.471	1	0
585.811	1	-1
586.150	1	6
586.490	1	-1
586.830	1	-1
587.169	1	14
587.509	1	8
587.849	1	16
588.188	1	1
588.528	1	8
588.867	1	8
589.207	1	4
589.547	1	6
589.886	1	-5
590.226	1	15
590.566	1	3
590.905	1	8
591.245	1	2
591.585	1	-5
591.924	1	5
592.264	1	-1
592.603	1	4
592.943	1	3
593.283	1	9
593.622	1	2
593.962	1	9
594.301	1	9
594.641	1	-3
594.981	1	4
595.320	1	16
595.660	1	2
595.999	1	8
596.339	1	10
596.678	1	5
597.018	1	5
597.358	1	9
597.697	1	5
598.037	1	5
598.376	1	13
598.716	1	-8
599.055	1	2
599.395	1	13
599.734	1	11
600.074	1	-1
600.413	1	3
600.753	1	8
601.092	1	-5
601.432	1	1
601.771	1	11
602.111	1	5
602.451	1	-3
602.790	1	7
603.130	1	2
603.469	1	-2
603.809	1	12
604.148	1	3
604.487	1	7
604.827	1	0
605.166	1	0
605.506	1	3
605.845	1	-1
606.185	1	-4
606.524	1	8
606.864	1	1
607.203	1	3
607.543	1	-2
607.882	1	4
608.222	1	11
608.561	1	9
608.901	1	12
609.240	1	13
609.579	1	12
609.919	1	-3
610.258	1	9
610.598	1	10
610.937	1	4
611.277	1	9
611.616	1	-14
611.955	1	9
612.295	1	10
612.634	1	8
612.974	1	16
613.313	1	0
613.652	1	1
613.992	1	11
614.331	1	6
614.671	1	11
615.010	1	8
615.349	1	4
615.689	1	-4
616.028	1	-3
616.368	1	-9
616.707	1	3
617.046	1	3
617.386	1	4
617.725	1	8
618.064	1	13
618.404	1	4
618.743	1	0
619.082	1	10
619.422	1	3
619.761	1	7
620.100	1	3
620.440	1	4
620.779	1	-1
621.118	1	6
621.458	1	7
621.797	1	5
622.136	1	10
622.476	1	5
622.815	1	0
623.154	1	3
623.494	1	4
623.833	1	2
624.172	1	9
624.511	1	4
624.851	1	-1
625.190	1	6
625.529	1	5
625.869	1	6
626.208	1	-5
626.547	1	4
626.886	1	1
627.226	1	2
627.565	1	13
627.904	1	3
628.243	1	-6
628.583	1	10
628.922	1	2
629.261	1	6
629.600	1	12
629.940	1	4
630.279	1	0
630.618	1	-5
630.957	1	-3
631.297	1	1
631.636	1	4
631.975	1	5
632.314	1	10
632.653	1	-6
632.993	1	12
633.332	1	13
633.671	1	6
634.010	1	-5
634.349	1	4
634.689	1	14
635.028	1	5
635.367	1	-7
635.706	1	-1
636.045	1	3
636.384	1	7
636.724	1	3
637.063	1	12
637.402	1	15
637.741	1	5
638.080	1	5
638.419	1	10
638.759	1	5
639.098	1	-3
639.437	1	-12
639.776	1	-1
640.115	1	-3
640.454	1	10
640.793	1	6
641.132	1	10
641.472	1	-5
641.811	1	11
642.150	1	1
642.489	1	2
642.828	1	2
643.167	1	6
643.506	1	-6
643.845	1	5
644.184	1	7
644.524	1	-1
644.863	1	-1
645.202	1	1
645.541	1	-6
645.880	1	4
646.219	1	-5
646.558	1	4
646.897	1	3
647.236	1	1
647.575	1	14
647.914	1	-1
648.253	1	7
648.592	1	2
648.931	1	12
649.270	1	7
649.610	1	24
649.949	1	5
650.288	1	-8
650.627	1	-1
650.966	1	-8
651.305	1	2
651.644	1	-1
651.983	1	16
652.322	1	6
652.661	1	3
653.000	1	0
653.339	1	-1
653.678	1	-2
654.017	1	10
654.356	1	4
654.695	1	8
655.034	1	2
655.373	1	-4
655.712	1	-1
656.051	1	11
656.390	1	-1
656.729	1	11
657.068	1	-6
657.406	1	6
657.745	1	-6
658.084	1	6
658.423	1	2
658.762	1	-12
659.101	1	-1
659.440	1	13
659.779	1	4
660.118	1	-5
660.457	1	5
660.796	1	8
661.135	1	4
661.474	1	4
661.813	1	5
662.152	1	13
662.491	1	5
662.829	1	-6
663.168	1	-6
663.507	1	10
663.846	1	19
664.185	1	1
664.524	1	-10
664.863	1	6
665.202	1	5
665.541	1	-6
665.879	1	2
666.218	1	-4
666.557	1	5
666.896	1	8
667.235	1	3
667.574	1	2
667.913	1	5
668.251	1	-3
668.590	1	-2
668.929	1	8
669.268	1	14
669.607	1	1
669.946	1	4
670.285	1	4
670.623	1	8
670.962	1	1
671.301	1	6
671.640	1	-15
671.979	1	7
672.317	1	-4
672.656	1	9
672.995	1	-3
673.334	1	12
673.673	1	14
674.011	1	5
674.350	1	-2
674.689	1	0
675.028	1	5
675.367	1	1
675.705	1	-5
676.044	1	1
676.383	1	4
676.722	1	3
677.060	1	7
677.399	1	0
677.738	1	-8
678.077	1	4
678.416	1	-4
678.754	1	-1
679.093	1	6
679.432	1	-1
679.771	1	9
680.109	1	3
680.448	1	5
680.787	1	5
681.125	1	11
681.464	1	-3
681.803	1	-14
682.142	1	20
682.480	1	0
682.819	1	5
683.158	1	3
683.496	1	-10
683.835	1	13
684.174	1	-6
684.512	1	14
684.851	1	9
685.190	1	9
685.529	1	2
685.867	1	-3
686.206	1	14
686.545	1	11
686.883	1	-1
687.222	1	-3
687.561	1	10
687.899	1	8
688.238	1	7
688.577	1	-1
688.746	1	5