File: Analysis/GaN_68K_200ms/GaN_sample E_spot4_UVVIS_68 K_200um_200 ms 2x2mm1_704.txt
340.368	1	3
340.710	1	-10
341.052	1	2
341.394	1	1
341.737	1	8
342.079	1	-6
342.421	1	1
342.763	1	-7
343.105	1	6
343.447	1	3
343.789	1	1
344.131	1	-8
344.473	1	-1
344.815	1	5
345.157	1	1
345.499	1	7
345.841	1	9
346.183	1	1
346.526	1	6
346.868	1	1
347.210	1	3
347.552	1	1
347.894	1	-1
348.236	1	6
348.578	1	7
348.920	1	-2
349.262	1	-2
349.604	1	2
349.946	1	4
350.288	1	7
350.630	1	-8
350.972	1	-8
351.314	1	-7
351.656	1	9
351.998	1	6
352.340	1	-7
352.682	1	2
353.024	1	-7
353.366	1	7
353.708	1	-1
354.050	1	-1
354.392	1	-1
354.734	1	-4
355.076	1	-2
355.418	1	2
355.760	1	0
356.102	1	-6
356.444	1	7
356.785	1	9
357.127	1	0
357.469	1	-2
357.811	1	8
358.153	1	0
358.495	1	5
358.837	1	-3
359.179	1	4
359.521	1	-6
359.863	1	-5
360.205	1	-1
360.547	1	0
360.889	1	2
361.231	1	9
361.572	1	-7
361.914	1	1
362.256	1	9
362.598	1	3
362.940	1	1
363.282	1	3
363.624	1	-9
363.966	1	-1
364.308	1	0
364.649	1	-4
364.991	1	3
365.333	1	3
365.675	1	1
366.017	1	2
366.359	1	-4
366.701	1	0
367.042	1	12
367.384	1	7
367.726	1	15
368.068	1	-5
368.410	1	-5
368.752	1	-4
369.093	1	-6
369.435	1	-2
369.777	1	-5
370.119	1	1
370.461	1	0
370.803	1	-7
371.144	1	7
371.486	1	6
371.828	1	2
372.170	1	17
372.512	1	-4
372.853	1	-1
373.195	1	0
373.537	1	0
373.879	1	7
374.220	1	-2
374.562	1	7
374.904	1	5
375.246	1	-3
375.588	1	-2
375.929	1	3
376.271	1	2
376.613	1	-3
376.955	1	-4
377.296	1	2
377.638	1	-1
377.980	1	12
378.321	1	-3
378.663	1	-10
379.005	1	-3
379.347	1	9
379.688	1	-8
380.030	1	-7
380.372	1	1
380.714	1	-2
381.055	1	0
381.397	1	-6
381.739	1	11
382.080	1	-5
382.422	1	12
382.764	1	-2
383.105	1	0
383.447	1	3
383.789	1	-1
384.130	1	-4
384.472	1	-1
384.814	1	-2
385.156	1	8
385.497	1	9
385.839	1	-4
386.180	1	-3
386.522	1	9
386.864	1	-7
387.205	1	-7
387.547	1	-2
387.889	1	15
388.230	1	4
388.572	1	5
388.914	1	7
389.255	1	8
389.597	1	-5
389.939	1	13
390.280	1	2
390.622	1	-5
390.963	1	12
391.305	1	10
391.647	1	3
391.988	1	-3
392.330	1	7
392.671	1	2
393.013	1	4
393.355	1	8
393.696	1	5
394.038	1	-7
394.379	1	-3
394.721	1	-1
395.062	1	-12
395.404	1	8
395.746	1	-5
396.087	1	-4
396.429	1	1
396.770	1	-4
397.112	1	-7
397.453	1	-6
397.795	1	9
398.136	1	5
398.478	1	-4
398.819	1	4
399.161	1	-3
399.503	1	9
399.844	1	1
400.186	1	7
400.527	1	11
400.869	1	5
401.210	1	-4
401.552	1	8
401.893	1	5
402.235	1	9
402.576	1	17
402.918	1	-8
403.259	1	-18
403.601	1	-11
403.942	1	2
404.284	1	-5
404.625	1	3
404.967	1	10
405.308	1	5
405.649	1	9
405.991	1	4
406.332	1	3
406.674	1	4
407.015	1	-16
407.357	1	-7
407.698	1	-5
408.040	1	-5
408.381	1	0
408.722	1	-7
409.064	1	2
409.405	1	4
409.747	1	-4
410.088	1	6
410.430	1	9
410.771	1	2
411.112	1	7
411.454	1	15
411.795	1	2
412.137	1	7
412.478	1	3
412.819	1	-10
413.161	1	-6
413.502	1	-7
413.844	1	1
414.185	1	8
414.526	1	3
414.868	1	7
415.209	1	-8
415.550	1	-6
415.892	1	-1
416.233	1	7
416.575	1	-5
416.916	1	-3
417.257	1	4
417.599	1	10
417.940	1	-1
418.281	1	1
418.623	1	-9
418.964	1	4
419.305	1	7
419.647	1	3
419.988	1	-8
420.329	1	-1
420.671	1	0
421.012	1	6
421.353	1	4
421.695	1	-4
422.036	1	-5
422.377	1	5
422.718	1	-2
423.060	1	-7
423.401	1	11
423.742	1	4
424.084	1	0
424.425	1	4
424.766	1	-4
425.107	1	-1
425.449	1	1
425.790	1	1
426.131	1	1
426.472	1	1
426.814	1	10
427.155	1	-4
427.496	1	3
427.837	1	5
428.179	1	-7
428.520	1	-4
428.861	1	-1
429.202	1	18
429.544	1	4
429.885	1	-1
430.226	1	-9
430.567	1	12
430.909	1	-10
431.250	1	-7
431.591	1	-4
431.932	1	9
432.273	1	-2
432.615	1	0
432.956	1	-4
433.297	1	11
433.638	1	-8
433.979	1	4
434.320	1	-6
434.662	1	-11
435.003	1	-1
435.344	1	-1
435.685	1	4
436.026	1	4
436.368	1	2
436.709	1	-10
437.050	1	7
437.391	1	3
437.732	1	-4
438.073	1	3
438.414	1	9
438.756	1	2
439.097	1	-2
439.438	1	11
439.779	1	-8
440.120	1	4
440.461	1	-12
440.802	1	1
441.143	1	2
441.485	1	-3
441.826	1	-10
442.167	1	-10
442.508	1	0
442.849	1	11
443.190	1	-5
443.531	1	-7
443.872	1	-11
444.213	1	-8
444.554	1	-4
444.895	1	3
445.237	1	-8
445.578	1	8
445.919	1	1
446.260	1	6
446.601	1	3
446.942	1	0
447.283	1	-4
447.624	1	4
447.965	1	-11
448.306	1	0
448.647	1	11
448.988	1	-16
449.329	1	0
449.670	1	5
450.011	1	-3
450.352	1	7
450.693	1	6
451.034	1	9
451.375	1	3
451.716	1	9
452.057	1	13
452.398	1	11
452.739	1	1
453.080	1	11
453.421	1	3
453.762	1	6
454.103	1	1
454.444	1	11
454.785	1	-1
455.126	1	-5
455.467	1	6
455.808	1	-14
456.149	1	-1
456.490	1	5
456.831	1	9
457.172	1	-4
457.513	1	2
457.854	1	-4
458.195	1	-2
458.536	1	9
458.877	1	-5
459.218	1	-1
459.559	1	0
459.899	1	4
460.240	1	-3
460.581	1	0
460.922	1	-5
461.263	1	10
461.604	1	-1
461.945	1	8
462.286	1	5
462.627	1	2
462.968	1	-8
463.309	1	8
463.649	1	-8
463.990	1	-2
464.331	1	-1
464.672	1	6
465.013	1	-4
465.354	1	5
465.695	1	0
466.036	1	0
466.376	1	-1
466.717	1	0
467.058	1	6
467.399	1	1
467.740	1	-2
468.081	1	1
468.422	1	1
468.762	1	-9
469.103	1	-7
469.444	1	3
469.785	1	9
470.126	1	5
470.467	1	1
470.807	1	3
471.148	1	-2
471.489	1	-1
471.830	1	10
472.171	1	1
472.511	1	7
472.852	1	-4
473.193	1	-4
473.534	1	-4
473.875	1	8
474.215	1	0
474.556	1	-10
474.897	1	-4
475.238	1	-14
475.578	1	3
475.919	1	-3
476.260	1	3
476.601	1	0
476.942	1	-5
477.282	1	-16
477.623	1	1
477.964	1	4
478.305	1	1
478.645	1	-10
478.986	1	-3
479.327	1	-3
479.667	1	3
480.008	1	1
480.349	1	-5
480.690	1	3
481.030	1	-5
481.371	1	1
481.712	1	-6
482.053	1	4
482.393	1	-3
482.734	1	0
483.075	1	1
483.415	1	4
483.756	1	7
484.097	1	-11
484.437	1	-7
484.778	1	5
485.119	1	1
485.459	1	11
485.800	1	-8
486.141	1	-8
486.481	1	3
486.822	1	5
487.163	1	-2
487.503	1	-15
487.844	1	1
488.185	1	-9
488.525	1	-5
488.866	1	4
489.207	1	3
489.547	1	1
489.888	1	7
490.228	1	-4
490.569	1	3
490.910	1	-6
491.250	1	-5
491.591	1	5
491.932	1	4
492.272	1	2
492.613	1	1
492.953	1	9
493.294	1	11
493.635	1	-4
493.975	1	3
494.316	1	7
494.656	1	4
494.997	1	-2
495.337	1	5
495.678	1	8
496.019	1	-3
496.359	1	9
496.700	1	-4
497.040	1	0
497.381	1	-25
497.721	1	-4
498.062	1	-4
498.403	1	0
498.743	1	2
499.084	1	-4
499.424	1	17
499.765	1	2
500.105	1	9
500.446	1	2
500.786	1	3
501.127	1	12
501.467	1	4
501.808	1	-8
502.148	1	2
502.489	1	0
502.829	1	-1
503.170	1	4
503.510	1	2
503.851	1	-10
504.191	1	1
504.532	1	-7
504.872	1	-5
505.213	1	0
505.553	1	4
505.894	1	6
506.234	1	2
506.575	1	-3
506.915	1	12
507.256	1	-4
507.596	1	-4
507.936	1	1
508.277	1	-2
508.617	1	6
508.958	1	15
509.298	1	9
509.639	1	8
509.979	1	2
510.319	1	-2
510.660	1	6
511.000	1	5
511.341	1	-3
511.681	1	4
512.022	1	-10
512.362	1	1
512.702	1	-6
513.043	1	-6
513.383	1	-5
513.724	1	8
514.064	1	-3
514.404	1	4
514.745	1	-3
515.085	1	-2
515.425	1	-4
515.766	1	3
516.106	1	0
516.447	1	0
516.787	1	-3
517.127	1	8
517.468	1	-13
517.808	1	2
518.148	1	1
518.489	1	3
518.829	1	2
519.169	1	19
519.510	1	0
519.850	1	-16
520.190	1	0
520.531	1	5
520.871	1	-13
521.211	1	-1
521.552	1	3
521.892	1	-2
522.232	1	-11
522.573	1	-1
522.913	1	2
523.253	1	2
523.593	1	-9
523.934	1	1
524.274	1	-11
524.614	1	-5
524.955	1	-1
525.295	1	-4
525.635	1	3
525.975	1	-10
526.316	1	2
526.656	1	16
526.996	1	19
527.337	1	4
527.677	1	14
528.017	1	-14
528.357	1	1
528.698	1	3
529.038	1	11
529.378	1	-4
529.718	1	2
530.058	1	-5
530.399	1	11
530.739	1	0
531.079	1	5
531.419	1	4
531.760	1	5
532.100	1	2
532.440	1	-6
532.780	1	0
533.120	1	0
533.461	1	18
533.801	1	3
534.141	1	6
534.481	1	-4
534.821	1	13
535.162	1	-4
535.502	1	-1
535.842	1	4
536.182	1	-4
536.522	1	5
536.862	1	3
537.203	1	4
537.543	1	3
537.883	1	6
538.223	1	4
538.563	1	6
538.903	1	-5
539.243	1	-4
539.584	1	0
539.924	1	6
540.264	1	0
540.604	1	-5
540.944	1	-8
541.284	1	-8
541.624	1	9
541.964	1	4
542.305	1	-2
542.645	1	-1
542.985	1	0
543.325	1	3
543.665	1	13
544.005	1	0
544.345	1	-3
544.685	1	8
545.025	1	-3
545.365	1	7
545.705	1	6
546.045	1	1
546.386	1	-3
546.726	1	-1
547.066	1	-5
547.406	1	8
547.746	1	8
548.086	1	2
548.426	1	-9
548.766	1	4
549.106	1	3
549.446	1	-5
549.786	1	4
550.126	1	6
550.466	1	-6
550.806	1	6
551.146	1	1
551.486	1	6
551.826	1	2
552.166	1	1
552.506	1	2
552.846	1	-2
553.186	1	5
553.526	1	-7
553.866	1	6
554.206	1	-7
554.546	1	-9
554.886	1	-4
555.226	1	0
555.566	1	2
555.906	1	3
556.246	1	2
556.586	1	11
556.926	1	-5
557.266	1	7
557.606	1	-6
557.946	1	12
558.286	1	-5
558.626	1	5
558.966	1	1
559.306	1	-4
559.646	1	-1
559.986	1	-11
560.325	1	-9
560.665	1	7
561.005	1	0
561.345	1	0
561.685	1	-2
562.025	1	-10
562.365	1	1
562.705	1	11
563.045	1	10
563.385	1	-7
563.725	1	1
564.064	1	10
564.404	1	-6
564.744	1	1
565.084	1	-5
565.424	1	1
565.764	1	-1
566.104	1	-1
566.444	1	9
566.783	1	-1
567.123	1	17
567.463	1	3
567.803	1	-10
568.143	1	-5
568.483	1	-3
568.823	1	9
569.162	1	-2
569.502	1	6
569.842	1	-6
570.182	1	-7
570.522	1	2
570.862	1	10
571.201	1	3
571.541	1	-7
571.881	1	3
572.221	1	8
572.561	1	-6
572.900	1	14
573.240	1	-12
573.580	1	1
573.920	1	1
574.260	1	-2
574.599	1	-3
574.939	1	-11
575.279	1	1
575.619	1	-2
575.959	1	5
576.298	1	-3
576.638	1	-3
576.978	1	-6
577.318	1	0
577.657	1	-10
577.997	1	-11
578.337	1	5
578.677	1	4
579.016	1	6
579.356	1	-7
579.696	1	-6
580.036	1	-8
580.375	1	3
580.715	1	5
581.055	1	6
581.394	1	-8
581.734	1	8
582.074	1	-12
582.414	1	7
582.753	1	7
583.093	1	-2
583.433	1	-11
583.772	1	6
584.112	1	8
584.452	1	-5
584.791	1	1
585.131	1	-9
585.471	1	2
585.811	1	-5
586.150	1	-1
586.490	1	0
586.830	1	-7
587.169	1	4
587.509	1	-1
587.849	1	5
588.188	1	0
588.528	1	4
588.867	1	-4
589.207	1	-13
589.547	1	-1
589.886	1	-10
590.226	1	-4
590.566	1	-1
590.905	1	3
591.245	1	-1
591.585	1	-9
591.924	1	4
592.264	1	-4
592.603	1	2
592.943	1	-6
593.283	1	6
593.622	1	-1
593.962	1	9
594.301	1	14
594.641	1	-5
594.981	1	-2
595.320	1	7
595.660	1	2
595.999	1	3
596.339	1	8
596.678	1	5
597.018	1	-5
597.358	1	3
597.697	1	-3
598.037	1	2
598.376	1	6
598.716	1	-6
599.055	1	3
599.395	1	0
599.734	1	-4
600.074	1	-2
600.413	1	3
600.753	1	3
601.092	1	-12
601.432	1	1
601.771	1	2
602.111	1	-7
602.451	1	8
602.790	1	4
603.130	1	-1
603.469	1	9
603.809	1	7
604.148	1	2
604.487	1	-8
604.827	1	-8
605.166	1	-12
605.506	1	10
605.845	1	4
606.185	1	1
606.524	1	-2
606.864	1	-3
607.203	1	16
607.543	1	-9
607.882	1	2
608.222	1	3
608.561	1	2
608.901	1	5
609.240	1	-11
609.579	1	4
609.919	1	-6
610.258	1	2
610.598	1	-2
610.937	1	2
611.277	1	3
611.616	1	0
611.955	1	2
612.295	1	1
612.634	1	4
612.974	1	0
613.313	1	-6
613.652	1	-12
613.992	1	10
614.331	1	3
614.671	1	2
615.010	1	1
615.349	1	-1
615.689	1	9
616.028	1	0
616.368	1	-4
616.707	1	-4
617.046	1	-1
617.386	1	1
617.725	1	10
618.064	1	2
618.404	1	4
618.743	1	3
619.082	1	-8
619.422	1	-1
619.761	1	2
620.100	1	1
620.440	1	1
620.779	1	-5
621.118	1	2
621.458	1	6
621.797	1	-7
622.136	1	-1
622.476	1	7
622.815	1	1
623.154	1	-5
623.494	1	0
623.833	1	-2
624.172	1	10
624.511	1	-4
624.851	1	-9
625.190	1	1
625.529	1	6
625.869	1	10
626.208	1	-9
626.547	1	1
626.886	1	4
627.226	1	-2
627.565	1	9
627.904	1	-7
628.243	1	-16
628.583	1	-1
628.922	1	-7
629.261	1	11
629.600	1	5
629.940	1	1
630.279	1	1
630.618	1	-2
630.957	1	-8
631.297	1	-7
631.636	1	2
631.975	1	6
632.314	1	8
632.653	1	-14
632.993	1	-2
633.332	1	4
633.671	1	4
634.010	1	-1
634.349	1	5
634.689	1	1
635.028	1	1
635.367	1	1
635.706	1	-6
636.045	1	-4
636.384	1	6
636.724	1	1
637.063	1	-6
637.402	1	-5
637.741	1	3
638.080	1	3
638.419	1	3
638.759	1	4
639.098	1	-6
639.437	1	-10
639.776	1	4
640.115	1	3
640.454	1	12
640.793	1	5
641.132	1	6
641.472	1	-6
641.811	1	-2
642.150	1	0
642.489	1	0
642.828	1	-5
643.167	1	-2
643.506	1	-6
643.845	1	-1
644.184	1	15
644.524	1	-6
644.863	1	-10
645.202	1	1
645.541	1	-3
645.880	1	5
646.219	1	-5
646.558	1	-2
646.897	1	-5
647.236	1	-1
647.575	1	-1
647.914	1	-3
648.253	1	-6
648.592	1	6
648.931	1	0
649.270	1	9
649.610	1	12
649.949	1	9
650.288	1	-1
650.627	1	-4
650.966	1	3
651.305	1	-5
651.644	1	-6
651.983	1	6
652.322	1	2
652.661	1	3
653.000	1	-11
653.339	1	5
653.678	1	-1
654.017	1	-3
654.356	1	4
654.695	1	3
655.034	1	1
655.373	1	6
655.712	1	0
656.051	1	3
656.390	1	-4
656.729	1	-1
657.068	1	1
657.406	1	4
657.745	1	-5
658.084	1	3
658.423	1	-9
658.762	1	-5
659.101	1	-5
659.440	1	7
659.779	1	-2
660.118	1	5
660.457	1	-2
660.796	1	1
661.135	1	4
661.474	1	-10
661.813	1	-8
662.152	1	4
662.491	1	-2
662.829	1	-5
663.168	1	-4
663.507	1	4
663.846	1	-1
664.185	1	-10
664.524	1	-9
664.863	1	-1
665.202	1	-10
665.541	1	0
665.879	1	0
666.218	1	-7
666.557	1	-2
666.896	1	-5
667.235	1	-5
667.574	1	4
667.913	1	5
668.251	1	1
668.590	1	-1
668.929	1	9
669.268	1	-2
669.607	1	-6
669.946	1	4
670.285	1	1
670.623	1	-3
670.962	1	-7
671.301	1	2
671.640	1	-13
671.979	1	9
672.317	1	-1
672.656	1	5
672.995	1	1
673.334	1	3
673.673	1	15
674.011	1	9
674.350	1	-8
674.689	1	-3
675.028	1	9
675.367	1	0
675.705	1	-9
676.044	1	-8
676.383	1	-2
676.722	1	-1
677.060	1	-9
677.399	1	2
677.738	1	-1
678.077	1	4
678.416	1	5
678.754	1	-9
679.093	1	13
679.432	1	-5
679.771	1	-10
680.109	1	4
680.448	1	-5
680.787	1	4
681.125	1	1
681.464	1	-1
681.803	1	-11
682.142	1	14
682.480	1	1
682.819	1	3
683.158	1	-1
683.496	1	-4
683.835	1	2
684.174	1	3
684.512	1	-4
684.851	1	-3
685.190	1	3
685.529	1	-4
685.867	1	-5
686.206	1	-1
686.545	1	9
686.883	1	-10
687.222	1	-8
687.561	1	8
687.899	1	0
688.238	1	5
688.577	1	-9
688.746	1	4