File: Analysis/GaN_68K_200ms/GaN_sample E_spot4_UVVIS_68 K_200um_200 ms 2x2mm1_177.txt
340.368	1	0
340.710	1	-6
341.052	1	1
341.394	1	-1
341.737	1	11
342.079	1	-9
342.421	1	0
342.763	1	4
343.105	1	6
343.447	1	0
343.789	1	-2
344.131	1	1
344.473	1	7
344.815	1	6
345.157	1	13
345.499	1	3
345.841	1	4
346.183	1	-1
346.526	1	9
346.868	1	11
347.210	1	-2
347.552	1	-1
347.894	1	4
348.236	1	4
348.578	1	5
348.920	1	8
349.262	1	3
349.604	1	15
349.946	1	4
350.288	1	3
350.630	1	1
350.972	1	-5
351.314	1	3
351.656	1	8
351.998	1	4
352.340	1	-4
352.682	1	-1
353.024	1	-4
353.366	1	9
353.708	1	8
354.050	1	9
354.392	1	12
354.734	1	4
355.076	1	13
355.418	1	-2
355.760	1	13
356.102	1	-7
356.444	1	2
356.785	1	13
357.127	1	12
357.469	1	-1
357.811	1	24
358.153	1	13
358.495	1	8
358.837	1	4
359.179	1	4
359.521	1	5
359.863	1	-3
360.205	1	12
360.547	1	7
360.889	1	9
361.231	1	10
361.572	1	8
361.914	1	4
362.256	1	19
362.598	1	12
362.940	1	13
363.282	1	8
363.624	1	21
363.966	1	20
364.308	1	18
364.649	1	13
364.991	1	23
365.333	1	15
365.675	1	15
366.017	1	21
366.359	1	25
366.701	1	22
367.042	1	34
367.384	1	28
367.726	1	29
368.068	1	17
368.410	1	20
368.752	1	19
369.093	1	19
369.435	1	22
369.777	1	13
370.119	1	23
370.461	1	17
370.803	1	15
371.144	1	26
371.486	1	21
371.828	1	28
372.170	1	18
372.512	1	18
372.853	1	14
373.195	1	4
373.537	1	6
373.879	1	26
374.220	1	19
374.562	1	13
374.904	1	12
375.246	1	1
375.588	1	15
375.929	1	18
376.271	1	9
376.613	1	17
376.955	1	4
377.296	1	8
377.638	1	16
377.980	1	10
378.321	1	12
378.663	1	10
379.005	1	18
379.347	1	22
379.688	1	9
380.030	1	13
380.372	1	8
380.714	1	16
381.055	1	14
381.397	1	9
381.739	1	25
382.080	1	-5
382.422	1	19
382.764	1	9
383.105	1	17
383.447	1	26
383.789	1	13
384.130	1	10
384.472	1	9
384.814	1	30
385.156	1	35
385.497	1	24
385.839	1	23
386.180	1	24
386.522	1	29
386.864	1	21
387.205	1	19
387.547	1	29
387.889	1	35
388.230	1	18
388.572	1	23
388.914	1	31
389.255	1	30
389.597	1	14
389.939	1	33
390.280	1	29
390.622	1	21
390.963	1	33
391.305	1	32
391.647	1	19
391.988	1	12
392.330	1	21
392.671	1	29
393.013	1	28
393.355	1	37
393.696	1	22
394.038	1	13
394.379	1	18
394.721	1	18
395.062	1	10
395.404	1	27
395.746	1	21
396.087	1	26
396.429	1	18
396.770	1	29
397.112	1	26
397.453	1	16
397.795	1	33
398.136	1	20
398.478	1	32
398.819	1	36
399.161	1	19
399.503	1	24
399.844	1	20
400.186	1	21
400.527	1	28
400.869	1	25
401.210	1	1
401.552	1	29
401.893	1	27
402.235	1	20
402.576	1	29
402.918	1	11
403.259	1	14
403.601	1	21
403.942	1	13
404.284	1	10
404.625	1	16
404.967	1	17
405.308	1	18
405.649	1	24
405.991	1	19
406.332	1	9
406.674	1	20
407.015	1	17
407.357	1	21
407.698	1	20
408.040	1	9
408.381	1	18
408.722	1	8
409.064	1	16
409.405	1	11
409.747	1	14
410.088	1	12
410.430	1	26
410.771	1	26
411.112	1	15
411.454	1	27
411.795	1	18
412.137	1	25
412.478	1	19
412.819	1	15
413.161	1	11
413.502	1	8
413.844	1	10
414.185	1	15
414.526	1	21
414.868	1	21
415.209	1	12
415.550	1	-1
415.892	1	10
416.233	1	19
416.575	1	9
416.916	1	10
417.257	1	13
417.599	1	17
417.940	1	11
418.281	1	18
418.623	1	4
418.964	1	11
419.305	1	10
419.647	1	17
419.988	1	6
420.329	1	13
420.671	1	17
421.012	1	22
421.353	1	16
421.695	1	23
422.036	1	12
422.377	1	14
422.718	1	4
423.060	1	26
423.401	1	17
423.742	1	15
424.084	1	8
424.425	1	10
424.766	1	14
425.107	1	13
425.449	1	20
425.790	1	21
426.131	1	6
426.472	1	3
426.814	1	16
427.155	1	10
427.496	1	16
427.837	1	6
428.179	1	1
428.520	1	3
428.861	1	14
429.202	1	15
429.544	1	17
429.885	1	5
430.226	1	4
430.567	1	18
430.909	1	-2
431.250	1	3
431.591	1	18
431.932	1	17
432.273	1	2
432.615	1	12
432.956	1	1
433.297	1	10
433.638	1	2
433.979	1	18
434.320	1	10
434.662	1	14
435.003	1	6
435.344	1	14
435.685	1	25
436.026	1	24
436.368	1	13
436.709	1	-3
437.050	1	23
437.391	1	7
437.732	1	15
438.073	1	14
438.414	1	12
438.756	1	18
439.097	1	23
439.438	1	14
439.779	1	7
440.120	1	7
440.461	1	7
440.802	1	19
441.143	1	18
441.485	1	13
441.826	1	-4
442.167	1	3
442.508	1	6
442.849	1	12
443.190	1	-3
443.531	1	12
443.872	1	11
444.213	1	9
444.554	1	4
444.895	1	7
445.237	1	-3
445.578	1	12
445.919	1	-4
446.260	1	10
446.601	1	-2
446.942	1	13
447.283	1	13
447.624	1	10
447.965	1	8
448.306	1	6
448.647	1	9
448.988	1	-6
449.329	1	-1
449.670	1	10
450.011	1	17
450.352	1	15
450.693	1	12
451.034	1	14
451.375	1	13
451.716	1	15
452.057	1	16
452.398	1	8
452.739	1	2
453.080	1	17
453.421	1	5
453.762	1	15
454.103	1	7
454.444	1	12
454.785	1	1
455.126	1	10
455.467	1	10
455.808	1	3
456.149	1	5
456.490	1	5
456.831	1	17
457.172	1	12
457.513	1	16
457.854	1	10
458.195	1	-5
458.536	1	5
458.877	1	0
459.218	1	8
459.559	1	6
459.899	1	17
460.240	1	2
460.581	1	12
460.922	1	8
461.263	1	18
461.604	1	4
461.945	1	13
462.286	1	13
462.627	1	3
462.968	1	7
463.309	1	16
463.649	1	13
463.990	1	9
464.331	1	13
464.672	1	10
465.013	1	-4
465.354	1	12
465.695	1	6
466.036	1	10
466.376	1	3
466.717	1	8
467.058	1	12
467.399	1	9
467.740	1	6
468.081	1	8
468.422	1	11
468.762	1	-7
469.103	1	-2
469.444	1	10
469.785	1	16
470.126	1	11
470.467	1	5
470.807	1	3
471.148	1	3
471.489	1	5
471.830	1	15
472.171	1	9
472.511	1	13
472.852	1	4
473.193	1	0
473.534	1	5
473.875	1	9
474.215	1	-5
474.556	1	3
474.897	1	14
475.238	1	11
475.578	1	8
475.919	1	1
476.260	1	-3
476.601	1	6
476.942	1	8
477.282	1	-4
477.623	1	10
477.964	1	8
478.305	1	1
478.645	1	4
478.986	1	10
479.327	1	2
479.667	1	16
480.008	1	12
480.349	1	-4
480.690	1	6
481.030	1	4
481.371	1	10
481.712	1	6
482.053	1	4
482.393	1	-2
482.734	1	9
483.075	1	12
483.415	1	13
483.756	1	9
484.097	1	6
484.437	1	-4
484.778	1	8
485.119	1	8
485.459	1	8
485.800	1	7
486.141	1	1
486.481	1	11
486.822	1	8
487.163	1	6
487.503	1	0
487.844	1	6
488.185	1	-2
488.525	1	8
488.866	1	18
489.207	1	22
489.547	1	8
489.888	1	5
490.228	1	-10
490.569	1	20
490.910	1	9
491.250	1	9
491.591	1	-1
491.932	1	14
492.272	1	17
492.613	1	7
492.953	1	10
493.294	1	14
493.635	1	9
493.975	1	11
494.316	1	25
494.656	1	10
494.997	1	-1
495.337	1	8
495.678	1	23
496.019	1	6
496.359	1	7
496.700	1	15
497.040	1	5
497.381	1	-10
497.721	1	4
498.062	1	7
498.403	1	4
498.743	1	18
499.084	1	3
499.424	1	17
499.765	1	17
500.105	1	16
500.446	1	18
500.786	1	20
501.127	1	22
501.467	1	23
501.808	1	-6
502.148	1	16
502.489	1	7
502.829	1	12
503.170	1	10
503.510	1	12
503.851	1	-1
504.191	1	9
504.532	1	3
504.872	1	4
505.213	1	10
505.553	1	16
505.894	1	9
506.234	1	15
506.575	1	18
506.915	1	8
507.256	1	12
507.596	1	16
507.936	1	23
508.277	1	1
508.617	1	22
508.958	1	22
509.298	1	25
509.639	1	32
509.979	1	14
510.319	1	7
510.660	1	20
511.000	1	17
511.341	1	13
511.681	1	17
512.022	1	12
512.362	1	16
512.702	1	14
513.043	1	19
513.383	1	13
513.724	1	16
514.064	1	19
514.404	1	16
514.745	1	13
515.085	1	10
515.425	1	18
515.766	1	26
516.106	1	11
516.447	1	17
516.787	1	18
517.127	1	22
517.468	1	13
517.808	1	16
518.148	1	7
518.489	1	17
518.829	1	11
519.169	1	37
519.510	1	14
519.850	1	9
520.190	1	18
520.531	1	23
520.871	1	11
521.211	1	24
521.552	1	21
521.892	1	8
522.232	1	11
522.573	1	24
522.913	1	15
523.253	1	19
523.593	1	9
523.934	1	25
524.274	1	16
524.614	1	17
524.955	1	27
525.295	1	7
525.635	1	23
525.975	1	17
526.316	1	10
526.656	1	32
526.996	1	29
527.337	1	12
527.677	1	25
528.017	1	6
528.357	1	32
528.698	1	13
529.038	1	36
529.378	1	18
529.718	1	25
530.058	1	27
530.399	1	34
530.739	1	25
531.079	1	19
531.419	1	24
531.760	1	21
532.100	1	28
532.440	1	20
532.780	1	20
533.120	1	14
533.461	1	22
533.801	1	20
534.141	1	29
534.481	1	10
534.821	1	19
535.162	1	18
535.502	1	28
535.842	1	23
536.182	1	15
536.522	1	37
536.862	1	24
537.203	1	22
537.543	1	26
537.883	1	23
538.223	1	25
538.563	1	21
538.903	1	15
539.243	1	28
539.584	1	15
539.924	1	26
540.264	1	18
540.604	1	21
540.944	1	15
541.284	1	14
541.624	1	23
541.964	1	19
542.305	1	16
542.645	1	15
542.985	1	13
543.325	1	12
543.665	1	18
544.005	1	25
544.345	1	13
544.685	1	21
545.025	1	13
545.365	1	18
545.705	1	20
546.045	1	23
546.386	1	20
546.726	1	14
547.066	1	0
547.406	1	34
547.746	1	26
548.086	1	31
548.426	1	20
548.766	1	24
549.106	1	28
549.446	1	17
549.786	1	18
550.126	1	6
550.466	1	10
550.806	1	35
551.146	1	10
551.486	1	25
551.826	1	14
552.166	1	15
552.506	1	8
552.846	1	19
553.186	1	12
553.526	1	14
553.866	1	18
554.206	1	16
554.546	1	12
554.886	1	21
555.226	1	4
555.566	1	17
555.906	1	16
556.246	1	23
556.586	1	26
556.926	1	19
557.266	1	18
557.606	1	2
557.946	1	19
558.286	1	22
558.626	1	12
558.966	1	14
559.306	1	3
559.646	1	14
559.986	1	3
560.325	1	1
560.665	1	10
561.005	1	16
561.345	1	16
561.685	1	12
562.025	1	9
562.365	1	18
562.705	1	23
563.045	1	26
563.385	1	11
563.725	1	-1
564.064	1	14
564.404	1	8
564.744	1	9
565.084	1	9
565.424	1	10
565.764	1	20
566.104	1	6
566.444	1	15
566.783	1	11
567.123	1	28
567.463	1	16
567.803	1	5
568.143	1	7
568.483	1	3
568.823	1	15
569.162	1	18
569.502	1	10
569.842	1	4
570.182	1	-3
570.522	1	8
570.862	1	15
571.201	1	23
571.541	1	-5
571.881	1	15
572.221	1	24
572.561	1	5
572.900	1	22
573.240	1	5
573.580	1	8
573.920	1	12
574.260	1	-2
574.599	1	8
574.939	1	10
575.279	1	17
575.619	1	11
575.959	1	5
576.298	1	2
576.638	1	5
576.978	1	3
577.318	1	16
577.657	1	-2
577.997	1	0
578.337	1	13
578.677	1	4
579.016	1	15
579.356	1	-2
579.696	1	10
580.036	1	7
580.375	1	6
580.715	1	15
581.055	1	14
581.394	1	9
581.734	1	11
582.074	1	8
582.414	1	13
582.753	1	7
583.093	1	1
583.433	1	-5
583.772	1	9
584.112	1	10
584.452	1	7
584.791	1	16
585.131	1	-4
585.471	1	0
585.811	1	1
586.150	1	8
586.490	1	-3
586.830	1	0
587.169	1	7
587.509	1	9
587.849	1	9
588.188	1	9
588.528	1	9
588.867	1	14
589.207	1	-6
589.547	1	0
589.886	1	6
590.226	1	11
590.566	1	6
590.905	1	6
591.245	1	1
591.585	1	7
591.924	1	4
592.264	1	8
592.603	1	0
592.943	1	4
593.283	1	6
593.622	1	2
593.962	1	12
594.301	1	15
594.641	1	6
594.981	1	8
595.320	1	12
595.660	1	2
595.999	1	7
596.339	1	14
596.678	1	7
597.018	1	9
597.358	1	12
597.697	1	-6
598.037	1	3
598.376	1	11
598.716	1	1
599.055	1	6
599.395	1	20
599.734	1	10
600.074	1	-1
600.413	1	1
600.753	1	14
601.092	1	-8
601.432	1	2
601.771	1	14
602.111	1	4
602.451	1	12
602.790	1	-1
603.130	1	13
603.469	1	6
603.809	1	5
604.148	1	6
604.487	1	11
604.827	1	-3
605.166	1	-2
605.506	1	16
605.845	1	8
606.185	1	9
606.524	1	-1
606.864	1	-1
607.203	1	13
607.543	1	-2
607.882	1	0
608.222	1	4
608.561	1	15
608.901	1	3
609.240	1	5
609.579	1	11
609.919	1	-2
610.258	1	6
610.598	1	4
610.937	1	2
611.277	1	16
611.616	1	-1
611.955	1	11
612.295	1	11
612.634	1	-3
612.974	1	6
613.313	1	10
613.652	1	5
613.992	1	5
614.331	1	6
614.671	1	4
615.010	1	5
615.349	1	4
615.689	1	1
616.028	1	2
616.368	1	-3
616.707	1	11
617.046	1	9
617.386	1	4
617.725	1	8
618.064	1	2
618.404	1	12
618.743	1	6
619.082	1	5
619.422	1	-1
619.761	1	11
620.100	1	1
620.440	1	6
620.779	1	-2
621.118	1	3
621.458	1	10
621.797	1	11
622.136	1	11
622.476	1	9
622.815	1	5
623.154	1	5
623.494	1	7
623.833	1	3
624.172	1	19
624.511	1	9
624.851	1	-2
625.190	1	8
625.529	1	11
625.869	1	21
626.208	1	-2
626.547	1	7
626.886	1	0
627.226	1	9
627.565	1	9
627.904	1	4
628.243	1	-7
628.583	1	8
628.922	1	-2
629.261	1	7
629.600	1	5
629.940	1	6
630.279	1	-2
630.618	1	5
630.957	1	-2
631.297	1	3
631.636	1	9
631.975	1	7
632.314	1	12
632.653	1	-14
632.993	1	11
633.332	1	12
633.671	1	4
634.010	1	3
634.349	1	8
634.689	1	10
635.028	1	15
635.367	1	2
635.706	1	2
636.045	1	10
636.384	1	14
636.724	1	11
637.063	1	10
637.402	1	10
637.741	1	5
638.080	1	14
638.419	1	15
638.759	1	11
639.098	1	3
639.437	1	-1
639.776	1	8
640.115	1	8
640.454	1	17
640.793	1	14
641.132	1	14
641.472	1	3
641.811	1	3
642.150	1	10
642.489	1	-4
642.828	1	12
643.167	1	11
643.506	1	-4
643.845	1	14
644.184	1	14
644.524	1	6
644.863	1	-2
645.202	1	5
645.541	1	-1
645.880	1	4
646.219	1	6
646.558	1	4
646.897	1	-3
647.236	1	11
647.575	1	2
647.914	1	-3
648.253	1	11
648.592	1	1
648.931	1	15
649.270	1	5
649.610	1	21
649.949	1	3
650.288	1	0
650.627	1	2
650.966	1	6
651.305	1	6
651.644	1	-2
651.983	1	3
652.322	1	7
652.661	1	1
653.000	1	-5
653.339	1	0
653.678	1	0
654.017	1	5
654.356	1	11
654.695	1	18
655.034	1	4
655.373	1	8
655.712	1	-7
656.051	1	18
656.390	1	-5
656.729	1	8
657.068	1	8
657.406	1	7
657.745	1	-2
658.084	1	15
658.423	1	-11
658.762	1	4
659.101	1	1
659.440	1	19
659.779	1	5
660.118	1	10
660.457	1	1
660.796	1	0
661.135	1	8
661.474	1	6
661.813	1	7
662.152	1	-7
662.491	1	6
662.829	1	5
663.168	1	1
663.507	1	-3
663.846	1	12
664.185	1	0
664.524	1	-5
664.863	1	3
665.202	1	-8
665.541	1	2
665.879	1	11
666.218	1	-9
666.557	1	0
666.896	1	0
667.235	1	6
667.574	1	14
667.913	1	3
668.251	1	5
668.590	1	0
668.929	1	5
669.268	1	4
669.607	1	-10
669.946	1	11
670.285	1	3
670.623	1	6
670.962	1	6
671.301	1	10
671.640	1	-8
671.979	1	16
672.317	1	6
672.656	1	2
672.995	1	12
673.334	1	11
673.673	1	19
674.011	1	10
674.350	1	-11
674.689	1	0
675.028	1	7
675.367	1	9
675.705	1	3
676.044	1	-2
676.383	1	4
676.722	1	1
677.060	1	2
677.399	1	3
677.738	1	-5
678.077	1	2
678.416	1	-1
678.754	1	-1
679.093	1	7
679.432	1	-6
679.771	1	3
680.109	1	15
680.448	1	8
680.787	1	19
681.125	1	10
681.464	1	3
681.803	1	-13
682.142	1	12
682.480	1	4
682.819	1	9
683.158	1	14
683.496	1	-4
683.835	1	10
684.174	1	3
684.512	1	11
684.851	1	-6
685.190	1	5
685.529	1	3
685.867	1	-3
686.206	1	7
686.545	1	4
686.883	1	6
687.222	1	-2
687.561	1	6
687.899	1	-2
688.238	1	4
688.577	1	0
688.746	1	10