File: Analysis/GaN_68K_200ms/GaN_sample E_spot4_UVVIS_68 K_200um_200 ms 2x2mm1_696.txt
340.368	1	9
340.710	1	-10
341.052	1	1
341.394	1	-11
341.737	1	4
342.079	1	-13
342.421	1	-7
342.763	1	-8
343.105	1	7
343.447	1	3
343.789	1	4
344.131	1	-2
344.473	1	2
344.815	1	2
345.157	1	8
345.499	1	0
345.841	1	6
346.183	1	-2
346.526	1	8
346.868	1	2
347.210	1	4
347.552	1	2
347.894	1	1
348.236	1	1
348.578	1	3
348.920	1	1
349.262	1	1
349.604	1	15
349.946	1	6
350.288	1	-4
350.630	1	-4
350.972	1	0
351.314	1	-1
351.656	1	1
351.998	1	-3
352.340	1	-1
352.682	1	-1
353.024	1	-10
353.366	1	-1
353.708	1	4
354.050	1	6
354.392	1	10
354.734	1	-1
355.076	1	0
355.418	1	2
355.760	1	4
356.102	1	-4
356.444	1	1
356.785	1	13
357.127	1	4
357.469	1	1
357.811	1	10
358.153	1	3
358.495	1	13
358.837	1	0
359.179	1	-3
359.521	1	0
359.863	1	-11
360.205	1	-4
360.547	1	-10
360.889	1	3
361.231	1	3
361.572	1	0
361.914	1	-1
362.256	1	1
362.598	1	2
362.940	1	1
363.282	1	-2
363.624	1	3
363.966	1	5
364.308	1	-9
364.649	1	0
364.991	1	5
365.333	1	2
365.675	1	-7
366.017	1	5
366.359	1	1
366.701	1	-7
367.042	1	9
367.384	1	8
367.726	1	7
368.068	1	-4
368.410	1	-6
368.752	1	-15
369.093	1	10
369.435	1	-5
369.777	1	8
370.119	1	0
370.461	1	3
370.803	1	-3
371.144	1	12
371.486	1	4
371.828	1	7
372.170	1	11
372.512	1	-10
372.853	1	2
373.195	1	-11
373.537	1	4
373.879	1	6
374.220	1	-5
374.562	1	10
374.904	1	6
375.246	1	-16
375.588	1	1
375.929	1	0
376.271	1	-4
376.613	1	-7
376.955	1	-3
377.296	1	7
377.638	1	-4
377.980	1	4
378.321	1	9
378.663	1	-6
379.005	1	5
379.347	1	4
379.688	1	-9
380.030	1	-9
380.372	1	-4
380.714	1	1
381.055	1	1
381.397	1	0
381.739	1	13
382.080	1	-6
382.422	1	14
382.764	1	-1
383.105	1	-8
383.447	1	8
383.789	1	0
384.130	1	1
384.472	1	-11
384.814	1	-4
385.156	1	7
385.497	1	3
385.839	1	8
386.180	1	3
386.522	1	7
386.864	1	-4
387.205	1	-4
387.547	1	2
387.889	1	8
388.230	1	-2
388.572	1	2
388.914	1	5
389.255	1	5
389.597	1	0
389.939	1	5
390.280	1	3
390.622	1	-2
390.963	1	3
391.305	1	9
391.647	1	-2
391.988	1	-8
392.330	1	8
392.671	1	5
393.013	1	6
393.355	1	19
393.696	1	-1
394.038	1	-6
394.379	1	-10
394.721	1	-2
395.062	1	-5
395.404	1	-1
395.746	1	-4
396.087	1	1
396.429	1	5
396.770	1	0
397.112	1	-2
397.453	1	-3
397.795	1	1
398.136	1	4
398.478	1	-1
398.819	1	4
399.161	1	12
399.503	1	6
399.844	1	10
400.186	1	12
400.527	1	-3
400.869	1	7
401.210	1	-5
401.552	1	16
401.893	1	-1
402.235	1	2
402.576	1	9
402.918	1	-3
403.259	1	-12
403.601	1	-16
403.942	1	8
404.284	1	-4
404.625	1	8
404.967	1	-3
405.308	1	4
405.649	1	-7
405.991	1	5
406.332	1	2
406.674	1	-2
407.015	1	-12
407.357	1	0
407.698	1	2
408.040	1	-1
408.381	1	-8
408.722	1	1
409.064	1	3
409.405	1	-6
409.747	1	-9
410.088	1	2
410.430	1	9
410.771	1	5
411.112	1	4
411.454	1	6
411.795	1	2
412.137	1	9
412.478	1	6
412.819	1	-18
413.161	1	-1
413.502	1	-6
413.844	1	0
414.185	1	9
414.526	1	10
414.868	1	3
415.209	1	-5
415.550	1	-6
415.892	1	3
416.233	1	-1
416.575	1	-4
416.916	1	-6
417.257	1	8
417.599	1	1
417.940	1	6
418.281	1	4
418.623	1	-5
418.964	1	2
419.305	1	-10
419.647	1	3
419.988	1	-2
420.329	1	10
420.671	1	3
421.012	1	10
421.353	1	7
421.695	1	0
422.036	1	-5
422.377	1	-3
422.718	1	-2
423.060	1	2
423.401	1	10
423.742	1	2
424.084	1	3
424.425	1	0
424.766	1	-10
425.107	1	-3
425.449	1	6
425.790	1	1
426.131	1	-7
426.472	1	1
426.814	1	9
427.155	1	-6
427.496	1	0
427.837	1	0
428.179	1	-6
428.520	1	0
428.861	1	5
429.202	1	6
429.544	1	2
429.885	1	1
430.226	1	-3
430.567	1	5
430.909	1	-6
431.250	1	-14
431.591	1	1
431.932	1	5
432.273	1	-5
432.615	1	4
432.956	1	0
433.297	1	4
433.638	1	-5
433.979	1	-1
434.320	1	-3
434.662	1	-6
435.003	1	4
435.344	1	-5
435.685	1	2
436.026	1	-4
436.368	1	-4
436.709	1	-6
437.050	1	-1
437.391	1	5
437.732	1	-4
438.073	1	3
438.414	1	4
438.756	1	8
439.097	1	3
439.438	1	7
439.779	1	0
440.120	1	6
440.461	1	-7
440.802	1	0
441.143	1	10
441.485	1	-3
441.826	1	-6
442.167	1	0
442.508	1	-10
442.849	1	10
443.190	1	-13
443.531	1	-1
443.872	1	0
444.213	1	-6
444.554	1	-1
444.895	1	-7
445.237	1	0
445.578	1	10
445.919	1	1
446.260	1	2
446.601	1	-9
446.942	1	2
447.283	1	10
447.624	1	7
447.965	1	-13
448.306	1	2
448.647	1	8
448.988	1	-9
449.329	1	-4
449.670	1	-3
450.011	1	-2
450.352	1	10
450.693	1	6
451.034	1	1
451.375	1	1
451.716	1	2
452.057	1	6
452.398	1	5
452.739	1	-1
453.080	1	12
453.421	1	-5
453.762	1	3
454.103	1	2
454.444	1	6
454.785	1	-5
455.126	1	3
455.467	1	10
455.808	1	-2
456.149	1	-4
456.490	1	3
456.831	1	8
457.172	1	-6
457.513	1	6
457.854	1	-3
458.195	1	0
458.536	1	4
458.877	1	-2
459.218	1	7
459.559	1	3
459.899	1	3
460.240	1	-3
460.581	1	0
460.922	1	1
461.263	1	3
461.604	1	-2
461.945	1	9
462.286	1	9
462.627	1	5
462.968	1	-9
463.309	1	-1
463.649	1	-3
463.990	1	1
464.331	1	4
464.672	1	2
465.013	1	-10
465.354	1	0
465.695	1	-1
466.036	1	6
466.376	1	-7
466.717	1	-8
467.058	1	9
467.399	1	-1
467.740	1	-10
468.081	1	3
468.422	1	-5
468.762	1	-12
469.103	1	-14
469.444	1	-2
469.785	1	5
470.126	1	1
470.467	1	-7
470.807	1	1
471.148	1	-11
471.489	1	-3
471.830	1	14
472.171	1	2
472.511	1	11
472.852	1	-8
473.193	1	-12
473.534	1	-4
473.875	1	-1
474.215	1	-1
474.556	1	-4
474.897	1	-2
475.238	1	0
475.578	1	6
475.919	1	9
476.260	1	-4
476.601	1	3
476.942	1	1
477.282	1	-21
477.623	1	10
477.964	1	10
478.305	1	3
478.645	1	-6
478.986	1	-4
479.327	1	-11
479.667	1	5
480.008	1	2
480.349	1	2
480.690	1	-2
481.030	1	-6
481.371	1	2
481.712	1	1
482.053	1	14
482.393	1	-9
482.734	1	7
483.075	1	-2
483.415	1	11
483.756	1	1
484.097	1	-9
484.437	1	-8
484.778	1	6
485.119	1	4
485.459	1	14
485.800	1	-3
486.141	1	-6
486.481	1	7
486.822	1	-2
487.163	1	-6
487.503	1	-13
487.844	1	-8
488.185	1	-8
488.525	1	0
488.866	1	7
489.207	1	4
489.547	1	-2
489.888	1	-2
490.228	1	-5
490.569	1	2
490.910	1	-5
491.250	1	6
491.591	1	-6
491.932	1	0
492.272	1	0
492.613	1	8
492.953	1	9
493.294	1	7
493.635	1	-7
493.975	1	1
494.316	1	10
494.656	1	1
494.997	1	-7
495.337	1	7
495.678	1	2
496.019	1	-6
496.359	1	3
496.700	1	-1
497.040	1	5
497.381	1	-22
497.721	1	-2
498.062	1	1
498.403	1	0
498.743	1	-6
499.084	1	-14
499.424	1	4
499.765	1	-6
500.105	1	6
500.446	1	3
500.786	1	1
501.127	1	6
501.467	1	0
501.808	1	-10
502.148	1	11
502.489	1	8
502.829	1	-7
503.170	1	-1
503.510	1	4
503.851	1	-10
504.191	1	-1
504.532	1	-11
504.872	1	-7
505.213	1	-4
505.553	1	9
505.894	1	6
506.234	1	10
506.575	1	-10
506.915	1	5
507.256	1	-5
507.596	1	-2
507.936	1	5
508.277	1	-10
508.617	1	8
508.958	1	10
509.298	1	16
509.639	1	5
509.979	1	3
510.319	1	-6
510.660	1	7
511.000	1	5
511.341	1	-9
511.681	1	-6
512.022	1	-8
512.362	1	6
512.702	1	-12
513.043	1	0
513.383	1	-4
513.724	1	4
514.064	1	7
514.404	1	2
514.745	1	-2
515.085	1	-3
515.425	1	-7
515.766	1	5
516.106	1	-4
516.447	1	-3
516.787	1	0
517.127	1	4
517.468	1	-3
517.808	1	1
518.148	1	-1
518.489	1	8
518.829	1	-8
519.169	1	10
519.510	1	-2
519.850	1	-8
520.190	1	0
520.531	1	3
520.871	1	-4
521.211	1	-4
521.552	1	6
521.892	1	-9
522.232	1	-11
522.573	1	-2
522.913	1	3
523.253	1	0
523.593	1	-1
523.934	1	-1
524.274	1	4
524.614	1	2
524.955	1	7
525.295	1	-6
525.635	1	18
525.975	1	-3
526.316	1	-10
526.656	1	10
526.996	1	10
527.337	1	4
527.677	1	6
528.017	1	-8
528.357	1	4
528.698	1	-3
529.038	1	2
529.378	1	3
529.718	1	-3
530.058	1	1
530.399	1	3
530.739	1	-1
531.079	1	8
531.419	1	9
531.760	1	7
532.100	1	8
532.440	1	-1
532.780	1	-6
533.120	1	2
533.461	1	15
533.801	1	8
534.141	1	0
534.481	1	3
534.821	1	10
535.162	1	3
535.502	1	-4
535.842	1	0
536.182	1	3
536.522	1	5
536.862	1	9
537.203	1	6
537.543	1	2
537.883	1	-1
538.223	1	-1
538.563	1	0
538.903	1	-5
539.243	1	5
539.584	1	8
539.924	1	5
540.264	1	1
540.604	1	1
540.944	1	-5
541.284	1	4
541.624	1	-4
541.964	1	1
542.305	1	-7
542.645	1	0
542.985	1	-10
543.325	1	-4
543.665	1	6
544.005	1	2
544.345	1	-10
544.685	1	5
545.025	1	-8
545.365	1	-5
545.705	1	0
546.045	1	7
546.386	1	2
546.726	1	0
547.066	1	-10
547.406	1	4
547.746	1	12
548.086	1	12
548.426	1	-7
548.766	1	9
549.106	1	5
549.446	1	2
549.786	1	5
550.126	1	-5
550.466	1	3
550.806	1	10
551.146	1	-1
551.486	1	0
551.826	1	8
552.166	1	-14
552.506	1	0
552.846	1	-4
553.186	1	1
553.526	1	-1
553.866	1	-4
554.206	1	1
554.546	1	-4
554.886	1	8
555.226	1	-8
555.566	1	4
555.906	1	0
556.246	1	-8
556.586	1	18
556.926	1	2
557.266	1	7
557.606	1	-7
557.946	1	2
558.286	1	3
558.626	1	3
558.966	1	3
559.306	1	-6
559.646	1	0
559.986	1	-8
560.325	1	-7
560.665	1	10
561.005	1	-6
561.345	1	0
561.685	1	-4
562.025	1	-6
562.365	1	-1
562.705	1	6
563.045	1	-1
563.385	1	4
563.725	1	-5
564.064	1	12
564.404	1	-1
564.744	1	6
565.084	1	-10
565.424	1	0
565.764	1	9
566.104	1	-3
566.444	1	4
566.783	1	2
567.123	1	11
567.463	1	0
567.803	1	-5
568.143	1	-4
568.483	1	-5
568.823	1	10
569.162	1	5
569.502	1	5
569.842	1	0
570.182	1	-1
570.522	1	4
570.862	1	1
571.201	1	4
571.541	1	-5
571.881	1	0
572.221	1	-1
572.561	1	-8
572.900	1	6
573.240	1	1
573.580	1	-1
573.920	1	-9
574.260	1	-1
574.599	1	-2
574.939	1	-1
575.279	1	1
575.619	1	2
575.959	1	1
576.298	1	-6
576.638	1	-5
576.978	1	2
577.318	1	5
577.657	1	-13
577.997	1	5
578.337	1	-5
578.677	1	-5
579.016	1	5
579.356	1	-2
579.696	1	4
580.036	1	-1
580.375	1	4
580.715	1	8
581.055	1	-3
581.394	1	-7
581.734	1	4
582.074	1	-1
582.414	1	3
582.753	1	8
583.093	1	-2
583.433	1	-2
583.772	1	-6
584.112	1	6
584.452	1	0
584.791	1	5
585.131	1	-6
585.471	1	-3
585.811	1	-6
586.150	1	0
586.490	1	-7
586.830	1	-9
587.169	1	1
587.509	1	5
587.849	1	7
588.188	1	-2
588.528	1	2
588.867	1	-4
589.207	1	-10
589.547	1	-9
589.886	1	1
590.226	1	3
590.566	1	2
590.905	1	6
591.245	1	-13
591.585	1	-6
591.924	1	0
592.264	1	9
592.603	1	-1
592.943	1	-5
593.283	1	-5
593.622	1	-8
593.962	1	5
594.301	1	5
594.641	1	-12
594.981	1	-4
595.320	1	7
595.660	1	-4
595.999	1	11
596.339	1	-5
596.678	1	-11
597.018	1	0
597.358	1	-2
597.697	1	-2
598.037	1	0
598.376	1	6
598.716	1	0
599.055	1	7
599.395	1	11
599.734	1	-3
600.074	1	-3
600.413	1	-8
600.753	1	4
601.092	1	-9
601.432	1	-5
601.771	1	5
602.111	1	-7
602.451	1	4
602.790	1	-1
603.130	1	6
603.469	1	-5
603.809	1	12
604.148	1	-1
604.487	1	4
604.827	1	-2
605.166	1	-13
605.506	1	0
605.845	1	1
606.185	1	5
606.524	1	-4
606.864	1	-3
607.203	1	6
607.543	1	-6
607.882	1	-1
608.222	1	6
608.561	1	-1
608.901	1	13
609.240	1	3
609.579	1	-1
609.919	1	-10
610.258	1	10
610.598	1	-8
610.937	1	-2
611.277	1	0
611.616	1	-11
611.955	1	5
612.295	1	1
612.634	1	-6
612.974	1	1
613.313	1	4
613.652	1	-2
613.992	1	6
614.331	1	-4
614.671	1	-2
615.010	1	2
615.349	1	5
615.689	1	-2
616.028	1	-6
616.368	1	0
616.707	1	-2
617.046	1	2
617.386	1	1
617.725	1	5
618.064	1	8
618.404	1	10
618.743	1	-4
619.082	1	1
619.422	1	-8
619.761	1	4
620.100	1	0
620.440	1	0
620.779	1	-6
621.118	1	-7
621.458	1	-6
621.797	1	1
622.136	1	-1
622.476	1	-4
622.815	1	2
623.154	1	2
623.494	1	2
623.833	1	-6
624.172	1	7
624.511	1	-8
624.851	1	-5
625.190	1	0
625.529	1	5
625.869	1	14
626.208	1	-1
626.547	1	4
626.886	1	-8
627.226	1	-1
627.565	1	15
627.904	1	7
628.243	1	-3
628.583	1	0
628.922	1	-5
629.261	1	1
629.600	1	8
629.940	1	2
630.279	1	-14
630.618	1	3
630.957	1	-8
631.297	1	-5
631.636	1	-6
631.975	1	10
632.314	1	9
632.653	1	3
632.993	1	0
633.332	1	6
633.671	1	-2
634.010	1	-6
634.349	1	4
634.689	1	10
635.028	1	0
635.367	1	3
635.706	1	-4
636.045	1	0
636.384	1	2
636.724	1	1
637.063	1	6
637.402	1	10
637.741	1	13
638.080	1	8
638.419	1	-1
638.759	1	-9
639.098	1	-1
639.437	1	-1
639.776	1	5
640.115	1	-3
640.454	1	10
640.793	1	6
641.132	1	0
641.472	1	-9
641.811	1	-4
642.150	1	-1
642.489	1	-1
642.828	1	-1
643.167	1	14
643.506	1	-9
643.845	1	-5
644.184	1	9
644.524	1	2
644.863	1	-7
645.202	1	-1
645.541	1	-8
645.880	1	1
646.219	1	-2
646.558	1	3
646.897	1	-2
647.236	1	-1
647.575	1	1
647.914	1	-6
648.253	1	4
648.592	1	-6
648.931	1	8
649.270	1	3
649.610	1	3
649.949	1	-4
650.288	1	-9
650.627	1	-6
650.966	1	2
651.305	1	-8
651.644	1	-5
651.983	1	1
652.322	1	7
652.661	1	1
653.000	1	-6
653.339	1	8
653.678	1	1
654.017	1	-2
654.356	1	0
654.695	1	-1
655.034	1	-4
655.373	1	-3
655.712	1	-2
656.051	1	3
656.390	1	0
656.729	1	9
657.068	1	-10
657.406	1	-2
657.745	1	-10
658.084	1	0
658.423	1	3
658.762	1	-5
659.101	1	0
659.440	1	14
659.779	1	1
660.118	1	-6
660.457	1	-6
660.796	1	-5
661.135	1	1
661.474	1	-1
661.813	1	0
662.152	1	-4
662.491	1	1
662.829	1	0
663.168	1	-3
663.507	1	-10
663.846	1	2
664.185	1	-2
664.524	1	-2
664.863	1	3
665.202	1	-6
665.541	1	-14
665.879	1	-1
666.218	1	0
666.557	1	-2
666.896	1	-2
667.235	1	2
667.574	1	7
667.913	1	3
668.251	1	2
668.590	1	-8
668.929	1	2
669.268	1	0
669.607	1	-13
669.946	1	14
670.285	1	-2
670.623	1	12
670.962	1	-10
671.301	1	-7
671.640	1	-17
671.979	1	11
672.317	1	-3
672.656	1	14
672.995	1	-3
673.334	1	-2
673.673	1	19
674.011	1	4
674.350	1	-1
674.689	1	-2
675.028	1	3
675.367	1	2
675.705	1	-6
676.044	1	-3
676.383	1	-6
676.722	1	2
677.060	1	2
677.399	1	-7
677.738	1	-8
678.077	1	2
678.416	1	-1
678.754	1	-4
679.093	1	2
679.432	1	-3
679.771	1	-7
680.109	1	6
680.448	1	-9
680.787	1	2
681.125	1	1
681.464	1	-2
681.803	1	-7
682.142	1	15
682.480	1	-8
682.819	1	4
683.158	1	5
683.496	1	-10
683.835	1	1
684.174	1	2
684.512	1	1
684.851	1	-1
685.190	1	2
685.529	1	-7
685.867	1	9
686.206	1	-1
686.545	1	4
686.883	1	-1
687.222	1	-3
687.561	1	5
687.899	1	0
688.238	1	3
688.577	1	-9
688.746	1	4