File: Analysis/GaN_68K_200ms/GaN_sample E_spot4_UVVIS_68 K_200um_200 ms 2x2mm1_540.txt
340.368	1	6
340.710	1	-6
341.052	1	0
341.394	1	1
341.737	1	5
342.079	1	-4
342.421	1	-10
342.763	1	-3
343.105	1	13
343.447	1	9
343.789	1	3
344.131	1	-9
344.473	1	7
344.815	1	2
345.157	1	8
345.499	1	0
345.841	1	5
346.183	1	4
346.526	1	7
346.868	1	5
347.210	1	-8
347.552	1	-2
347.894	1	-3
348.236	1	-3
348.578	1	5
348.920	1	9
349.262	1	-3
349.604	1	2
349.946	1	9
350.288	1	9
350.630	1	-10
350.972	1	-12
351.314	1	-10
351.656	1	6
351.998	1	0
352.340	1	-4
352.682	1	-10
353.024	1	-8
353.366	1	-3
353.708	1	4
354.050	1	0
354.392	1	11
354.734	1	-2
355.076	1	1
355.418	1	5
355.760	1	6
356.102	1	2
356.444	1	0
356.785	1	9
357.127	1	7
357.469	1	0
357.811	1	17
358.153	1	1
358.495	1	8
358.837	1	-3
359.179	1	6
359.521	1	1
359.863	1	-10
360.205	1	0
360.547	1	1
360.889	1	10
361.231	1	5
361.572	1	-5
361.914	1	-6
362.256	1	6
362.598	1	5
362.940	1	4
363.282	1	4
363.624	1	4
363.966	1	4
364.308	1	3
364.649	1	6
364.991	1	2
365.333	1	3
365.675	1	-1
366.017	1	6
366.359	1	-6
366.701	1	-6
367.042	1	8
367.384	1	11
367.726	1	10
368.068	1	-4
368.410	1	-4
368.752	1	-6
369.093	1	7
369.435	1	-4
369.777	1	-8
370.119	1	3
370.461	1	0
370.803	1	3
371.144	1	3
371.486	1	7
371.828	1	2
372.170	1	4
372.512	1	0
372.853	1	2
373.195	1	1
373.537	1	1
373.879	1	3
374.220	1	-6
374.562	1	4
374.904	1	-3
375.246	1	3
375.588	1	3
375.929	1	4
376.271	1	-5
376.613	1	-3
376.955	1	-5
377.296	1	4
377.638	1	4
377.980	1	1
378.321	1	3
378.663	1	-5
379.005	1	17
379.347	1	-1
379.688	1	-6
380.030	1	2
380.372	1	3
380.714	1	7
381.055	1	5
381.397	1	-5
381.739	1	9
382.080	1	-7
382.422	1	13
382.764	1	1
383.105	1	4
383.447	1	6
383.789	1	7
384.130	1	-3
384.472	1	-4
384.814	1	6
385.156	1	9
385.497	1	6
385.839	1	-1
386.180	1	7
386.522	1	9
386.864	1	-2
387.205	1	-3
387.547	1	-10
387.889	1	18
388.230	1	6
388.572	1	11
388.914	1	19
389.255	1	3
389.597	1	2
389.939	1	12
390.280	1	14
390.622	1	-7
390.963	1	7
391.305	1	16
391.647	1	5
391.988	1	-4
392.330	1	4
392.671	1	6
393.013	1	9
393.355	1	11
393.696	1	-1
394.038	1	-5
394.379	1	-6
394.721	1	9
395.062	1	-4
395.404	1	11
395.746	1	0
396.087	1	-6
396.429	1	5
396.770	1	16
397.112	1	3
397.453	1	0
397.795	1	7
398.136	1	12
398.478	1	-11
398.819	1	9
399.161	1	8
399.503	1	5
399.844	1	-3
400.186	1	7
400.527	1	8
400.869	1	7
401.210	1	-5
401.552	1	11
401.893	1	1
402.235	1	14
402.576	1	16
402.918	1	-9
403.259	1	-2
403.601	1	2
403.942	1	6
404.284	1	1
404.625	1	-1
404.967	1	-3
405.308	1	5
405.649	1	11
405.991	1	14
406.332	1	-2
406.674	1	5
407.015	1	-6
407.357	1	-8
407.698	1	5
408.040	1	-11
408.381	1	16
408.722	1	0
409.064	1	3
409.405	1	3
409.747	1	-2
410.088	1	0
410.430	1	9
410.771	1	3
411.112	1	6
411.454	1	3
411.795	1	0
412.137	1	9
412.478	1	10
412.819	1	4
413.161	1	-7
413.502	1	-3
413.844	1	2
414.185	1	9
414.526	1	-1
414.868	1	5
415.209	1	11
415.550	1	-4
415.892	1	1
416.233	1	-6
416.575	1	3
416.916	1	1
417.257	1	3
417.599	1	10
417.940	1	-5
418.281	1	-3
418.623	1	-8
418.964	1	-9
419.305	1	4
419.647	1	14
419.988	1	-1
420.329	1	1
420.671	1	8
421.012	1	5
421.353	1	0
421.695	1	-1
422.036	1	-1
422.377	1	10
422.718	1	-3
423.060	1	1
423.401	1	-4
423.742	1	-1
424.084	1	7
424.425	1	10
424.766	1	8
425.107	1	6
425.449	1	6
425.790	1	-3
426.131	1	1
426.472	1	-9
426.814	1	10
427.155	1	-4
427.496	1	2
427.837	1	-6
428.179	1	-1
428.520	1	-5
428.861	1	-2
429.202	1	11
429.544	1	6
429.885	1	-8
430.226	1	-8
430.567	1	10
430.909	1	-10
431.250	1	-12
431.591	1	12
431.932	1	-6
432.273	1	-5
432.615	1	1
432.956	1	-7
433.297	1	9
433.638	1	-7
433.979	1	4
434.320	1	-2
434.662	1	-13
435.003	1	5
435.344	1	6
435.685	1	2
436.026	1	9
436.368	1	-2
436.709	1	-15
437.050	1	-1
437.391	1	2
437.732	1	-4
438.073	1	15
438.414	1	-5
438.756	1	2
439.097	1	10
439.438	1	11
439.779	1	-1
440.120	1	4
440.461	1	-9
440.802	1	4
441.143	1	14
441.485	1	-2
441.826	1	1
442.167	1	0
442.508	1	-3
442.849	1	7
443.190	1	-7
443.531	1	6
443.872	1	7
444.213	1	-8
444.554	1	-3
444.895	1	-5
445.237	1	-2
445.578	1	12
445.919	1	-8
446.260	1	1
446.601	1	-8
446.942	1	2
447.283	1	-6
447.624	1	1
447.965	1	-5
448.306	1	-7
448.647	1	-1
448.988	1	-7
449.329	1	3
449.670	1	4
450.011	1	-1
450.352	1	11
450.693	1	-1
451.034	1	3
451.375	1	7
451.716	1	2
452.057	1	4
452.398	1	1
452.739	1	-3
453.080	1	10
453.421	1	0
453.762	1	8
454.103	1	7
454.444	1	4
454.785	1	-11
455.126	1	-8
455.467	1	7
455.808	1	-1
456.149	1	-4
456.490	1	-10
456.831	1	3
457.172	1	5
457.513	1	14
457.854	1	3
458.195	1	-1
458.536	1	8
458.877	1	0
459.218	1	2
459.559	1	1
459.899	1	7
460.240	1	-1
460.581	1	0
460.922	1	0
461.263	1	9
461.604	1	-5
461.945	1	11
462.286	1	13
462.627	1	-1
462.968	1	-4
463.309	1	3
463.649	1	0
463.990	1	-1
464.331	1	5
464.672	1	-3
465.013	1	-8
465.354	1	0
465.695	1	2
466.036	1	7
466.376	1	-5
466.717	1	-12
467.058	1	14
467.399	1	0
467.740	1	-6
468.081	1	11
468.422	1	-4
468.762	1	-7
469.103	1	-2
469.444	1	1
469.785	1	8
470.126	1	6
470.467	1	-7
470.807	1	-5
471.148	1	2
471.489	1	1
471.830	1	8
472.171	1	2
472.511	1	1
472.852	1	-6
473.193	1	-9
473.534	1	-10
473.875	1	5
474.215	1	-7
474.556	1	-16
474.897	1	8
475.238	1	0
475.578	1	-5
475.919	1	8
476.260	1	-3
476.601	1	5
476.942	1	-2
477.282	1	-14
477.623	1	6
477.964	1	6
478.305	1	2
478.645	1	1
478.986	1	-2
479.327	1	-7
479.667	1	10
480.008	1	3
480.349	1	1
480.690	1	-5
481.030	1	-7
481.371	1	-2
481.712	1	6
482.053	1	10
482.393	1	-12
482.734	1	6
483.075	1	0
483.415	1	1
483.756	1	12
484.097	1	-10
484.437	1	-4
484.778	1	-3
485.119	1	8
485.459	1	12
485.800	1	-4
486.141	1	-15
486.481	1	-5
486.822	1	5
487.163	1	-4
487.503	1	-4
487.844	1	-1
488.185	1	-13
488.525	1	-5
488.866	1	10
489.207	1	7
489.547	1	-5
489.888	1	-4
490.228	1	-9
490.569	1	7
490.910	1	-3
491.250	1	2
491.591	1	-8
491.932	1	-6
492.272	1	14
492.613	1	6
492.953	1	4
493.294	1	-2
493.635	1	1
493.975	1	0
494.316	1	10
494.656	1	5
494.997	1	-4
495.337	1	11
495.678	1	4
496.019	1	-5
496.359	1	2
496.700	1	-2
497.040	1	0
497.381	1	-18
497.721	1	-4
498.062	1	-5
498.403	1	5
498.743	1	3
499.084	1	-14
499.424	1	1
499.765	1	-2
500.105	1	0
500.446	1	8
500.786	1	3
501.127	1	1
501.467	1	4
501.808	1	-12
502.148	1	5
502.489	1	6
502.829	1	3
503.170	1	6
503.510	1	3
503.851	1	-14
504.191	1	7
504.532	1	-10
504.872	1	-2
505.213	1	-12
505.553	1	7
505.894	1	1
506.234	1	3
506.575	1	3
506.915	1	7
507.256	1	-2
507.596	1	-9
507.936	1	3
508.277	1	-4
508.617	1	12
508.958	1	16
509.298	1	10
509.639	1	11
509.979	1	-4
510.319	1	-3
510.660	1	7
511.000	1	12
511.341	1	-3
511.681	1	6
512.022	1	2
512.362	1	13
512.702	1	-8
513.043	1	-6
513.383	1	1
513.724	1	12
514.064	1	8
514.404	1	4
514.745	1	-5
515.085	1	-2
515.425	1	1
515.766	1	2
516.106	1	2
516.447	1	-9
516.787	1	-7
517.127	1	0
517.468	1	-2
517.808	1	7
518.148	1	7
518.489	1	3
518.829	1	-4
519.169	1	11
519.510	1	-3
519.850	1	-8
520.190	1	7
520.531	1	3
520.871	1	1
521.211	1	5
521.552	1	4
521.892	1	-10
522.232	1	-7
522.573	1	2
522.913	1	1
523.253	1	5
523.593	1	-11
523.934	1	4
524.274	1	4
524.614	1	2
524.955	1	-1
525.295	1	-1
525.635	1	9
525.975	1	-5
526.316	1	-3
526.656	1	12
526.996	1	15
527.337	1	3
527.677	1	14
528.017	1	-10
528.357	1	11
528.698	1	-3
529.038	1	6
529.378	1	8
529.718	1	2
530.058	1	0
530.399	1	3
530.739	1	3
531.079	1	9
531.419	1	7
531.760	1	8
532.100	1	9
532.440	1	2
532.780	1	2
533.120	1	-7
533.461	1	14
533.801	1	6
534.141	1	6
534.481	1	-3
534.821	1	7
535.162	1	1
535.502	1	3
535.842	1	-3
536.182	1	2
536.522	1	-2
536.862	1	5
537.203	1	8
537.543	1	1
537.883	1	10
538.223	1	9
538.563	1	-5
538.903	1	-1
539.243	1	2
539.584	1	3
539.924	1	-1
540.264	1	7
540.604	1	9
540.944	1	0
541.284	1	-1
541.624	1	2
541.964	1	2
542.305	1	-4
542.645	1	5
542.985	1	-1
543.325	1	-8
543.665	1	7
544.005	1	-3
544.345	1	-6
544.685	1	4
545.025	1	2
545.365	1	10
545.705	1	4
546.045	1	8
546.386	1	4
546.726	1	-3
547.066	1	-11
547.406	1	9
547.746	1	6
548.086	1	-2
548.426	1	-6
548.766	1	2
549.106	1	9
549.446	1	4
549.786	1	5
550.126	1	-4
550.466	1	-5
550.806	1	15
551.146	1	0
551.486	1	-2
551.826	1	3
552.166	1	6
552.506	1	-7
552.846	1	6
553.186	1	-8
553.526	1	0
553.866	1	0
554.206	1	0
554.546	1	-7
554.886	1	0
555.226	1	-10
555.566	1	9
555.906	1	10
556.246	1	-1
556.586	1	13
556.926	1	2
557.266	1	6
557.606	1	-13
557.946	1	9
558.286	1	6
558.626	1	3
558.966	1	5
559.306	1	-2
559.646	1	0
559.986	1	-2
560.325	1	-14
560.665	1	4
561.005	1	6
561.345	1	1
561.685	1	-4
562.025	1	-2
562.365	1	-5
562.705	1	-1
563.045	1	3
563.385	1	-9
563.725	1	3
564.064	1	-1
564.404	1	0
564.744	1	1
565.084	1	-12
565.424	1	6
565.764	1	8
566.104	1	0
566.444	1	11
566.783	1	-3
567.123	1	7
567.463	1	1
567.803	1	0
568.143	1	-5
568.483	1	-1
568.823	1	6
569.162	1	12
569.502	1	-2
569.842	1	12
570.182	1	-5
570.522	1	6
570.862	1	1
571.201	1	6
571.541	1	-3
571.881	1	11
572.221	1	7
572.561	1	-3
572.900	1	9
573.240	1	-3
573.580	1	7
573.920	1	3
574.260	1	-6
574.599	1	5
574.939	1	-4
575.279	1	-1
575.619	1	9
575.959	1	5
576.298	1	-9
576.638	1	7
576.978	1	0
577.318	1	1
577.657	1	-15
577.997	1	-8
578.337	1	1
578.677	1	0
579.016	1	14
579.356	1	-2
579.696	1	2
580.036	1	-1
580.375	1	-3
580.715	1	4
581.055	1	3
581.394	1	-8
581.734	1	11
582.074	1	-2
582.414	1	0
582.753	1	8
583.093	1	-11
583.433	1	1
583.772	1	0
584.112	1	7
584.452	1	-7
584.791	1	1
585.131	1	-2
585.471	1	0
585.811	1	2
586.150	1	-4
586.490	1	-11
586.830	1	1
587.169	1	5
587.509	1	-2
587.849	1	13
588.188	1	-8
588.528	1	0
588.867	1	3
589.207	1	-11
589.547	1	-13
589.886	1	-9
590.226	1	1
590.566	1	-6
590.905	1	12
591.245	1	-8
591.585	1	0
591.924	1	-8
592.264	1	0
592.603	1	-4
592.943	1	-2
593.283	1	5
593.622	1	4
593.962	1	11
594.301	1	10
594.641	1	-1
594.981	1	-6
595.320	1	4
595.660	1	-7
595.999	1	5
596.339	1	2
596.678	1	-5
597.018	1	6
597.358	1	15
597.697	1	-4
598.037	1	-1
598.376	1	9
598.716	1	-5
599.055	1	-4
599.395	1	2
599.734	1	6
600.074	1	1
600.413	1	7
600.753	1	-3
601.092	1	-12
601.432	1	-5
601.771	1	20
602.111	1	-3
602.451	1	-1
602.790	1	7
603.130	1	2
603.469	1	1
603.809	1	-2
604.148	1	3
604.487	1	7
604.827	1	-10
605.166	1	-6
605.506	1	7
605.845	1	9
606.185	1	-3
606.524	1	0
606.864	1	2
607.203	1	3
607.543	1	-5
607.882	1	-8
608.222	1	2
608.561	1	4
608.901	1	11
609.240	1	-1
609.579	1	6
609.919	1	-14
610.258	1	10
610.598	1	2
610.937	1	4
611.277	1	3
611.616	1	-12
611.955	1	0
612.295	1	-4
612.634	1	-2
612.974	1	8
613.313	1	0
613.652	1	6
613.992	1	1
614.331	1	11
614.671	1	7
615.010	1	7
615.349	1	1
615.689	1	11
616.028	1	-1
616.368	1	1
616.707	1	6
617.046	1	-3
617.386	1	2
617.725	1	4
618.064	1	1
618.404	1	8
618.743	1	-2
619.082	1	2
619.422	1	6
619.761	1	-1
620.100	1	1
620.440	1	-3
620.779	1	-9
621.118	1	3
621.458	1	5
621.797	1	-1
622.136	1	5
622.476	1	1
622.815	1	1
623.154	1	-1
623.494	1	2
623.833	1	-2
624.172	1	15
624.511	1	0
624.851	1	-12
625.190	1	6
625.529	1	7
625.869	1	6
626.208	1	2
626.547	1	-4
626.886	1	-5
627.226	1	5
627.565	1	7
627.904	1	2
628.243	1	-9
628.583	1	-1
628.922	1	-10
629.261	1	3
629.600	1	11
629.940	1	1
630.279	1	-4
630.618	1	1
630.957	1	2
631.297	1	-7
631.636	1	-1
631.975	1	8
632.314	1	4
632.653	1	0
632.993	1	5
633.332	1	12
633.671	1	9
634.010	1	3
634.349	1	-7
634.689	1	1
635.028	1	1
635.367	1	4
635.706	1	-1
636.045	1	1
636.384	1	12
636.724	1	-3
637.063	1	3
637.402	1	8
637.741	1	4
638.080	1	3
638.419	1	9
638.759	1	2
639.098	1	4
639.437	1	-5
639.776	1	-1
640.115	1	-5
640.454	1	19
640.793	1	11
641.132	1	13
641.472	1	0
641.811	1	-6
642.150	1	2
642.489	1	0
642.828	1	5
643.167	1	7
643.506	1	-11
643.845	1	9
644.184	1	0
644.524	1	-1
644.863	1	-3
645.202	1	1
645.541	1	-18
645.880	1	7
646.219	1	5
646.558	1	-4
646.897	1	-5
647.236	1	4
647.575	1	1
647.914	1	-4
648.253	1	-1
648.592	1	14
648.931	1	5
649.270	1	10
649.610	1	5
649.949	1	-5
650.288	1	-7
650.627	1	1
650.966	1	-8
651.305	1	-2
651.644	1	-5
651.983	1	1
652.322	1	1
652.661	1	-5
653.000	1	3
653.339	1	6
653.678	1	1
654.017	1	8
654.356	1	5
654.695	1	1
655.034	1	0
655.373	1	4
655.712	1	4
656.051	1	6
656.390	1	1
656.729	1	4
657.068	1	-8
657.406	1	2
657.745	1	0
658.084	1	8
658.423	1	-4
658.762	1	-4
659.101	1	-13
659.440	1	13
659.779	1	0
660.118	1	4
660.457	1	-1
660.796	1	0
661.135	1	-1
661.474	1	3
661.813	1	7
662.152	1	-5
662.491	1	-1
662.829	1	-8
663.168	1	-1
663.507	1	1
663.846	1	10
664.185	1	2
664.524	1	-3
664.863	1	-1
665.202	1	-12
665.541	1	0
665.879	1	6
666.218	1	-2
666.557	1	0
666.896	1	3
667.235	1	-1
667.574	1	0
667.913	1	0
668.251	1	-3
668.590	1	-1
668.929	1	-5
669.268	1	2
669.607	1	-7
669.946	1	12
670.285	1	0
670.623	1	7
670.962	1	4
671.301	1	2
671.640	1	-19
671.979	1	11
672.317	1	-1
672.656	1	-6
672.995	1	6
673.334	1	5
673.673	1	9
674.011	1	6
674.350	1	-6
674.689	1	-1
675.028	1	3
675.367	1	5
675.705	1	-2
676.044	1	0
676.383	1	-4
676.722	1	1
677.060	1	3
677.399	1	-2
677.738	1	-1
678.077	1	11
678.416	1	-4
678.754	1	-5
679.093	1	-8
679.432	1	-3
679.771	1	-3
680.109	1	2
680.448	1	3
680.787	1	2
681.125	1	8
681.464	1	5
681.803	1	-11
682.142	1	9
682.480	1	0
682.819	1	2
683.158	1	1
683.496	1	-4
683.835	1	3
684.174	1	2
684.512	1	2
684.851	1	-1
685.190	1	5
685.529	1	-7
685.867	1	3
686.206	1	0
686.545	1	13
686.883	1	-6
687.222	1	-3
687.561	1	13
687.899	1	1
688.238	1	-2
688.577	1	2
688.746	1	-3