File: Analysis/GaN_68K_200ms/GaN_sample E_spot4_UVVIS_68 K_200um_200 ms 2x2mm1_768.txt
340.368	1	2
340.710	1	-4
341.052	1	4
341.394	1	-2
341.737	1	11
342.079	1	-6
342.421	1	-3
342.763	1	0
343.105	1	4
343.447	1	0
343.789	1	-6
344.131	1	3
344.473	1	-2
344.815	1	3
345.157	1	-1
345.499	1	4
345.841	1	9
346.183	1	2
346.526	1	4
346.868	1	3
347.210	1	-7
347.552	1	-1
347.894	1	-1
348.236	1	-6
348.578	1	-2
348.920	1	10
349.262	1	2
349.604	1	10
349.946	1	3
350.288	1	1
350.630	1	-9
350.972	1	-3
351.314	1	-5
351.656	1	6
351.998	1	-4
352.340	1	1
352.682	1	-1
353.024	1	-9
353.366	1	5
353.708	1	-4
354.050	1	1
354.392	1	5
354.734	1	-4
355.076	1	-3
355.418	1	-12
355.760	1	4
356.102	1	-12
356.444	1	5
356.785	1	9
357.127	1	4
357.469	1	-4
357.811	1	14
358.153	1	0
358.495	1	4
358.837	1	-5
359.179	1	11
359.521	1	-1
359.863	1	-1
360.205	1	-5
360.547	1	-2
360.889	1	6
361.231	1	4
361.572	1	-6
361.914	1	2
362.256	1	5
362.598	1	3
362.940	1	-1
363.282	1	12
363.624	1	5
363.966	1	-2
364.308	1	-4
364.649	1	1
364.991	1	4
365.333	1	6
365.675	1	-6
366.017	1	2
366.359	1	-1
366.701	1	1
367.042	1	7
367.384	1	5
367.726	1	3
368.068	1	-4
368.410	1	-6
368.752	1	-7
369.093	1	-3
369.435	1	-1
369.777	1	-5
370.119	1	3
370.461	1	1
370.803	1	-4
371.144	1	3
371.486	1	2
371.828	1	5
372.170	1	3
372.512	1	-5
372.853	1	-1
373.195	1	-9
373.537	1	6
373.879	1	9
374.220	1	5
374.562	1	-3
374.904	1	-2
375.246	1	-2
375.588	1	-3
375.929	1	4
376.271	1	-5
376.613	1	-2
376.955	1	-10
377.296	1	-2
377.638	1	-14
377.980	1	1
378.321	1	-3
378.663	1	-6
379.005	1	6
379.347	1	1
379.688	1	-4
380.030	1	-7
380.372	1	2
380.714	1	5
381.055	1	2
381.397	1	-2
381.739	1	-3
382.080	1	-10
382.422	1	16
382.764	1	-3
383.105	1	-3
383.447	1	6
383.789	1	9
384.130	1	-9
384.472	1	-4
384.814	1	-1
385.156	1	10
385.497	1	12
385.839	1	3
386.180	1	1
386.522	1	4
386.864	1	2
387.205	1	-2
387.547	1	-9
387.889	1	10
388.230	1	0
388.572	1	6
388.914	1	10
389.255	1	4
389.597	1	0
389.939	1	9
390.280	1	14
390.622	1	-4
390.963	1	13
391.305	1	10
391.647	1	-6
391.988	1	-8
392.330	1	2
392.671	1	8
393.013	1	6
393.355	1	9
393.696	1	11
394.038	1	-4
394.379	1	-2
394.721	1	-5
395.062	1	-5
395.404	1	7
395.746	1	-8
396.087	1	-3
396.429	1	6
396.770	1	8
397.112	1	-2
397.453	1	-7
397.795	1	5
398.136	1	1
398.478	1	-9
398.819	1	9
399.161	1	3
399.503	1	-2
399.844	1	3
400.186	1	11
400.527	1	-1
400.869	1	7
401.210	1	-2
401.552	1	9
401.893	1	3
402.235	1	3
402.576	1	14
402.918	1	-8
403.259	1	-5
403.601	1	-8
403.942	1	7
404.284	1	5
404.625	1	6
404.967	1	7
405.308	1	1
405.649	1	-1
405.991	1	5
406.332	1	-5
406.674	1	8
407.015	1	-10
407.357	1	4
407.698	1	-9
408.040	1	-7
408.381	1	2
408.722	1	1
409.064	1	-3
409.405	1	-6
409.747	1	-4
410.088	1	-1
410.430	1	2
410.771	1	3
411.112	1	6
411.454	1	8
411.795	1	4
412.137	1	2
412.478	1	4
412.819	1	-13
413.161	1	-11
413.502	1	-6
413.844	1	3
414.185	1	1
414.526	1	-4
414.868	1	4
415.209	1	2
415.550	1	-12
415.892	1	2
416.233	1	6
416.575	1	-6
416.916	1	-9
417.257	1	11
417.599	1	-2
417.940	1	-3
418.281	1	4
418.623	1	-3
418.964	1	0
419.305	1	-3
419.647	1	7
419.988	1	1
420.329	1	2
420.671	1	13
421.012	1	11
421.353	1	6
421.695	1	0
422.036	1	-5
422.377	1	1
422.718	1	3
423.060	1	-8
423.401	1	3
423.742	1	5
424.084	1	7
424.425	1	-7
424.766	1	5
425.107	1	4
425.449	1	1
425.790	1	-2
426.131	1	3
426.472	1	-9
426.814	1	11
427.155	1	-1
427.496	1	11
427.837	1	-7
428.179	1	-12
428.520	1	-7
428.861	1	-3
429.202	1	6
429.544	1	4
429.885	1	-10
430.226	1	-5
430.567	1	15
430.909	1	0
431.250	1	-9
431.591	1	3
431.932	1	2
432.273	1	-1
432.615	1	-1
432.956	1	0
433.297	1	4
433.638	1	-4
433.979	1	5
434.320	1	-11
434.662	1	-12
435.003	1	10
435.344	1	6
435.685	1	10
436.026	1	6
436.368	1	-10
436.709	1	-3
437.050	1	4
437.391	1	3
437.732	1	-2
438.073	1	2
438.414	1	-1
438.756	1	2
439.097	1	7
439.438	1	5
439.779	1	-3
440.120	1	-1
440.461	1	-6
440.802	1	5
441.143	1	1
441.485	1	3
441.826	1	-11
442.167	1	7
442.508	1	-6
442.849	1	5
443.190	1	-5
443.531	1	-5
443.872	1	-1
444.213	1	-1
444.554	1	-5
444.895	1	-3
445.237	1	-2
445.578	1	12
445.919	1	1
446.260	1	-2
446.601	1	-11
446.942	1	-3
447.283	1	-5
447.624	1	-2
447.965	1	-7
448.306	1	3
448.647	1	2
448.988	1	-11
449.329	1	-5
449.670	1	4
450.011	1	-5
450.352	1	4
450.693	1	3
451.034	1	0
451.375	1	5
451.716	1	7
452.057	1	8
452.398	1	1
452.739	1	4
453.080	1	11
453.421	1	1
453.762	1	5
454.103	1	-1
454.444	1	10
454.785	1	-11
455.126	1	0
455.467	1	6
455.808	1	1
456.149	1	-2
456.490	1	0
456.831	1	8
457.172	1	-2
457.513	1	16
457.854	1	-9
458.195	1	-12
458.536	1	0
458.877	1	-8
459.218	1	6
459.559	1	-6
459.899	1	4
460.240	1	-2
460.581	1	0
460.922	1	4
461.263	1	8
461.604	1	-3
461.945	1	11
462.286	1	10
462.627	1	-7
462.968	1	-11
463.309	1	-4
463.649	1	-2
463.990	1	4
464.331	1	6
464.672	1	-5
465.013	1	-15
465.354	1	-1
465.695	1	5
466.036	1	2
466.376	1	-3
466.717	1	-9
467.058	1	10
467.399	1	1
467.740	1	0
468.081	1	5
468.422	1	-2
468.762	1	-1
469.103	1	-11
469.444	1	-10
469.785	1	4
470.126	1	1
470.467	1	-2
470.807	1	1
471.148	1	-2
471.489	1	-5
471.830	1	10
472.171	1	2
472.511	1	14
472.852	1	2
473.193	1	-5
473.534	1	-1
473.875	1	0
474.215	1	2
474.556	1	-12
474.897	1	2
475.238	1	-5
475.578	1	-3
475.919	1	-3
476.260	1	-6
476.601	1	-4
476.942	1	-2
477.282	1	-11
477.623	1	10
477.964	1	9
478.305	1	-4
478.645	1	-4
478.986	1	-7
479.327	1	-12
479.667	1	6
480.008	1	10
480.349	1	-2
480.690	1	4
481.030	1	-8
481.371	1	2
481.712	1	15
482.053	1	6
482.393	1	-15
482.734	1	-3
483.075	1	10
483.415	1	5
483.756	1	8
484.097	1	-1
484.437	1	-18
484.778	1	4
485.119	1	1
485.459	1	5
485.800	1	1
486.141	1	-12
486.481	1	1
486.822	1	0
487.163	1	-2
487.503	1	-14
487.844	1	6
488.185	1	-3
488.525	1	-1
488.866	1	9
489.207	1	10
489.547	1	-4
489.888	1	4
490.228	1	-5
490.569	1	10
490.910	1	-6
491.250	1	6
491.591	1	-9
491.932	1	-1
492.272	1	1
492.613	1	4
492.953	1	3
493.294	1	0
493.635	1	1
493.975	1	2
494.316	1	5
494.656	1	2
494.997	1	2
495.337	1	-1
495.678	1	10
496.019	1	1
496.359	1	-4
496.700	1	1
497.040	1	-4
497.381	1	-11
497.721	1	0
498.062	1	2
498.403	1	2
498.743	1	5
499.084	1	-12
499.424	1	6
499.765	1	1
500.105	1	-1
500.446	1	-2
500.786	1	13
501.127	1	12
501.467	1	2
501.808	1	-13
502.148	1	5
502.489	1	3
502.829	1	4
503.170	1	-2
503.510	1	-4
503.851	1	-10
504.191	1	2
504.532	1	-5
504.872	1	2
505.213	1	-6
505.553	1	4
505.894	1	6
506.234	1	7
506.575	1	-6
506.915	1	4
507.256	1	-4
507.596	1	-1
507.936	1	4
508.277	1	-3
508.617	1	2
508.958	1	9
509.298	1	8
509.639	1	3
509.979	1	0
510.319	1	-2
510.660	1	4
511.000	1	1
511.341	1	-13
511.681	1	0
512.022	1	-1
512.362	1	-1
512.702	1	-14
513.043	1	1
513.383	1	-12
513.724	1	12
514.064	1	-3
514.404	1	14
514.745	1	-2
515.085	1	-2
515.425	1	-6
515.766	1	10
516.106	1	-5
516.447	1	-4
516.787	1	4
517.127	1	1
517.468	1	-1
517.808	1	1
518.148	1	0
518.489	1	0
518.829	1	-5
519.169	1	3
519.510	1	0
519.850	1	-4
520.190	1	-4
520.531	1	2
520.871	1	-13
521.211	1	-3
521.552	1	5
521.892	1	-12
522.232	1	-8
522.573	1	-12
522.913	1	0
523.253	1	4
523.593	1	-18
523.934	1	1
524.274	1	-7
524.614	1	-3
524.955	1	-6
525.295	1	-10
525.635	1	13
525.975	1	-2
526.316	1	-6
526.656	1	6
526.996	1	2
527.337	1	-5
527.677	1	10
528.017	1	0
528.357	1	4
528.698	1	-12
529.038	1	1
529.378	1	6
529.718	1	5
530.058	1	-4
530.399	1	12
530.739	1	3
531.079	1	0
531.419	1	1
531.760	1	5
532.100	1	1
532.440	1	0
532.780	1	-3
533.120	1	-3
533.461	1	7
533.801	1	4
534.141	1	3
534.481	1	-6
534.821	1	2
535.162	1	1
535.502	1	10
535.842	1	-1
536.182	1	-3
536.522	1	4
536.862	1	7
537.203	1	9
537.543	1	0
537.883	1	8
538.223	1	3
538.563	1	2
538.903	1	-10
539.243	1	-5
539.584	1	5
539.924	1	0
540.264	1	2
540.604	1	4
540.944	1	-2
541.284	1	-6
541.624	1	-2
541.964	1	2
542.305	1	-2
542.645	1	1
542.985	1	-8
543.325	1	-10
543.665	1	11
544.005	1	-5
544.345	1	-4
544.685	1	3
545.025	1	-4
545.365	1	-2
545.705	1	12
546.045	1	8
546.386	1	-7
546.726	1	3
547.066	1	-8
547.406	1	8
547.746	1	4
548.086	1	7
548.426	1	-5
548.766	1	2
549.106	1	3
549.446	1	-5
549.786	1	2
550.126	1	-12
550.466	1	5
550.806	1	-1
551.146	1	-4
551.486	1	0
551.826	1	4
552.166	1	-2
552.506	1	-8
552.846	1	6
553.186	1	6
553.526	1	-2
553.866	1	11
554.206	1	5
554.546	1	-7
554.886	1	3
555.226	1	-11
555.566	1	2
555.906	1	0
556.246	1	3
556.586	1	12
556.926	1	11
557.266	1	3
557.606	1	-14
557.946	1	5
558.286	1	3
558.626	1	-8
558.966	1	-14
559.306	1	-1
559.646	1	-8
559.986	1	-4
560.325	1	-10
560.665	1	8
561.005	1	1
561.345	1	4
561.685	1	5
562.025	1	-12
562.365	1	0
562.705	1	-6
563.045	1	4
563.385	1	-5
563.725	1	-5
564.064	1	7
564.404	1	3
564.744	1	-5
565.084	1	-10
565.424	1	-3
565.764	1	7
566.104	1	3
566.444	1	10
566.783	1	-5
567.123	1	17
567.463	1	-1
567.803	1	-4
568.143	1	-5
568.483	1	-10
568.823	1	4
569.162	1	3
569.502	1	0
569.842	1	3
570.182	1	-5
570.522	1	6
570.862	1	2
571.201	1	5
571.541	1	2
571.881	1	7
572.221	1	2
572.561	1	-10
572.900	1	14
573.240	1	-14
573.580	1	0
573.920	1	5
574.260	1	-1
574.599	1	-1
574.939	1	-4
575.279	1	4
575.619	1	1
575.959	1	-5
576.298	1	-7
576.638	1	11
576.978	1	4
577.318	1	9
577.657	1	-15
577.997	1	-6
578.337	1	0
578.677	1	-1
579.016	1	2
579.356	1	1
579.696	1	2
580.036	1	-11
580.375	1	-3
580.715	1	8
581.055	1	2
581.394	1	-5
581.734	1	3
582.074	1	-12
582.414	1	-1
582.753	1	-1
583.093	1	-2
583.433	1	-11
583.772	1	1
584.112	1	1
584.452	1	-8
584.791	1	-2
585.131	1	-11
585.471	1	-5
585.811	1	2
586.150	1	6
586.490	1	-13
586.830	1	-3
587.169	1	-2
587.509	1	-1
587.849	1	11
588.188	1	-4
588.528	1	5
588.867	1	7
589.207	1	-5
589.547	1	-7
589.886	1	-9
590.226	1	4
590.566	1	2
590.905	1	8
591.245	1	-6
591.585	1	-14
591.924	1	4
592.264	1	-3
592.603	1	-5
592.943	1	-3
593.283	1	2
593.622	1	-14
593.962	1	11
594.301	1	6
594.641	1	-3
594.981	1	-8
595.320	1	5
595.660	1	-10
595.999	1	5
596.339	1	2
596.678	1	-7
597.018	1	-6
597.358	1	0
597.697	1	-4
598.037	1	2
598.376	1	1
598.716	1	-2
599.055	1	4
599.395	1	4
599.734	1	-6
600.074	1	-1
600.413	1	-2
600.753	1	1
601.092	1	-17
601.432	1	-3
601.771	1	5
602.111	1	-9
602.451	1	0
602.790	1	3
603.130	1	1
603.469	1	0
603.809	1	4
604.148	1	10
604.487	1	-4
604.827	1	-6
605.166	1	-10
605.506	1	13
605.845	1	1
606.185	1	11
606.524	1	-9
606.864	1	1
607.203	1	8
607.543	1	-7
607.882	1	-5
608.222	1	5
608.561	1	5
608.901	1	-2
609.240	1	4
609.579	1	6
609.919	1	-16
610.258	1	13
610.598	1	-1
610.937	1	2
611.277	1	3
611.616	1	-11
611.955	1	-2
612.295	1	-8
612.634	1	6
612.974	1	5
613.313	1	7
613.652	1	-10
613.992	1	4
614.331	1	16
614.671	1	-3
615.010	1	5
615.349	1	1
615.689	1	1
616.028	1	-1
616.368	1	-5
616.707	1	2
617.046	1	0
617.386	1	-8
617.725	1	5
618.064	1	-8
618.404	1	4
618.743	1	-7
619.082	1	-3
619.422	1	-4
619.761	1	2
620.100	1	2
620.440	1	3
620.779	1	-1
621.118	1	-1
621.458	1	-1
621.797	1	1
622.136	1	8
622.476	1	0
622.815	1	-2
623.154	1	-1
623.494	1	0
623.833	1	-1
624.172	1	4
624.511	1	5
624.851	1	-8
625.190	1	2
625.529	1	8
625.869	1	-2
626.208	1	-6
626.547	1	3
626.886	1	-4
627.226	1	3
627.565	1	8
627.904	1	-9
628.243	1	-13
628.583	1	-7
628.922	1	2
629.261	1	-1
629.600	1	-4
629.940	1	0
630.279	1	-6
630.618	1	-2
630.957	1	-6
631.297	1	2
631.636	1	-6
631.975	1	4
632.314	1	9
632.653	1	-10
632.993	1	0
633.332	1	-1
633.671	1	-3
634.010	1	-2
634.349	1	4
634.689	1	3
635.028	1	5
635.367	1	9
635.706	1	-9
636.045	1	-5
636.384	1	15
636.724	1	-10
637.063	1	6
637.402	1	6
637.741	1	14
638.080	1	-2
638.419	1	10
638.759	1	-1
639.098	1	-8
639.437	1	-10
639.776	1	3
640.115	1	-7
640.454	1	7
640.793	1	0
641.132	1	8
641.472	1	1
641.811	1	-1
642.150	1	1
642.489	1	3
642.828	1	1
643.167	1	2
643.506	1	-5
643.845	1	-2
644.184	1	4
644.524	1	-3
644.863	1	-6
645.202	1	1
645.541	1	-5
645.880	1	-2
646.219	1	2
646.558	1	-2
646.897	1	-4
647.236	1	6
647.575	1	1
647.914	1	1
648.253	1	15
648.592	1	-9
648.931	1	2
649.270	1	9
649.610	1	12
649.949	1	-4
650.288	1	-10
650.627	1	-1
650.966	1	-6
651.305	1	-2
651.644	1	-1
651.983	1	1
652.322	1	-1
652.661	1	5
653.000	1	-1
653.339	1	4
653.678	1	-1
654.017	1	4
654.356	1	16
654.695	1	15
655.034	1	3
655.373	1	-5
655.712	1	-9
656.051	1	8
656.390	1	-2
656.729	1	3
657.068	1	-5
657.406	1	5
657.745	1	-10
658.084	1	10
658.423	1	1
658.762	1	-6
659.101	1	-8
659.440	1	15
659.779	1	-2
660.118	1	-4
660.457	1	-3
660.796	1	-1
661.135	1	3
661.474	1	8
661.813	1	0
662.152	1	-2
662.491	1	-5
662.829	1	4
663.168	1	-10
663.507	1	-7
663.846	1	5
664.185	1	-3
664.524	1	-10
664.863	1	3
665.202	1	-2
665.541	1	-9
665.879	1	-4
666.218	1	-5
666.557	1	5
666.896	1	-3
667.235	1	5
667.574	1	8
667.913	1	2
668.251	1	-1
668.590	1	-2
668.929	1	-1
669.268	1	-1
669.607	1	-14
669.946	1	3
670.285	1	2
670.623	1	-1
670.962	1	1
671.301	1	-3
671.640	1	-11
671.979	1	15
672.317	1	-3
672.656	1	5
672.995	1	-2
673.334	1	4
673.673	1	7
674.011	1	8
674.350	1	-5
674.689	1	-7
675.028	1	7
675.367	1	8
675.705	1	-11
676.044	1	-10
676.383	1	-7
676.722	1	-4
677.060	1	11
677.399	1	-2
677.738	1	-8
678.077	1	10
678.416	1	-8
678.754	1	-2
679.093	1	5
679.432	1	-2
679.771	1	1
680.109	1	8
680.448	1	-1
680.787	1	0
681.125	1	-5
681.464	1	-1
681.803	1	-12
682.142	1	12
682.480	1	0
682.819	1	7
683.158	1	-3
683.496	1	-5
683.835	1	4
684.174	1	5
684.512	1	3
684.851	1	-4
685.190	1	11
685.529	1	-10
685.867	1	9
686.206	1	-3
686.545	1	11
686.883	1	-9
687.222	1	-18
687.561	1	7
687.899	1	-1
688.238	1	-2
688.577	1	-2
688.746	1	4