File: Analysis/GaN_68K_200ms/GaN_sample E_spot4_UVVIS_68 K_200um_200 ms 2x2mm1_444.txt
340.368	1	-1
340.710	1	-11
341.052	1	5
341.394	1	-1
341.737	1	8
342.079	1	-7
342.421	1	-3
342.763	1	-7
343.105	1	6
343.447	1	2
343.789	1	-2
344.131	1	-4
344.473	1	1
344.815	1	7
345.157	1	0
345.499	1	-4
345.841	1	7
346.183	1	4
346.526	1	-1
346.868	1	-11
347.210	1	-6
347.552	1	-4
347.894	1	3
348.236	1	3
348.578	1	-3
348.920	1	7
349.262	1	0
349.604	1	20
349.946	1	4
350.288	1	1
350.630	1	-10
350.972	1	0
351.314	1	0
351.656	1	5
351.998	1	-1
352.340	1	-7
352.682	1	-7
353.024	1	-5
353.366	1	10
353.708	1	4
354.050	1	2
354.392	1	17
354.734	1	7
355.076	1	-1
355.418	1	-8
355.760	1	9
356.102	1	-4
356.444	1	-1
356.785	1	13
357.127	1	4
357.469	1	-1
357.811	1	18
358.153	1	-4
358.495	1	14
358.837	1	6
359.179	1	4
359.521	1	1
359.863	1	-4
360.205	1	1
360.547	1	1
360.889	1	-1
361.231	1	2
361.572	1	2
361.914	1	5
362.256	1	6
362.598	1	7
362.940	1	1
363.282	1	0
363.624	1	6
363.966	1	6
364.308	1	-2
364.649	1	7
364.991	1	10
365.333	1	10
365.675	1	-5
366.017	1	0
366.359	1	8
366.701	1	6
367.042	1	7
367.384	1	7
367.726	1	14
368.068	1	3
368.410	1	-2
368.752	1	1
369.093	1	-2
369.435	1	-8
369.777	1	4
370.119	1	7
370.461	1	3
370.803	1	-2
371.144	1	15
371.486	1	18
371.828	1	9
372.170	1	0
372.512	1	3
372.853	1	10
373.195	1	3
373.537	1	5
373.879	1	5
374.220	1	9
374.562	1	11
374.904	1	6
375.246	1	0
375.588	1	4
375.929	1	7
376.271	1	6
376.613	1	9
376.955	1	3
377.296	1	11
377.638	1	1
377.980	1	5
378.321	1	3
378.663	1	-3
379.005	1	9
379.347	1	-3
379.688	1	-2
380.030	1	-1
380.372	1	2
380.714	1	5
381.055	1	2
381.397	1	-8
381.739	1	17
382.080	1	-1
382.422	1	14
382.764	1	2
383.105	1	17
383.447	1	10
383.789	1	-3
384.130	1	0
384.472	1	5
384.814	1	10
385.156	1	19
385.497	1	10
385.839	1	12
386.180	1	7
386.522	1	5
386.864	1	-4
387.205	1	0
387.547	1	3
387.889	1	18
388.230	1	2
388.572	1	6
388.914	1	11
389.255	1	8
389.597	1	-9
389.939	1	13
390.280	1	12
390.622	1	2
390.963	1	11
391.305	1	15
391.647	1	1
391.988	1	4
392.330	1	14
392.671	1	11
393.013	1	7
393.355	1	19
393.696	1	3
394.038	1	6
394.379	1	-6
394.721	1	4
395.062	1	-4
395.404	1	5
395.746	1	7
396.087	1	-4
396.429	1	7
396.770	1	10
397.112	1	9
397.453	1	-6
397.795	1	12
398.136	1	10
398.478	1	-2
398.819	1	14
399.161	1	2
399.503	1	4
399.844	1	4
400.186	1	4
400.527	1	14
400.869	1	9
401.210	1	5
401.552	1	17
401.893	1	3
402.235	1	12
402.576	1	7
402.918	1	0
403.259	1	-2
403.601	1	-5
403.942	1	8
404.284	1	6
404.625	1	10
404.967	1	7
405.308	1	5
405.649	1	9
405.991	1	9
406.332	1	7
406.674	1	1
407.015	1	-5
407.357	1	13
407.698	1	-4
408.040	1	-6
408.381	1	1
408.722	1	-3
409.064	1	6
409.405	1	6
409.747	1	1
410.088	1	8
410.430	1	3
410.771	1	12
411.112	1	7
411.454	1	14
411.795	1	7
412.137	1	11
412.478	1	8
412.819	1	1
413.161	1	0
413.502	1	1
413.844	1	2
414.185	1	6
414.526	1	11
414.868	1	6
415.209	1	-7
415.550	1	-5
415.892	1	0
416.233	1	-3
416.575	1	-1
416.916	1	1
417.257	1	7
417.599	1	6
417.940	1	5
418.281	1	-9
418.623	1	0
418.964	1	4
419.305	1	0
419.647	1	13
419.988	1	-3
420.329	1	2
420.671	1	0
421.012	1	16
421.353	1	6
421.695	1	9
422.036	1	-3
422.377	1	3
422.718	1	6
423.060	1	8
423.401	1	1
423.742	1	7
424.084	1	4
424.425	1	5
424.766	1	14
425.107	1	5
425.449	1	10
425.790	1	-1
426.131	1	3
426.472	1	-2
426.814	1	13
427.155	1	2
427.496	1	14
427.837	1	-8
428.179	1	-2
428.520	1	6
428.861	1	2
429.202	1	8
429.544	1	0
429.885	1	0
430.226	1	-1
430.567	1	5
430.909	1	-9
431.250	1	1
431.591	1	5
431.932	1	6
432.273	1	-5
432.615	1	8
432.956	1	-6
433.297	1	10
433.638	1	-1
433.979	1	4
434.320	1	-3
434.662	1	-3
435.003	1	7
435.344	1	2
435.685	1	8
436.026	1	4
436.368	1	-1
436.709	1	-6
437.050	1	14
437.391	1	-4
437.732	1	2
438.073	1	9
438.414	1	4
438.756	1	6
439.097	1	5
439.438	1	7
439.779	1	6
440.120	1	8
440.461	1	-5
440.802	1	7
441.143	1	6
441.485	1	-4
441.826	1	-2
442.167	1	3
442.508	1	-4
442.849	1	19
443.190	1	-16
443.531	1	1
443.872	1	-1
444.213	1	1
444.554	1	-3
444.895	1	0
445.237	1	-6
445.578	1	6
445.919	1	5
446.260	1	6
446.601	1	-3
446.942	1	10
447.283	1	-5
447.624	1	14
447.965	1	-8
448.306	1	2
448.647	1	22
448.988	1	-3
449.329	1	5
449.670	1	1
450.011	1	9
450.352	1	11
450.693	1	13
451.034	1	5
451.375	1	13
451.716	1	2
452.057	1	9
452.398	1	10
452.739	1	0
453.080	1	6
453.421	1	16
453.762	1	16
454.103	1	1
454.444	1	3
454.785	1	-4
455.126	1	0
455.467	1	2
455.808	1	4
456.149	1	-2
456.490	1	-7
456.831	1	10
457.172	1	10
457.513	1	10
457.854	1	0
458.195	1	-4
458.536	1	8
458.877	1	-3
459.218	1	3
459.559	1	2
459.899	1	16
460.240	1	2
460.581	1	4
460.922	1	1
461.263	1	6
461.604	1	-5
461.945	1	2
462.286	1	12
462.627	1	-2
462.968	1	-7
463.309	1	1
463.649	1	2
463.990	1	5
464.331	1	12
464.672	1	-4
465.013	1	-3
465.354	1	3
465.695	1	10
466.036	1	0
466.376	1	-3
466.717	1	-9
467.058	1	9
467.399	1	1
467.740	1	-2
468.081	1	3
468.422	1	5
468.762	1	-9
469.103	1	-10
469.444	1	1
469.785	1	11
470.126	1	6
470.467	1	-4
470.807	1	4
471.148	1	2
471.489	1	-2
471.830	1	7
472.171	1	-6
472.511	1	14
472.852	1	-5
473.193	1	0
473.534	1	1
473.875	1	15
474.215	1	-1
474.556	1	-18
474.897	1	7
475.238	1	2
475.578	1	10
475.919	1	5
476.260	1	-6
476.601	1	3
476.942	1	-6
477.282	1	-11
477.623	1	3
477.964	1	0
478.305	1	9
478.645	1	-12
478.986	1	1
479.327	1	2
479.667	1	0
480.008	1	5
480.349	1	0
480.690	1	2
481.030	1	3
481.371	1	3
481.712	1	-2
482.053	1	10
482.393	1	-14
482.734	1	-5
483.075	1	0
483.415	1	17
483.756	1	4
484.097	1	-2
484.437	1	-8
484.778	1	4
485.119	1	7
485.459	1	3
485.800	1	6
486.141	1	-2
486.481	1	-1
486.822	1	0
487.163	1	-4
487.503	1	1
487.844	1	5
488.185	1	-3
488.525	1	-1
488.866	1	16
489.207	1	10
489.547	1	-4
489.888	1	-2
490.228	1	-1
490.569	1	13
490.910	1	-12
491.250	1	1
491.591	1	-2
491.932	1	5
492.272	1	8
492.613	1	3
492.953	1	5
493.294	1	10
493.635	1	1
493.975	1	5
494.316	1	8
494.656	1	5
494.997	1	-4
495.337	1	10
495.678	1	8
496.019	1	-4
496.359	1	1
496.700	1	9
497.040	1	3
497.381	1	-10
497.721	1	-4
498.062	1	2
498.403	1	10
498.743	1	1
499.084	1	-1
499.424	1	12
499.765	1	3
500.105	1	7
500.446	1	7
500.786	1	2
501.127	1	3
501.467	1	-1
501.808	1	-6
502.148	1	9
502.489	1	4
502.829	1	3
503.170	1	2
503.510	1	1
503.851	1	-14
504.191	1	-1
504.532	1	3
504.872	1	-3
505.213	1	6
505.553	1	5
505.894	1	8
506.234	1	2
506.575	1	-4
506.915	1	1
507.256	1	-2
507.596	1	-3
507.936	1	9
508.277	1	5
508.617	1	9
508.958	1	9
509.298	1	16
509.639	1	8
509.979	1	4
510.319	1	-7
510.660	1	10
511.000	1	12
511.341	1	-13
511.681	1	-2
512.022	1	-2
512.362	1	-7
512.702	1	-6
513.043	1	9
513.383	1	-1
513.724	1	5
514.064	1	4
514.404	1	1
514.745	1	5
515.085	1	5
515.425	1	1
515.766	1	2
516.106	1	-1
516.447	1	1
516.787	1	3
517.127	1	8
517.468	1	4
517.808	1	-3
518.148	1	-1
518.489	1	-1
518.829	1	-2
519.169	1	11
519.510	1	2
519.850	1	-10
520.190	1	8
520.531	1	9
520.871	1	1
521.211	1	9
521.552	1	3
521.892	1	-2
522.232	1	-5
522.573	1	-3
522.913	1	11
523.253	1	12
523.593	1	0
523.934	1	7
524.274	1	-3
524.614	1	-3
524.955	1	6
525.295	1	-5
525.635	1	11
525.975	1	0
526.316	1	-2
526.656	1	14
526.996	1	11
527.337	1	2
527.677	1	6
528.017	1	-2
528.357	1	11
528.698	1	-3
529.038	1	6
529.378	1	11
529.718	1	2
530.058	1	6
530.399	1	14
530.739	1	-5
531.079	1	10
531.419	1	16
531.760	1	8
532.100	1	4
532.440	1	-8
532.780	1	-1
533.120	1	3
533.461	1	13
533.801	1	10
534.141	1	2
534.481	1	4
534.821	1	3
535.162	1	4
535.502	1	7
535.842	1	5
536.182	1	1
536.522	1	12
536.862	1	16
537.203	1	6
537.543	1	5
537.883	1	5
538.223	1	12
538.563	1	7
538.903	1	-2
539.243	1	-5
539.584	1	10
539.924	1	6
540.264	1	6
540.604	1	9
540.944	1	0
541.284	1	-4
541.624	1	4
541.964	1	4
542.305	1	-1
542.645	1	6
542.985	1	-2
543.325	1	6
543.665	1	11
544.005	1	-1
544.345	1	-6
544.685	1	7
545.025	1	-1
545.365	1	6
545.705	1	13
546.045	1	-1
546.386	1	1
546.726	1	4
547.066	1	-4
547.406	1	9
547.746	1	13
548.086	1	4
548.426	1	-3
548.766	1	7
549.106	1	9
549.446	1	-4
549.786	1	3
550.126	1	-1
550.466	1	-6
550.806	1	14
551.146	1	3
551.486	1	11
551.826	1	9
552.166	1	12
552.506	1	3
552.846	1	11
553.186	1	5
553.526	1	9
553.866	1	3
554.206	1	2
554.546	1	-7
554.886	1	2
555.226	1	-3
555.566	1	11
555.906	1	5
556.246	1	-4
556.586	1	13
556.926	1	5
557.266	1	2
557.606	1	-3
557.946	1	11
558.286	1	16
558.626	1	1
558.966	1	-1
559.306	1	-4
559.646	1	3
559.986	1	-11
560.325	1	-6
560.665	1	3
561.005	1	4
561.345	1	-2
561.685	1	5
562.025	1	-7
562.365	1	7
562.705	1	10
563.045	1	7
563.385	1	1
563.725	1	2
564.064	1	9
564.404	1	1
564.744	1	14
565.084	1	-1
565.424	1	-7
565.764	1	17
566.104	1	5
566.444	1	7
566.783	1	2
567.123	1	7
567.463	1	6
567.803	1	-10
568.143	1	-2
568.483	1	-4
568.823	1	9
569.162	1	2
569.502	1	-3
569.842	1	10
570.182	1	1
570.522	1	0
570.862	1	1
571.201	1	8
571.541	1	1
571.881	1	4
572.221	1	14
572.561	1	-10
572.900	1	11
573.240	1	3
573.580	1	5
573.920	1	-5
574.260	1	-3
574.599	1	1
574.939	1	1
575.279	1	8
575.619	1	6
575.959	1	-12
576.298	1	-6
576.638	1	1
576.978	1	7
577.318	1	9
577.657	1	-6
577.997	1	-2
578.337	1	5
578.677	1	1
579.016	1	7
579.356	1	2
579.696	1	5
580.036	1	-1
580.375	1	-8
580.715	1	7
581.055	1	-1
581.394	1	-3
581.734	1	3
582.074	1	-7
582.414	1	-3
582.753	1	7
583.093	1	-1
583.433	1	-13
583.772	1	9
584.112	1	-1
584.452	1	5
584.791	1	-1
585.131	1	-4
585.471	1	-3
585.811	1	1
586.150	1	5
586.490	1	0
586.830	1	-11
587.169	1	-7
587.509	1	-2
587.849	1	8
588.188	1	1
588.528	1	3
588.867	1	8
589.207	1	-3
589.547	1	-1
589.886	1	-7
590.226	1	4
590.566	1	3
590.905	1	2
591.245	1	3
591.585	1	-4
591.924	1	-2
592.264	1	-1
592.603	1	6
592.943	1	-4
593.283	1	5
593.622	1	-3
593.962	1	6
594.301	1	11
594.641	1	-5
594.981	1	-2
595.320	1	9
595.660	1	-6
595.999	1	2
596.339	1	-3
596.678	1	3
597.018	1	6
597.358	1	1
597.697	1	-4
598.037	1	-4
598.376	1	4
598.716	1	-6
599.055	1	2
599.395	1	6
599.734	1	5
600.074	1	2
600.413	1	0
600.753	1	5
601.092	1	-9
601.432	1	0
601.771	1	3
602.111	1	-2
602.451	1	13
602.790	1	1
603.130	1	1
603.469	1	1
603.809	1	-2
604.148	1	-1
604.487	1	2
604.827	1	-8
605.166	1	-5
605.506	1	7
605.845	1	-2
606.185	1	-8
606.524	1	-9
606.864	1	9
607.203	1	3
607.543	1	6
607.882	1	-2
608.222	1	0
608.561	1	1
608.901	1	4
609.240	1	-3
609.579	1	5
609.919	1	-2
610.258	1	10
610.598	1	7
610.937	1	3
611.277	1	4
611.616	1	-4
611.955	1	-2
612.295	1	-1
612.634	1	5
612.974	1	10
613.313	1	11
613.652	1	4
613.992	1	6
614.331	1	-5
614.671	1	7
615.010	1	7
615.349	1	4
615.689	1	-1
616.028	1	-3
616.368	1	-6
616.707	1	2
617.046	1	5
617.386	1	7
617.725	1	1
618.064	1	6
618.404	1	0
618.743	1	2
619.082	1	1
619.422	1	2
619.761	1	-4
620.100	1	2
620.440	1	12
620.779	1	-4
621.118	1	-2
621.458	1	11
621.797	1	3
622.136	1	-1
622.476	1	10
622.815	1	-5
623.154	1	4
623.494	1	-5
623.833	1	3
624.172	1	17
624.511	1	2
624.851	1	-4
625.190	1	2
625.529	1	-5
625.869	1	1
626.208	1	-1
626.547	1	-2
626.886	1	-2
627.226	1	4
627.565	1	3
627.904	1	4
628.243	1	-2
628.583	1	5
628.922	1	2
629.261	1	10
629.600	1	6
629.940	1	0
630.279	1	-2
630.618	1	1
630.957	1	-9
631.297	1	-6
631.636	1	-9
631.975	1	-1
632.314	1	15
632.653	1	-2
632.993	1	11
633.332	1	17
633.671	1	9
634.010	1	7
634.349	1	2
634.689	1	17
635.028	1	-6
635.367	1	-1
635.706	1	2
636.045	1	-2
636.384	1	10
636.724	1	1
637.063	1	5
637.402	1	10
637.741	1	2
638.080	1	2
638.419	1	8
638.759	1	0
639.098	1	-1
639.437	1	-10
639.776	1	5
640.115	1	3
640.454	1	8
640.793	1	8
641.132	1	13
641.472	1	-4
641.811	1	4
642.150	1	-8
642.489	1	-1
642.828	1	-1
643.167	1	7
643.506	1	-9
643.845	1	4
644.184	1	6
644.524	1	-3
644.863	1	1
645.202	1	6
645.541	1	-8
645.880	1	7
646.219	1	2
646.558	1	-2
646.897	1	0
647.236	1	2
647.575	1	0
647.914	1	0
648.253	1	-2
648.592	1	2
648.931	1	5
649.270	1	14
649.610	1	9
649.949	1	-1
650.288	1	1
650.627	1	8
650.966	1	5
651.305	1	-8
651.644	1	-7
651.983	1	6
652.322	1	16
652.661	1	3
653.000	1	1
653.339	1	9
653.678	1	0
654.017	1	2
654.356	1	10
654.695	1	6
655.034	1	0
655.373	1	4
655.712	1	-1
656.051	1	10
656.390	1	-2
656.729	1	7
657.068	1	-5
657.406	1	5
657.745	1	-7
658.084	1	2
658.423	1	-9
658.762	1	-4
659.101	1	-7
659.440	1	4
659.779	1	-3
660.118	1	7
660.457	1	-3
660.796	1	-5
661.135	1	9
661.474	1	-3
661.813	1	-4
662.152	1	10
662.491	1	1
662.829	1	2
663.168	1	-6
663.507	1	-4
663.846	1	-4
664.185	1	-6
664.524	1	-10
664.863	1	1
665.202	1	-11
665.541	1	2
665.879	1	6
666.218	1	-7
666.557	1	1
666.896	1	-6
667.235	1	-1
667.574	1	0
667.913	1	1
668.251	1	-1
668.590	1	-7
668.929	1	8
669.268	1	2
669.607	1	-8
669.946	1	9
670.285	1	-3
670.623	1	0
670.962	1	2
671.301	1	-1
671.640	1	-16
671.979	1	16
672.317	1	-3
672.656	1	5
672.995	1	12
673.334	1	5
673.673	1	8
674.011	1	12
674.350	1	-6
674.689	1	-1
675.028	1	7
675.367	1	-3
675.705	1	-13
676.044	1	-3
676.383	1	-7
676.722	1	8
677.060	1	8
677.399	1	-8
677.738	1	3
678.077	1	3
678.416	1	-1
678.754	1	0
679.093	1	10
679.432	1	-6
679.771	1	2
680.109	1	2
680.448	1	1
680.787	1	3
681.125	1	5
681.464	1	-6
681.803	1	-12
682.142	1	8
682.480	1	-5
682.819	1	-4
683.158	1	2
683.496	1	1
683.835	1	8
684.174	1	-6
684.512	1	-3
684.851	1	-1
685.190	1	5
685.529	1	2
685.867	1	0
686.206	1	-4
686.545	1	14
686.883	1	-7
687.222	1	-1
687.561	1	-9
687.899	1	-6
688.238	1	-9
688.577	1	-2
688.746	1	13