File: Analysis/GaN_68K_200ms/GaN_sample E_spot4_UVVIS_68 K_200um_200 ms 2x2mm1_572.txt
340.368	1	3
340.710	1	-6
341.052	1	0
341.394	1	-8
341.737	1	6
342.079	1	-8
342.421	1	-6
342.763	1	-1
343.105	1	12
343.447	1	0
343.789	1	0
344.131	1	4
344.473	1	-1
344.815	1	14
345.157	1	5
345.499	1	2
345.841	1	6
346.183	1	-2
346.526	1	1
346.868	1	0
347.210	1	0
347.552	1	-8
347.894	1	3
348.236	1	5
348.578	1	1
348.920	1	7
349.262	1	-3
349.604	1	8
349.946	1	5
350.288	1	-6
350.630	1	-11
350.972	1	0
351.314	1	0
351.656	1	6
351.998	1	-1
352.340	1	3
352.682	1	-6
353.024	1	-18
353.366	1	6
353.708	1	1
354.050	1	5
354.392	1	6
354.734	1	-1
355.076	1	5
355.418	1	4
355.760	1	12
356.102	1	-3
356.444	1	0
356.785	1	0
357.127	1	10
357.469	1	2
357.811	1	18
358.153	1	3
358.495	1	7
358.837	1	-8
359.179	1	5
359.521	1	1
359.863	1	1
360.205	1	-2
360.547	1	4
360.889	1	4
361.231	1	6
361.572	1	-13
361.914	1	-7
362.256	1	14
362.598	1	-2
362.940	1	-3
363.282	1	4
363.624	1	7
363.966	1	3
364.308	1	-7
364.649	1	-5
364.991	1	3
365.333	1	2
365.675	1	0
366.017	1	6
366.359	1	5
366.701	1	-3
367.042	1	6
367.384	1	8
367.726	1	14
368.068	1	4
368.410	1	-1
368.752	1	-4
369.093	1	4
369.435	1	-1
369.777	1	-4
370.119	1	6
370.461	1	-1
370.803	1	-2
371.144	1	11
371.486	1	7
371.828	1	-1
372.170	1	0
372.512	1	-1
372.853	1	8
373.195	1	-8
373.537	1	4
373.879	1	13
374.220	1	2
374.562	1	-1
374.904	1	-4
375.246	1	7
375.588	1	5
375.929	1	0
376.271	1	5
376.613	1	10
376.955	1	-6
377.296	1	11
377.638	1	-6
377.980	1	-1
378.321	1	1
378.663	1	2
379.005	1	9
379.347	1	12
379.688	1	-6
380.030	1	-14
380.372	1	5
380.714	1	-1
381.055	1	-4
381.397	1	-1
381.739	1	9
382.080	1	-13
382.422	1	9
382.764	1	4
383.105	1	-3
383.447	1	4
383.789	1	13
384.130	1	-7
384.472	1	-2
384.814	1	2
385.156	1	9
385.497	1	5
385.839	1	4
386.180	1	4
386.522	1	10
386.864	1	-7
387.205	1	-8
387.547	1	2
387.889	1	10
388.230	1	-4
388.572	1	0
388.914	1	1
389.255	1	11
389.597	1	-7
389.939	1	9
390.280	1	8
390.622	1	2
390.963	1	3
391.305	1	11
391.647	1	3
391.988	1	1
392.330	1	15
392.671	1	14
393.013	1	12
393.355	1	11
393.696	1	-5
394.038	1	-2
394.379	1	-1
394.721	1	13
395.062	1	0
395.404	1	1
395.746	1	-2
396.087	1	-3
396.429	1	16
396.770	1	4
397.112	1	-2
397.453	1	-16
397.795	1	7
398.136	1	8
398.478	1	-6
398.819	1	6
399.161	1	2
399.503	1	5
399.844	1	0
400.186	1	7
400.527	1	9
400.869	1	15
401.210	1	-6
401.552	1	11
401.893	1	8
402.235	1	5
402.576	1	13
402.918	1	-8
403.259	1	-4
403.601	1	-6
403.942	1	6
404.284	1	0
404.625	1	9
404.967	1	6
405.308	1	-1
405.649	1	-2
405.991	1	10
406.332	1	-5
406.674	1	9
407.015	1	-8
407.357	1	6
407.698	1	-10
408.040	1	4
408.381	1	4
408.722	1	0
409.064	1	-4
409.405	1	1
409.747	1	0
410.088	1	-1
410.430	1	10
410.771	1	12
411.112	1	12
411.454	1	13
411.795	1	3
412.137	1	8
412.478	1	1
412.819	1	-6
413.161	1	-8
413.502	1	3
413.844	1	-5
414.185	1	6
414.526	1	1
414.868	1	18
415.209	1	1
415.550	1	-11
415.892	1	-2
416.233	1	0
416.575	1	-5
416.916	1	-1
417.257	1	7
417.599	1	1
417.940	1	5
418.281	1	0
418.623	1	-3
418.964	1	-5
419.305	1	0
419.647	1	7
419.988	1	-1
420.329	1	3
420.671	1	-4
421.012	1	12
421.353	1	7
421.695	1	4
422.036	1	-3
422.377	1	6
422.718	1	-4
423.060	1	-3
423.401	1	7
423.742	1	-1
424.084	1	0
424.425	1	-7
424.766	1	-4
425.107	1	-4
425.449	1	6
425.790	1	-4
426.131	1	7
426.472	1	-5
426.814	1	4
427.155	1	0
427.496	1	18
427.837	1	0
428.179	1	-5
428.520	1	-12
428.861	1	5
429.202	1	4
429.544	1	1
429.885	1	-4
430.226	1	-1
430.567	1	9
430.909	1	-7
431.250	1	-4
431.591	1	-2
431.932	1	8
432.273	1	4
432.615	1	7
432.956	1	0
433.297	1	9
433.638	1	-1
433.979	1	3
434.320	1	-11
434.662	1	-1
435.003	1	8
435.344	1	5
435.685	1	11
436.026	1	2
436.368	1	-6
436.709	1	-11
437.050	1	6
437.391	1	-3
437.732	1	-1
438.073	1	16
438.414	1	-3
438.756	1	4
439.097	1	9
439.438	1	2
439.779	1	-9
440.120	1	-1
440.461	1	-1
440.802	1	-2
441.143	1	3
441.485	1	-6
441.826	1	0
442.167	1	-5
442.508	1	-12
442.849	1	4
443.190	1	-7
443.531	1	2
443.872	1	3
444.213	1	-8
444.554	1	-1
444.895	1	2
445.237	1	-5
445.578	1	7
445.919	1	-1
446.260	1	-2
446.601	1	2
446.942	1	-5
447.283	1	-1
447.624	1	9
447.965	1	-14
448.306	1	-4
448.647	1	12
448.988	1	-8
449.329	1	2
449.670	1	10
450.011	1	2
450.352	1	10
450.693	1	6
451.034	1	-2
451.375	1	5
451.716	1	10
452.057	1	8
452.398	1	-1
452.739	1	-9
453.080	1	12
453.421	1	3
453.762	1	2
454.103	1	8
454.444	1	13
454.785	1	-5
455.126	1	-5
455.467	1	8
455.808	1	-2
456.149	1	-2
456.490	1	3
456.831	1	-2
457.172	1	-5
457.513	1	6
457.854	1	3
458.195	1	1
458.536	1	12
458.877	1	4
459.218	1	6
459.559	1	0
459.899	1	9
460.240	1	0
460.581	1	7
460.922	1	-2
461.263	1	-3
461.604	1	0
461.945	1	6
462.286	1	9
462.627	1	-7
462.968	1	-1
463.309	1	6
463.649	1	4
463.990	1	-8
464.331	1	8
464.672	1	5
465.013	1	-2
465.354	1	4
465.695	1	6
466.036	1	1
466.376	1	-4
466.717	1	-5
467.058	1	11
467.399	1	5
467.740	1	2
468.081	1	-8
468.422	1	7
468.762	1	-6
469.103	1	-6
469.444	1	-6
469.785	1	3
470.126	1	2
470.467	1	-8
470.807	1	-3
471.148	1	-5
471.489	1	1
471.830	1	13
472.171	1	2
472.511	1	10
472.852	1	-9
473.193	1	-10
473.534	1	0
473.875	1	4
474.215	1	-9
474.556	1	-6
474.897	1	5
475.238	1	0
475.578	1	3
475.919	1	3
476.260	1	4
476.601	1	2
476.942	1	6
477.282	1	-9
477.623	1	2
477.964	1	7
478.305	1	1
478.645	1	-2
478.986	1	5
479.327	1	-9
479.667	1	2
480.008	1	7
480.349	1	10
480.690	1	9
481.030	1	7
481.371	1	5
481.712	1	-3
482.053	1	14
482.393	1	-14
482.734	1	-1
483.075	1	5
483.415	1	-1
483.756	1	8
484.097	1	-8
484.437	1	-5
484.778	1	5
485.119	1	11
485.459	1	9
485.800	1	-2
486.141	1	-17
486.481	1	-1
486.822	1	-1
487.163	1	-11
487.503	1	-4
487.844	1	5
488.185	1	-2
488.525	1	-4
488.866	1	9
489.207	1	6
489.547	1	-4
489.888	1	-9
490.228	1	-8
490.569	1	4
490.910	1	4
491.250	1	2
491.591	1	-5
491.932	1	12
492.272	1	11
492.613	1	11
492.953	1	7
493.294	1	3
493.635	1	3
493.975	1	-1
494.316	1	14
494.656	1	0
494.997	1	-13
495.337	1	8
495.678	1	7
496.019	1	1
496.359	1	-5
496.700	1	-2
497.040	1	-2
497.381	1	-20
497.721	1	-1
498.062	1	0
498.403	1	5
498.743	1	1
499.084	1	-12
499.424	1	16
499.765	1	-5
500.105	1	3
500.446	1	8
500.786	1	-2
501.127	1	5
501.467	1	6
501.808	1	-11
502.148	1	2
502.489	1	6
502.829	1	-1
503.170	1	6
503.510	1	-5
503.851	1	-14
504.191	1	4
504.532	1	-3
504.872	1	-6
505.213	1	-1
505.553	1	7
505.894	1	5
506.234	1	3
506.575	1	-1
506.915	1	0
507.256	1	3
507.596	1	3
507.936	1	5
508.277	1	-7
508.617	1	12
508.958	1	8
509.298	1	17
509.639	1	9
509.979	1	1
510.319	1	1
510.660	1	4
511.000	1	14
511.341	1	-3
511.681	1	-1
512.022	1	-9
512.362	1	10
512.702	1	-1
513.043	1	8
513.383	1	-7
513.724	1	4
514.064	1	-4
514.404	1	-2
514.745	1	-6
515.085	1	-5
515.425	1	-4
515.766	1	-1
516.106	1	3
516.447	1	2
516.787	1	5
517.127	1	5
517.468	1	4
517.808	1	8
518.148	1	-4
518.489	1	-5
518.829	1	-5
519.169	1	9
519.510	1	2
519.850	1	-1
520.190	1	-1
520.531	1	1
520.871	1	-1
521.211	1	-1
521.552	1	6
521.892	1	-9
522.232	1	-5
522.573	1	3
522.913	1	1
523.253	1	11
523.593	1	-12
523.934	1	3
524.274	1	1
524.614	1	7
524.955	1	-10
525.295	1	1
525.635	1	13
525.975	1	-6
526.316	1	-4
526.656	1	9
526.996	1	6
527.337	1	1
527.677	1	13
528.017	1	-6
528.357	1	2
528.698	1	-4
529.038	1	-1
529.378	1	0
529.718	1	10
530.058	1	8
530.399	1	5
530.739	1	-1
531.079	1	11
531.419	1	3
531.760	1	10
532.100	1	-3
532.440	1	6
532.780	1	6
533.120	1	-2
533.461	1	7
533.801	1	14
534.141	1	4
534.481	1	7
534.821	1	6
535.162	1	5
535.502	1	-2
535.842	1	-4
536.182	1	-2
536.522	1	-1
536.862	1	13
537.203	1	8
537.543	1	-1
537.883	1	10
538.223	1	10
538.563	1	5
538.903	1	-1
539.243	1	-1
539.584	1	7
539.924	1	1
540.264	1	-1
540.604	1	8
540.944	1	-8
541.284	1	-5
541.624	1	4
541.964	1	2
542.305	1	-3
542.645	1	-1
542.985	1	0
543.325	1	0
543.665	1	5
544.005	1	-5
544.345	1	-8
544.685	1	9
545.025	1	-2
545.365	1	8
545.705	1	1
546.045	1	16
546.386	1	0
546.726	1	2
547.066	1	-10
547.406	1	12
547.746	1	1
548.086	1	6
548.426	1	-2
548.766	1	4
549.106	1	7
549.446	1	0
549.786	1	9
550.126	1	-2
550.466	1	3
550.806	1	16
551.146	1	-6
551.486	1	10
551.826	1	0
552.166	1	-2
552.506	1	-4
552.846	1	3
553.186	1	-5
553.526	1	0
553.866	1	4
554.206	1	6
554.546	1	-5
554.886	1	1
555.226	1	-11
555.566	1	5
555.906	1	10
556.246	1	4
556.586	1	10
556.926	1	3
557.266	1	13
557.606	1	-2
557.946	1	8
558.286	1	0
558.626	1	6
558.966	1	-3
559.306	1	0
559.646	1	0
559.986	1	-8
560.325	1	-8
560.665	1	4
561.005	1	5
561.345	1	-1
561.685	1	1
562.025	1	-8
562.365	1	5
562.705	1	2
563.045	1	2
563.385	1	-10
563.725	1	3
564.064	1	6
564.404	1	1
564.744	1	4
565.084	1	-8
565.424	1	-4
565.764	1	16
566.104	1	-4
566.444	1	7
566.783	1	-3
567.123	1	17
567.463	1	-3
567.803	1	-7
568.143	1	-6
568.483	1	0
568.823	1	12
569.162	1	9
569.502	1	0
569.842	1	-5
570.182	1	-6
570.522	1	13
570.862	1	4
571.201	1	-1
571.541	1	-7
571.881	1	8
572.221	1	2
572.561	1	5
572.900	1	4
573.240	1	-7
573.580	1	-6
573.920	1	1
574.260	1	5
574.599	1	-2
574.939	1	-9
575.279	1	2
575.619	1	2
575.959	1	-15
576.298	1	-1
576.638	1	-6
576.978	1	-5
577.318	1	0
577.657	1	-11
577.997	1	-2
578.337	1	3
578.677	1	0
579.016	1	11
579.356	1	-5
579.696	1	7
580.036	1	-1
580.375	1	-1
580.715	1	9
581.055	1	12
581.394	1	-2
581.734	1	11
582.074	1	-4
582.414	1	7
582.753	1	2
583.093	1	1
583.433	1	-10
583.772	1	2
584.112	1	5
584.452	1	-3
584.791	1	-2
585.131	1	-5
585.471	1	1
585.811	1	-6
586.150	1	1
586.490	1	-1
586.830	1	-5
587.169	1	2
587.509	1	-4
587.849	1	8
588.188	1	2
588.528	1	7
588.867	1	9
589.207	1	-3
589.547	1	-10
589.886	1	-7
590.226	1	9
590.566	1	-4
590.905	1	3
591.245	1	-6
591.585	1	3
591.924	1	-5
592.264	1	5
592.603	1	-9
592.943	1	0
593.283	1	15
593.622	1	-2
593.962	1	6
594.301	1	14
594.641	1	-6
594.981	1	-1
595.320	1	9
595.660	1	-5
595.999	1	3
596.339	1	5
596.678	1	-2
597.018	1	1
597.358	1	4
597.697	1	-4
598.037	1	6
598.376	1	9
598.716	1	-4
599.055	1	4
599.395	1	8
599.734	1	6
600.074	1	-4
600.413	1	-6
600.753	1	8
601.092	1	-6
601.432	1	3
601.771	1	6
602.111	1	-11
602.451	1	7
602.790	1	9
603.130	1	9
603.469	1	2
603.809	1	11
604.148	1	2
604.487	1	2
604.827	1	-17
605.166	1	0
605.506	1	4
605.845	1	-3
606.185	1	-6
606.524	1	-12
606.864	1	1
607.203	1	5
607.543	1	-1
607.882	1	-1
608.222	1	10
608.561	1	10
608.901	1	5
609.240	1	-1
609.579	1	2
609.919	1	-4
610.258	1	3
610.598	1	6
610.937	1	0
611.277	1	7
611.616	1	-7
611.955	1	4
612.295	1	-3
612.634	1	-1
612.974	1	0
613.313	1	8
613.652	1	-6
613.992	1	-1
614.331	1	-2
614.671	1	-2
615.010	1	8
615.349	1	5
615.689	1	-2
616.028	1	-6
616.368	1	1
616.707	1	-5
617.046	1	6
617.386	1	-2
617.725	1	2
618.064	1	6
618.404	1	13
618.743	1	1
619.082	1	1
619.422	1	-9
619.761	1	-1
620.100	1	5
620.440	1	-11
620.779	1	-7
621.118	1	-12
621.458	1	21
621.797	1	6
622.136	1	0
622.476	1	-1
622.815	1	-4
623.154	1	2
623.494	1	7
623.833	1	-8
624.172	1	15
624.511	1	-5
624.851	1	-12
625.190	1	2
625.529	1	-2
625.869	1	0
626.208	1	2
626.547	1	6
626.886	1	-5
627.226	1	3
627.565	1	7
627.904	1	6
628.243	1	-9
628.583	1	-5
628.922	1	2
629.261	1	3
629.600	1	1
629.940	1	6
630.279	1	-7
630.618	1	-7
630.957	1	-8
631.297	1	-1
631.636	1	-3
631.975	1	6
632.314	1	9
632.653	1	-2
632.993	1	-2
633.332	1	3
633.671	1	2
634.010	1	4
634.349	1	6
634.689	1	3
635.028	1	4
635.367	1	-10
635.706	1	-7
636.045	1	5
636.384	1	5
636.724	1	-4
637.063	1	3
637.402	1	-4
637.741	1	13
638.080	1	3
638.419	1	3
638.759	1	-2
639.098	1	8
639.437	1	3
639.776	1	6
640.115	1	-11
640.454	1	18
640.793	1	1
641.132	1	8
641.472	1	-1
641.811	1	1
642.150	1	-4
642.489	1	0
642.828	1	-1
643.167	1	6
643.506	1	-1
643.845	1	1
644.184	1	12
644.524	1	-6
644.863	1	6
645.202	1	4
645.541	1	-5
645.880	1	7
646.219	1	8
646.558	1	5
646.897	1	0
647.236	1	-2
647.575	1	-1
647.914	1	-1
648.253	1	6
648.592	1	4
648.931	1	14
649.270	1	7
649.610	1	13
649.949	1	-4
650.288	1	2
650.627	1	-4
650.966	1	-6
651.305	1	-2
651.644	1	1
651.983	1	-2
652.322	1	-1
652.661	1	9
653.000	1	-4
653.339	1	3
653.678	1	4
654.017	1	-4
654.356	1	-5
654.695	1	1
655.034	1	3
655.373	1	3
655.712	1	4
656.051	1	13
656.390	1	5
656.729	1	9
657.068	1	4
657.406	1	10
657.745	1	-1
658.084	1	1
658.423	1	-6
658.762	1	-5
659.101	1	5
659.440	1	6
659.779	1	5
660.118	1	-3
660.457	1	0
660.796	1	-2
661.135	1	7
661.474	1	-2
661.813	1	0
662.152	1	-2
662.491	1	-3
662.829	1	-6
663.168	1	-5
663.507	1	1
663.846	1	-4
664.185	1	6
664.524	1	-14
664.863	1	-1
665.202	1	-10
665.541	1	-2
665.879	1	-7
666.218	1	-7
666.557	1	1
666.896	1	-3
667.235	1	7
667.574	1	4
667.913	1	4
668.251	1	2
668.590	1	-13
668.929	1	4
669.268	1	0
669.607	1	-2
669.946	1	1
670.285	1	8
670.623	1	3
670.962	1	-11
671.301	1	-2
671.640	1	-9
671.979	1	13
672.317	1	-7
672.656	1	6
672.995	1	-12
673.334	1	5
673.673	1	17
674.011	1	14
674.350	1	2
674.689	1	-5
675.028	1	-5
675.367	1	3
675.705	1	-3
676.044	1	3
676.383	1	1
676.722	1	2
677.060	1	-2
677.399	1	7
677.738	1	-3
678.077	1	5
678.416	1	-4
678.754	1	-1
679.093	1	-3
679.432	1	4
679.771	1	-5
680.109	1	2
680.448	1	2
680.787	1	8
681.125	1	5
681.464	1	-3
681.803	1	-1
682.142	1	16
682.480	1	5
682.819	1	1
683.158	1	4
683.496	1	0
683.835	1	9
684.174	1	9
684.512	1	3
684.851	1	-1
685.190	1	8
685.529	1	-6
685.867	1	3
686.206	1	2
686.545	1	7
686.883	1	2
687.222	1	-4
687.561	1	8
687.899	1	-1
688.238	1	6
688.577	1	-4
688.746	1	1