File: Analysis/GaN_68K_200ms/GaN_sample E_spot4_UVVIS_68 K_200um_200 ms 2x2mm1_830.txt
340.368	1	4
340.710	1	-10
341.052	1	3
341.394	1	3
341.737	1	4
342.079	1	-8
342.421	1	-9
342.763	1	-3
343.105	1	12
343.447	1	3
343.789	1	3
344.131	1	-14
344.473	1	-4
344.815	1	-2
345.157	1	7
345.499	1	8
345.841	1	5
346.183	1	-2
346.526	1	2
346.868	1	0
347.210	1	-4
347.552	1	-3
347.894	1	-3
348.236	1	-4
348.578	1	1
348.920	1	4
349.262	1	4
349.604	1	9
349.946	1	6
350.288	1	-5
350.630	1	-9
350.972	1	-3
351.314	1	0
351.656	1	3
351.998	1	2
352.340	1	0
352.682	1	3
353.024	1	-2
353.366	1	2
353.708	1	2
354.050	1	0
354.392	1	5
354.734	1	-8
355.076	1	4
355.418	1	-3
355.760	1	2
356.102	1	-4
356.444	1	9
356.785	1	12
357.127	1	-4
357.469	1	-6
357.811	1	11
358.153	1	9
358.495	1	6
358.837	1	2
359.179	1	3
359.521	1	3
359.863	1	-3
360.205	1	-10
360.547	1	-7
360.889	1	1
361.231	1	2
361.572	1	-10
361.914	1	-7
362.256	1	0
362.598	1	-3
362.940	1	2
363.282	1	-4
363.624	1	0
363.966	1	2
364.308	1	-2
364.649	1	1
364.991	1	3
365.333	1	5
365.675	1	-7
366.017	1	-2
366.359	1	2
366.701	1	-4
367.042	1	8
367.384	1	5
367.726	1	0
368.068	1	-2
368.410	1	-1
368.752	1	-12
369.093	1	-2
369.435	1	-2
369.777	1	-6
370.119	1	2
370.461	1	-2
370.803	1	-4
371.144	1	5
371.486	1	7
371.828	1	3
372.170	1	8
372.512	1	-8
372.853	1	-7
373.195	1	-9
373.537	1	7
373.879	1	10
374.220	1	1
374.562	1	-6
374.904	1	2
375.246	1	-14
375.588	1	-1
375.929	1	13
376.271	1	-2
376.613	1	-4
376.955	1	-5
377.296	1	15
377.638	1	4
377.980	1	2
378.321	1	2
378.663	1	-5
379.005	1	5
379.347	1	-3
379.688	1	7
380.030	1	-3
380.372	1	0
380.714	1	-11
381.055	1	-9
381.397	1	-6
381.739	1	5
382.080	1	-6
382.422	1	9
382.764	1	-9
383.105	1	-7
383.447	1	2
383.789	1	2
384.130	1	-9
384.472	1	-5
384.814	1	3
385.156	1	9
385.497	1	16
385.839	1	6
386.180	1	-3
386.522	1	3
386.864	1	1
387.205	1	-4
387.547	1	-3
387.889	1	4
388.230	1	-9
388.572	1	0
388.914	1	1
389.255	1	9
389.597	1	-2
389.939	1	13
390.280	1	7
390.622	1	-5
390.963	1	1
391.305	1	8
391.647	1	7
391.988	1	-4
392.330	1	8
392.671	1	12
393.013	1	12
393.355	1	5
393.696	1	-3
394.038	1	-7
394.379	1	-5
394.721	1	3
395.062	1	0
395.404	1	9
395.746	1	6
396.087	1	5
396.429	1	7
396.770	1	-1
397.112	1	-2
397.453	1	-10
397.795	1	4
398.136	1	-4
398.478	1	-2
398.819	1	2
399.161	1	4
399.503	1	7
399.844	1	-6
400.186	1	14
400.527	1	-1
400.869	1	11
401.210	1	-5
401.552	1	8
401.893	1	1
402.235	1	12
402.576	1	4
402.918	1	-6
403.259	1	-5
403.601	1	-11
403.942	1	8
404.284	1	-6
404.625	1	0
404.967	1	4
405.308	1	6
405.649	1	0
405.991	1	-3
406.332	1	-5
406.674	1	6
407.015	1	-4
407.357	1	-3
407.698	1	0
408.040	1	-6
408.381	1	-2
408.722	1	-10
409.064	1	-6
409.405	1	7
409.747	1	-5
410.088	1	3
410.430	1	9
410.771	1	0
411.112	1	0
411.454	1	4
411.795	1	5
412.137	1	6
412.478	1	9
412.819	1	-5
413.161	1	4
413.502	1	0
413.844	1	-9
414.185	1	1
414.526	1	3
414.868	1	9
415.209	1	-1
415.550	1	-7
415.892	1	5
416.233	1	7
416.575	1	-6
416.916	1	-3
417.257	1	5
417.599	1	11
417.940	1	-3
418.281	1	-1
418.623	1	-5
418.964	1	2
419.305	1	4
419.647	1	5
419.988	1	3
420.329	1	3
420.671	1	6
421.012	1	3
421.353	1	11
421.695	1	-2
422.036	1	-10
422.377	1	-7
422.718	1	-4
423.060	1	-3
423.401	1	-1
423.742	1	-3
424.084	1	4
424.425	1	-8
424.766	1	-1
425.107	1	-2
425.449	1	2
425.790	1	1
426.131	1	1
426.472	1	-4
426.814	1	9
427.155	1	-8
427.496	1	10
427.837	1	-6
428.179	1	-14
428.520	1	-15
428.861	1	-9
429.202	1	2
429.544	1	2
429.885	1	2
430.226	1	-12
430.567	1	9
430.909	1	-19
431.250	1	-10
431.591	1	2
431.932	1	0
432.273	1	-7
432.615	1	-4
432.956	1	-3
433.297	1	9
433.638	1	-5
433.979	1	-7
434.320	1	-6
434.662	1	-7
435.003	1	2
435.344	1	0
435.685	1	1
436.026	1	-4
436.368	1	-6
436.709	1	-14
437.050	1	9
437.391	1	-4
437.732	1	-4
438.073	1	-6
438.414	1	0
438.756	1	4
439.097	1	4
439.438	1	9
439.779	1	-10
440.120	1	1
440.461	1	-9
440.802	1	-2
441.143	1	6
441.485	1	-5
441.826	1	-3
442.167	1	-3
442.508	1	-6
442.849	1	3
443.190	1	-4
443.531	1	-2
443.872	1	-2
444.213	1	1
444.554	1	-4
444.895	1	-5
445.237	1	-5
445.578	1	4
445.919	1	-5
446.260	1	7
446.601	1	-3
446.942	1	8
447.283	1	-1
447.624	1	7
447.965	1	-8
448.306	1	1
448.647	1	4
448.988	1	-8
449.329	1	1
449.670	1	-2
450.011	1	0
450.352	1	6
450.693	1	1
451.034	1	-9
451.375	1	10
451.716	1	-1
452.057	1	11
452.398	1	-9
452.739	1	4
453.080	1	17
453.421	1	-2
453.762	1	3
454.103	1	2
454.444	1	-3
454.785	1	-16
455.126	1	2
455.467	1	0
455.808	1	-3
456.149	1	-7
456.490	1	2
456.831	1	10
457.172	1	3
457.513	1	12
457.854	1	-4
458.195	1	-4
458.536	1	3
458.877	1	-3
459.218	1	4
459.559	1	-3
459.899	1	5
460.240	1	-1
460.581	1	11
460.922	1	4
461.263	1	8
461.604	1	-4
461.945	1	5
462.286	1	5
462.627	1	-2
462.968	1	-10
463.309	1	-1
463.649	1	4
463.990	1	3
464.331	1	0
464.672	1	-2
465.013	1	-4
465.354	1	4
465.695	1	13
466.036	1	-3
466.376	1	-5
466.717	1	-1
467.058	1	3
467.399	1	2
467.740	1	0
468.081	1	-10
468.422	1	8
468.762	1	-6
469.103	1	-2
469.444	1	-4
469.785	1	11
470.126	1	-1
470.467	1	-4
470.807	1	-9
471.148	1	-5
471.489	1	-1
471.830	1	9
472.171	1	3
472.511	1	5
472.852	1	-7
473.193	1	-6
473.534	1	-5
473.875	1	1
474.215	1	-8
474.556	1	-14
474.897	1	-5
475.238	1	-9
475.578	1	-2
475.919	1	2
476.260	1	-2
476.601	1	2
476.942	1	-3
477.282	1	-8
477.623	1	8
477.964	1	6
478.305	1	5
478.645	1	-4
478.986	1	-5
479.327	1	-8
479.667	1	1
480.008	1	2
480.349	1	-4
480.690	1	-5
481.030	1	-2
481.371	1	-1
481.712	1	7
482.053	1	3
482.393	1	-13
482.734	1	0
483.075	1	4
483.415	1	0
483.756	1	10
484.097	1	-10
484.437	1	-11
484.778	1	6
485.119	1	4
485.459	1	-2
485.800	1	2
486.141	1	-19
486.481	1	-3
486.822	1	-5
487.163	1	-3
487.503	1	2
487.844	1	1
488.185	1	-13
488.525	1	-5
488.866	1	3
489.207	1	15
489.547	1	-5
489.888	1	3
490.228	1	-8
490.569	1	-1
490.910	1	3
491.250	1	3
491.591	1	0
491.932	1	-1
492.272	1	1
492.613	1	6
492.953	1	9
493.294	1	2
493.635	1	-2
493.975	1	-9
494.316	1	6
494.656	1	4
494.997	1	2
495.337	1	6
495.678	1	5
496.019	1	-1
496.359	1	10
496.700	1	2
497.040	1	-2
497.381	1	-23
497.721	1	0
498.062	1	-8
498.403	1	-2
498.743	1	7
499.084	1	-7
499.424	1	15
499.765	1	-10
500.105	1	7
500.446	1	-1
500.786	1	0
501.127	1	1
501.467	1	1
501.808	1	-16
502.148	1	-6
502.489	1	-1
502.829	1	0
503.170	1	5
503.510	1	-2
503.851	1	-15
504.191	1	1
504.532	1	-9
504.872	1	-3
505.213	1	-4
505.553	1	-4
505.894	1	7
506.234	1	9
506.575	1	5
506.915	1	3
507.256	1	-6
507.596	1	7
507.936	1	8
508.277	1	-4
508.617	1	-1
508.958	1	3
509.298	1	11
509.639	1	11
509.979	1	-6
510.319	1	-8
510.660	1	1
511.000	1	7
511.341	1	-6
511.681	1	-2
512.022	1	-9
512.362	1	-3
512.702	1	-5
513.043	1	5
513.383	1	-5
513.724	1	4
514.064	1	6
514.404	1	-1
514.745	1	-1
515.085	1	1
515.425	1	-7
515.766	1	-1
516.106	1	-7
516.447	1	-2
516.787	1	-9
517.127	1	-4
517.468	1	0
517.808	1	3
518.148	1	0
518.489	1	2
518.829	1	-3
519.169	1	4
519.510	1	4
519.850	1	-9
520.190	1	-6
520.531	1	1
520.871	1	-3
521.211	1	8
521.552	1	4
521.892	1	-12
522.232	1	-11
522.573	1	1
522.913	1	-2
523.253	1	1
523.593	1	-10
523.934	1	7
524.274	1	-5
524.614	1	-3
524.955	1	0
525.295	1	-11
525.635	1	17
525.975	1	-9
526.316	1	3
526.656	1	17
526.996	1	15
527.337	1	1
527.677	1	10
528.017	1	-2
528.357	1	5
528.698	1	-7
529.038	1	5
529.378	1	3
529.718	1	0
530.058	1	0
530.399	1	8
530.739	1	-2
531.079	1	3
531.419	1	2
531.760	1	4
532.100	1	4
532.440	1	4
532.780	1	-6
533.120	1	-8
533.461	1	17
533.801	1	3
534.141	1	3
534.481	1	0
534.821	1	3
535.162	1	0
535.502	1	5
535.842	1	6
536.182	1	-1
536.522	1	1
536.862	1	5
537.203	1	2
537.543	1	5
537.883	1	6
538.223	1	3
538.563	1	4
538.903	1	-14
539.243	1	-6
539.584	1	0
539.924	1	1
540.264	1	-8
540.604	1	5
540.944	1	-6
541.284	1	-5
541.624	1	-3
541.964	1	3
542.305	1	-10
542.645	1	-4
542.985	1	-2
543.325	1	-2
543.665	1	13
544.005	1	-14
544.345	1	-8
544.685	1	10
545.025	1	-4
545.365	1	3
545.705	1	-2
546.045	1	2
546.386	1	2
546.726	1	-8
547.066	1	-5
547.406	1	10
547.746	1	5
548.086	1	1
548.426	1	-8
548.766	1	0
549.106	1	3
549.446	1	-3
549.786	1	6
550.126	1	-6
550.466	1	-4
550.806	1	8
551.146	1	-9
551.486	1	-1
551.826	1	4
552.166	1	-3
552.506	1	-6
552.846	1	4
553.186	1	0
553.526	1	-4
553.866	1	6
554.206	1	3
554.546	1	-9
554.886	1	8
555.226	1	-10
555.566	1	6
555.906	1	1
556.246	1	11
556.586	1	17
556.926	1	-2
557.266	1	10
557.606	1	-10
557.946	1	3
558.286	1	2
558.626	1	-2
558.966	1	-2
559.306	1	-3
559.646	1	-3
559.986	1	-1
560.325	1	-10
560.665	1	1
561.005	1	-3
561.345	1	0
561.685	1	-7
562.025	1	-4
562.365	1	9
562.705	1	13
563.045	1	7
563.385	1	-2
563.725	1	6
564.064	1	7
564.404	1	-5
564.744	1	6
565.084	1	1
565.424	1	-4
565.764	1	14
566.104	1	2
566.444	1	6
566.783	1	-1
567.123	1	18
567.463	1	-3
567.803	1	2
568.143	1	-6
568.483	1	-2
568.823	1	3
569.162	1	5
569.502	1	-3
569.842	1	2
570.182	1	-13
570.522	1	7
570.862	1	3
571.201	1	11
571.541	1	-4
571.881	1	2
572.221	1	0
572.561	1	-5
572.900	1	7
573.240	1	6
573.580	1	-1
573.920	1	0
574.260	1	-6
574.599	1	-5
574.939	1	-3
575.279	1	8
575.619	1	12
575.959	1	-10
576.298	1	-5
576.638	1	-2
576.978	1	-6
577.318	1	12
577.657	1	-17
577.997	1	0
578.337	1	-2
578.677	1	-13
579.016	1	13
579.356	1	-9
579.696	1	3
580.036	1	-6
580.375	1	-2
580.715	1	3
581.055	1	7
581.394	1	-3
581.734	1	1
582.074	1	-9
582.414	1	5
582.753	1	10
583.093	1	-2
583.433	1	-4
583.772	1	-10
584.112	1	3
584.452	1	-1
584.791	1	-1
585.131	1	-5
585.471	1	4
585.811	1	-5
586.150	1	3
586.490	1	-10
586.830	1	-7
587.169	1	-9
587.509	1	-2
587.849	1	-2
588.188	1	-1
588.528	1	3
588.867	1	6
589.207	1	-8
589.547	1	-9
589.886	1	-10
590.226	1	6
590.566	1	-3
590.905	1	1
591.245	1	1
591.585	1	0
591.924	1	-1
592.264	1	2
592.603	1	-3
592.943	1	-2
593.283	1	7
593.622	1	-9
593.962	1	14
594.301	1	4
594.641	1	-3
594.981	1	-1
595.320	1	-1
595.660	1	-8
595.999	1	4
596.339	1	2
596.678	1	1
597.018	1	7
597.358	1	-6
597.697	1	-6
598.037	1	-6
598.376	1	15
598.716	1	-4
599.055	1	-1
599.395	1	7
599.734	1	0
600.074	1	-3
600.413	1	0
600.753	1	2
601.092	1	-10
601.432	1	-7
601.771	1	10
602.111	1	-7
602.451	1	-1
602.790	1	0
603.130	1	3
603.469	1	3
603.809	1	1
604.148	1	10
604.487	1	0
604.827	1	-17
605.166	1	1
605.506	1	7
605.845	1	-3
606.185	1	-2
606.524	1	-3
606.864	1	1
607.203	1	5
607.543	1	-12
607.882	1	-9
608.222	1	-2
608.561	1	4
608.901	1	8
609.240	1	0
609.579	1	7
609.919	1	-6
610.258	1	5
610.598	1	7
610.937	1	-2
611.277	1	0
611.616	1	-13
611.955	1	5
612.295	1	-5
612.634	1	-4
612.974	1	2
613.313	1	0
613.652	1	-5
613.992	1	5
614.331	1	-1
614.671	1	-5
615.010	1	-2
615.349	1	1
615.689	1	2
616.028	1	3
616.368	1	-5
616.707	1	-5
617.046	1	-2
617.386	1	3
617.725	1	1
618.064	1	-1
618.404	1	-1
618.743	1	-2
619.082	1	3
619.422	1	1
619.761	1	-1
620.100	1	-3
620.440	1	-1
620.779	1	-4
621.118	1	3
621.458	1	10
621.797	1	-2
622.136	1	0
622.476	1	1
622.815	1	2
623.154	1	0
623.494	1	1
623.833	1	-8
624.172	1	9
624.511	1	-1
624.851	1	-15
625.190	1	11
625.529	1	3
625.869	1	2
626.208	1	6
626.547	1	-1
626.886	1	-5
627.226	1	-4
627.565	1	4
627.904	1	3
628.243	1	-5
628.583	1	-3
628.922	1	-4
629.261	1	8
629.600	1	4
629.940	1	6
630.279	1	-9
630.618	1	-7
630.957	1	-5
631.297	1	-9
631.636	1	0
631.975	1	-5
632.314	1	4
632.653	1	-3
632.993	1	-1
633.332	1	2
633.671	1	7
634.010	1	6
634.349	1	-10
634.689	1	6
635.028	1	2
635.367	1	-2
635.706	1	-5
636.045	1	0
636.384	1	7
636.724	1	-1
637.063	1	-3
637.402	1	8
637.741	1	15
638.080	1	-2
638.419	1	3
638.759	1	7
639.098	1	7
639.437	1	-2
639.776	1	1
640.115	1	7
640.454	1	14
640.793	1	7
641.132	1	9
641.472	1	-10
641.811	1	-5
642.150	1	7
642.489	1	7
642.828	1	-12
643.167	1	3
643.506	1	-4
643.845	1	-3
644.184	1	1
644.524	1	-7
644.863	1	-9
645.202	1	1
645.541	1	-7
645.880	1	0
646.219	1	-5
646.558	1	-3
646.897	1	-1
647.236	1	-2
647.575	1	4
647.914	1	-7
648.253	1	1
648.592	1	2
648.931	1	9
649.270	1	0
649.610	1	17
649.949	1	-3
650.288	1	-8
650.627	1	0
650.966	1	-8
651.305	1	3
651.644	1	-2
651.983	1	0
652.322	1	6
652.661	1	-5
653.000	1	-5
653.339	1	-2
653.678	1	-4
654.017	1	2
654.356	1	6
654.695	1	-9
655.034	1	1
655.373	1	-5
655.712	1	-7
656.051	1	4
656.390	1	-9
656.729	1	0
657.068	1	-3
657.406	1	-6
657.745	1	-2
658.084	1	8
658.423	1	-17
658.762	1	-17
659.101	1	3
659.440	1	4
659.779	1	-5
660.118	1	-6
660.457	1	-11
660.796	1	-7
661.135	1	4
661.474	1	2
661.813	1	-1
662.152	1	-1
662.491	1	2
662.829	1	-5
663.168	1	-4
663.507	1	3
663.846	1	5
664.185	1	-6
664.524	1	1
664.863	1	0
665.202	1	-7
665.541	1	-3
665.879	1	-4
666.218	1	-9
666.557	1	-3
666.896	1	-7
667.235	1	-2
667.574	1	-3
667.913	1	-6
668.251	1	-4
668.590	1	-3
668.929	1	-5
669.268	1	-4
669.607	1	-2
669.946	1	8
670.285	1	0
670.623	1	-3
670.962	1	-7
671.301	1	-16
671.640	1	-3
671.979	1	8
672.317	1	-6
672.656	1	0
672.995	1	1
673.334	1	8
673.673	1	14
674.011	1	7
674.350	1	-3
674.689	1	-4
675.028	1	5
675.367	1	10
675.705	1	-5
676.044	1	-8
676.383	1	-5
676.722	1	1
677.060	1	-3
677.399	1	-1
677.738	1	-2
678.077	1	4
678.416	1	-7
678.754	1	2
679.093	1	5
679.432	1	-8
679.771	1	-7
680.109	1	2
680.448	1	2
680.787	1	1
681.125	1	-1
681.464	1	3
681.803	1	-6
682.142	1	10
682.480	1	-6
682.819	1	6
683.158	1	0
683.496	1	-13
683.835	1	3
684.174	1	-5
684.512	1	4
684.851	1	-3
685.190	1	13
685.529	1	-1
685.867	1	-3
686.206	1	0
686.545	1	-1
686.883	1	-12
687.222	1	0
687.561	1	-4
687.899	1	2
688.238	1	4
688.577	1	-11
688.746	1	2