File: Analysis/GaN_68K_200ms/GaN_sample E_spot4_UVVIS_68 K_200um_200 ms 2x2mm1_673.txt
340.368	1	-5
340.710	1	-4
341.052	1	5
341.394	1	-4
341.737	1	2
342.079	1	-8
342.421	1	-8
342.763	1	-5
343.105	1	12
343.447	1	5
343.789	1	2
344.131	1	6
344.473	1	1
344.815	1	10
345.157	1	-1
345.499	1	5
345.841	1	2
346.183	1	3
346.526	1	6
346.868	1	6
347.210	1	4
347.552	1	-6
347.894	1	-4
348.236	1	8
348.578	1	-1
348.920	1	4
349.262	1	4
349.604	1	9
349.946	1	1
350.288	1	0
350.630	1	-10
350.972	1	-1
351.314	1	-3
351.656	1	9
351.998	1	6
352.340	1	2
352.682	1	-1
353.024	1	1
353.366	1	6
353.708	1	4
354.050	1	-1
354.392	1	4
354.734	1	1
355.076	1	-4
355.418	1	0
355.760	1	-2
356.102	1	-2
356.444	1	-3
356.785	1	0
357.127	1	0
357.469	1	-4
357.811	1	10
358.153	1	1
358.495	1	3
358.837	1	6
359.179	1	0
359.521	1	3
359.863	1	-10
360.205	1	-4
360.547	1	4
360.889	1	5
361.231	1	4
361.572	1	-2
361.914	1	5
362.256	1	7
362.598	1	5
362.940	1	6
363.282	1	14
363.624	1	-2
363.966	1	2
364.308	1	-4
364.649	1	-7
364.991	1	0
365.333	1	9
365.675	1	2
366.017	1	0
366.359	1	1
366.701	1	-9
367.042	1	12
367.384	1	7
367.726	1	8
368.068	1	-6
368.410	1	1
368.752	1	-5
369.093	1	-8
369.435	1	-6
369.777	1	1
370.119	1	9
370.461	1	0
370.803	1	-2
371.144	1	11
371.486	1	7
371.828	1	5
372.170	1	13
372.512	1	-4
372.853	1	-3
373.195	1	-1
373.537	1	2
373.879	1	7
374.220	1	2
374.562	1	4
374.904	1	4
375.246	1	-1
375.588	1	-5
375.929	1	-6
376.271	1	-5
376.613	1	2
376.955	1	-11
377.296	1	3
377.638	1	1
377.980	1	8
378.321	1	4
378.663	1	1
379.005	1	2
379.347	1	-1
379.688	1	-4
380.030	1	-2
380.372	1	-5
380.714	1	6
381.055	1	-3
381.397	1	-13
381.739	1	10
382.080	1	-16
382.422	1	6
382.764	1	-2
383.105	1	-4
383.447	1	9
383.789	1	4
384.130	1	-3
384.472	1	-12
384.814	1	-1
385.156	1	7
385.497	1	16
385.839	1	5
386.180	1	-3
386.522	1	7
386.864	1	2
387.205	1	-3
387.547	1	3
387.889	1	10
388.230	1	-3
388.572	1	4
388.914	1	14
389.255	1	11
389.597	1	-10
389.939	1	11
390.280	1	10
390.622	1	-1
390.963	1	2
391.305	1	13
391.647	1	4
391.988	1	-1
392.330	1	-1
392.671	1	8
393.013	1	9
393.355	1	13
393.696	1	-1
394.038	1	-2
394.379	1	-4
394.721	1	10
395.062	1	-1
395.404	1	8
395.746	1	-2
396.087	1	1
396.429	1	6
396.770	1	7
397.112	1	4
397.453	1	-4
397.795	1	3
398.136	1	4
398.478	1	5
398.819	1	11
399.161	1	6
399.503	1	4
399.844	1	4
400.186	1	1
400.527	1	-2
400.869	1	12
401.210	1	-7
401.552	1	8
401.893	1	-4
402.235	1	3
402.576	1	10
402.918	1	-4
403.259	1	1
403.601	1	-10
403.942	1	7
404.284	1	6
404.625	1	1
404.967	1	-5
405.308	1	-6
405.649	1	-7
405.991	1	14
406.332	1	-7
406.674	1	5
407.015	1	-7
407.357	1	-6
407.698	1	-2
408.040	1	-5
408.381	1	4
408.722	1	-2
409.064	1	0
409.405	1	0
409.747	1	-3
410.088	1	-3
410.430	1	4
410.771	1	-1
411.112	1	6
411.454	1	7
411.795	1	0
412.137	1	4
412.478	1	3
412.819	1	1
413.161	1	-4
413.502	1	-14
413.844	1	0
414.185	1	3
414.526	1	-7
414.868	1	12
415.209	1	-5
415.550	1	-10
415.892	1	0
416.233	1	-1
416.575	1	-3
416.916	1	-1
417.257	1	-5
417.599	1	1
417.940	1	-3
418.281	1	-4
418.623	1	-3
418.964	1	3
419.305	1	-10
419.647	1	2
419.988	1	-7
420.329	1	17
420.671	1	9
421.012	1	11
421.353	1	3
421.695	1	0
422.036	1	0
422.377	1	-2
422.718	1	-8
423.060	1	-3
423.401	1	2
423.742	1	-1
424.084	1	7
424.425	1	1
424.766	1	5
425.107	1	-4
425.449	1	-5
425.790	1	-1
426.131	1	-3
426.472	1	4
426.814	1	16
427.155	1	-2
427.496	1	-1
427.837	1	-5
428.179	1	-8
428.520	1	-4
428.861	1	-7
429.202	1	2
429.544	1	3
429.885	1	5
430.226	1	-7
430.567	1	9
430.909	1	-10
431.250	1	-1
431.591	1	7
431.932	1	4
432.273	1	-3
432.615	1	5
432.956	1	-2
433.297	1	4
433.638	1	1
433.979	1	-4
434.320	1	-2
434.662	1	-5
435.003	1	5
435.344	1	2
435.685	1	2
436.026	1	7
436.368	1	-4
436.709	1	-7
437.050	1	7
437.391	1	-5
437.732	1	1
438.073	1	-2
438.414	1	1
438.756	1	8
439.097	1	1
439.438	1	8
439.779	1	3
440.120	1	-3
440.461	1	-12
440.802	1	5
441.143	1	8
441.485	1	-5
441.826	1	-10
442.167	1	1
442.508	1	1
442.849	1	7
443.190	1	-8
443.531	1	-3
443.872	1	-3
444.213	1	-6
444.554	1	-2
444.895	1	1
445.237	1	-6
445.578	1	7
445.919	1	1
446.260	1	-6
446.601	1	-3
446.942	1	-1
447.283	1	-8
447.624	1	8
447.965	1	-15
448.306	1	-2
448.647	1	5
448.988	1	-14
449.329	1	0
449.670	1	0
450.011	1	5
450.352	1	11
450.693	1	-3
451.034	1	9
451.375	1	2
451.716	1	9
452.057	1	10
452.398	1	4
452.739	1	-3
453.080	1	6
453.421	1	1
453.762	1	12
454.103	1	-5
454.444	1	8
454.785	1	-11
455.126	1	-2
455.467	1	8
455.808	1	8
456.149	1	-4
456.490	1	4
456.831	1	10
457.172	1	2
457.513	1	9
457.854	1	3
458.195	1	3
458.536	1	4
458.877	1	1
459.218	1	6
459.559	1	4
459.899	1	8
460.240	1	1
460.581	1	6
460.922	1	-3
461.263	1	7
461.604	1	-6
461.945	1	7
462.286	1	9
462.627	1	0
462.968	1	-11
463.309	1	1
463.649	1	3
463.990	1	11
464.331	1	-1
464.672	1	-5
465.013	1	-6
465.354	1	4
465.695	1	9
466.036	1	-1
466.376	1	-2
466.717	1	-6
467.058	1	10
467.399	1	-1
467.740	1	-3
468.081	1	-6
468.422	1	2
468.762	1	-2
469.103	1	-8
469.444	1	-4
469.785	1	1
470.126	1	9
470.467	1	0
470.807	1	-3
471.148	1	-7
471.489	1	-6
471.830	1	11
472.171	1	2
472.511	1	3
472.852	1	-10
473.193	1	1
473.534	1	-3
473.875	1	4
474.215	1	-1
474.556	1	-13
474.897	1	1
475.238	1	-6
475.578	1	1
475.919	1	7
476.260	1	2
476.601	1	2
476.942	1	-2
477.282	1	-8
477.623	1	6
477.964	1	10
478.305	1	0
478.645	1	-4
478.986	1	-1
479.327	1	-6
479.667	1	-3
480.008	1	9
480.349	1	-2
480.690	1	-2
481.030	1	-9
481.371	1	1
481.712	1	1
482.053	1	9
482.393	1	-4
482.734	1	2
483.075	1	8
483.415	1	2
483.756	1	11
484.097	1	-5
484.437	1	-9
484.778	1	6
485.119	1	2
485.459	1	3
485.800	1	1
486.141	1	-6
486.481	1	2
486.822	1	1
487.163	1	-8
487.503	1	-15
487.844	1	7
488.185	1	-8
488.525	1	2
488.866	1	7
489.207	1	17
489.547	1	-4
489.888	1	-6
490.228	1	-12
490.569	1	10
490.910	1	-2
491.250	1	3
491.591	1	-8
491.932	1	6
492.272	1	10
492.613	1	0
492.953	1	1
493.294	1	4
493.635	1	-3
493.975	1	8
494.316	1	7
494.656	1	3
494.997	1	-4
495.337	1	2
495.678	1	2
496.019	1	-1
496.359	1	3
496.700	1	-4
497.040	1	2
497.381	1	-15
497.721	1	-1
498.062	1	-10
498.403	1	0
498.743	1	11
499.084	1	-8
499.424	1	13
499.765	1	1
500.105	1	5
500.446	1	4
500.786	1	0
501.127	1	1
501.467	1	3
501.808	1	-8
502.148	1	-3
502.489	1	9
502.829	1	-1
503.170	1	-7
503.510	1	4
503.851	1	-14
504.191	1	0
504.532	1	-20
504.872	1	-6
505.213	1	10
505.553	1	11
505.894	1	2
506.234	1	11
506.575	1	-7
506.915	1	2
507.256	1	-9
507.596	1	1
507.936	1	9
508.277	1	-8
508.617	1	2
508.958	1	10
509.298	1	8
509.639	1	4
509.979	1	-10
510.319	1	-3
510.660	1	14
511.000	1	1
511.341	1	-6
511.681	1	-2
512.022	1	-2
512.362	1	-2
512.702	1	-13
513.043	1	6
513.383	1	-6
513.724	1	11
514.064	1	5
514.404	1	1
514.745	1	-5
515.085	1	-5
515.425	1	-8
515.766	1	3
516.106	1	0
516.447	1	6
516.787	1	-1
517.127	1	0
517.468	1	-8
517.808	1	3
518.148	1	-6
518.489	1	2
518.829	1	-12
519.169	1	3
519.510	1	-3
519.850	1	0
520.190	1	-2
520.531	1	3
520.871	1	-2
521.211	1	5
521.552	1	0
521.892	1	-9
522.232	1	-6
522.573	1	11
522.913	1	2
523.253	1	-1
523.593	1	-5
523.934	1	2
524.274	1	-7
524.614	1	8
524.955	1	0
525.295	1	-8
525.635	1	9
525.975	1	-5
526.316	1	-4
526.656	1	11
526.996	1	7
527.337	1	1
527.677	1	5
528.017	1	-2
528.357	1	1
528.698	1	-2
529.038	1	12
529.378	1	-2
529.718	1	1
530.058	1	4
530.399	1	6
530.739	1	0
531.079	1	5
531.419	1	1
531.760	1	3
532.100	1	-1
532.440	1	4
532.780	1	-4
533.120	1	-3
533.461	1	11
533.801	1	-8
534.141	1	1
534.481	1	0
534.821	1	4
535.162	1	3
535.502	1	14
535.842	1	9
536.182	1	4
536.522	1	-5
536.862	1	6
537.203	1	3
537.543	1	-2
537.883	1	8
538.223	1	3
538.563	1	-3
538.903	1	0
539.243	1	3
539.584	1	2
539.924	1	4
540.264	1	3
540.604	1	0
540.944	1	0
541.284	1	-3
541.624	1	9
541.964	1	2
542.305	1	-8
542.645	1	-1
542.985	1	-13
543.325	1	0
543.665	1	-1
544.005	1	-4
544.345	1	2
544.685	1	1
545.025	1	2
545.365	1	5
545.705	1	11
546.045	1	8
546.386	1	1
546.726	1	-1
547.066	1	-8
547.406	1	13
547.746	1	6
548.086	1	1
548.426	1	-1
548.766	1	1
549.106	1	6
549.446	1	-4
549.786	1	3
550.126	1	-2
550.466	1	2
550.806	1	10
551.146	1	3
551.486	1	1
551.826	1	2
552.166	1	-1
552.506	1	-7
552.846	1	6
553.186	1	2
553.526	1	-1
553.866	1	-2
554.206	1	-1
554.546	1	-10
554.886	1	12
555.226	1	-7
555.566	1	-1
555.906	1	0
556.246	1	0
556.586	1	-2
556.926	1	0
557.266	1	8
557.606	1	-7
557.946	1	10
558.286	1	-4
558.626	1	4
558.966	1	2
559.306	1	-8
559.646	1	-1
559.986	1	-3
560.325	1	-12
560.665	1	4
561.005	1	2
561.345	1	3
561.685	1	7
562.025	1	1
562.365	1	7
562.705	1	8
563.045	1	8
563.385	1	-5
563.725	1	-5
564.064	1	7
564.404	1	1
564.744	1	-1
565.084	1	-4
565.424	1	1
565.764	1	7
566.104	1	-3
566.444	1	1
566.783	1	-8
567.123	1	14
567.463	1	0
567.803	1	-5
568.143	1	-8
568.483	1	4
568.823	1	11
569.162	1	-9
569.502	1	-1
569.842	1	-1
570.182	1	-6
570.522	1	7
570.862	1	-3
571.201	1	12
571.541	1	-13
571.881	1	10
572.221	1	-3
572.561	1	-1
572.900	1	15
573.240	1	1
573.580	1	3
573.920	1	2
574.260	1	7
574.599	1	-12
574.939	1	-3
575.279	1	0
575.619	1	7
575.959	1	-11
576.298	1	-16
576.638	1	3
576.978	1	-3
577.318	1	4
577.657	1	-11
577.997	1	-8
578.337	1	-5
578.677	1	-2
579.016	1	5
579.356	1	-6
579.696	1	-1
580.036	1	-7
580.375	1	3
580.715	1	0
581.055	1	3
581.394	1	-3
581.734	1	9
582.074	1	-3
582.414	1	4
582.753	1	8
583.093	1	-9
583.433	1	-11
583.772	1	-5
584.112	1	0
584.452	1	0
584.791	1	2
585.131	1	-6
585.471	1	-2
585.811	1	-6
586.150	1	0
586.490	1	-6
586.830	1	-9
587.169	1	4
587.509	1	2
587.849	1	11
588.188	1	-4
588.528	1	4
588.867	1	8
589.207	1	-5
589.547	1	1
589.886	1	-4
590.226	1	11
590.566	1	-2
590.905	1	3
591.245	1	-1
591.585	1	0
591.924	1	-6
592.264	1	-10
592.603	1	-1
592.943	1	-3
593.283	1	16
593.622	1	0
593.962	1	5
594.301	1	10
594.641	1	-7
594.981	1	-2
595.320	1	4
595.660	1	1
595.999	1	-1
596.339	1	-1
596.678	1	-6
597.018	1	-3
597.358	1	3
597.697	1	-5
598.037	1	5
598.376	1	5
598.716	1	-7
599.055	1	-1
599.395	1	3
599.734	1	-9
600.074	1	-14
600.413	1	-2
600.753	1	3
601.092	1	-7
601.432	1	-5
601.771	1	3
602.111	1	-8
602.451	1	2
602.790	1	-4
603.130	1	2
603.469	1	-5
603.809	1	3
604.148	1	2
604.487	1	-1
604.827	1	-23
605.166	1	-4
605.506	1	-2
605.845	1	3
606.185	1	-3
606.524	1	-3
606.864	1	-5
607.203	1	6
607.543	1	-10
607.882	1	-2
608.222	1	-2
608.561	1	0
608.901	1	-4
609.240	1	2
609.579	1	7
609.919	1	0
610.258	1	7
610.598	1	2
610.937	1	-8
611.277	1	0
611.616	1	-10
611.955	1	5
612.295	1	-3
612.634	1	2
612.974	1	5
613.313	1	-11
613.652	1	-7
613.992	1	4
614.331	1	3
614.671	1	2
615.010	1	2
615.349	1	2
615.689	1	-1
616.028	1	-5
616.368	1	3
616.707	1	-1
617.046	1	7
617.386	1	-8
617.725	1	11
618.064	1	7
618.404	1	2
618.743	1	7
619.082	1	0
619.422	1	-3
619.761	1	0
620.100	1	4
620.440	1	7
620.779	1	-2
621.118	1	-9
621.458	1	9
621.797	1	4
622.136	1	5
622.476	1	3
622.815	1	-10
623.154	1	-2
623.494	1	5
623.833	1	0
624.172	1	4
624.511	1	5
624.851	1	-5
625.190	1	-2
625.529	1	8
625.869	1	8
626.208	1	-6
626.547	1	-7
626.886	1	-8
627.226	1	3
627.565	1	9
627.904	1	3
628.243	1	-4
628.583	1	1
628.922	1	-1
629.261	1	4
629.600	1	8
629.940	1	3
630.279	1	-8
630.618	1	-1
630.957	1	-1
631.297	1	-8
631.636	1	-6
631.975	1	2
632.314	1	16
632.653	1	-8
632.993	1	7
633.332	1	4
633.671	1	0
634.010	1	5
634.349	1	6
634.689	1	6
635.028	1	5
635.367	1	-6
635.706	1	-7
636.045	1	-5
636.384	1	5
636.724	1	0
637.063	1	-4
637.402	1	5
637.741	1	5
638.080	1	-8
638.419	1	0
638.759	1	4
639.098	1	-5
639.437	1	-6
639.776	1	-8
640.115	1	-12
640.454	1	9
640.793	1	4
641.132	1	5
641.472	1	-5
641.811	1	0
642.150	1	1
642.489	1	-1
642.828	1	0
643.167	1	6
643.506	1	-7
643.845	1	-4
644.184	1	7
644.524	1	-6
644.863	1	-12
645.202	1	-2
645.541	1	-11
645.880	1	1
646.219	1	-2
646.558	1	-5
646.897	1	1
647.236	1	-1
647.575	1	7
647.914	1	6
648.253	1	10
648.592	1	-12
648.931	1	7
649.270	1	6
649.610	1	7
649.949	1	-1
650.288	1	-5
650.627	1	1
650.966	1	-5
651.305	1	-4
651.644	1	-4
651.983	1	0
652.322	1	-2
652.661	1	-1
653.000	1	-5
653.339	1	8
653.678	1	-7
654.017	1	-3
654.356	1	9
654.695	1	-4
655.034	1	-2
655.373	1	-6
655.712	1	-3
656.051	1	5
656.390	1	-5
656.729	1	5
657.068	1	4
657.406	1	4
657.745	1	4
658.084	1	0
658.423	1	-3
658.762	1	-10
659.101	1	1
659.440	1	11
659.779	1	-6
660.118	1	-9
660.457	1	-2
660.796	1	1
661.135	1	1
661.474	1	5
661.813	1	-3
662.152	1	-5
662.491	1	-7
662.829	1	-7
663.168	1	-7
663.507	1	-3
663.846	1	8
664.185	1	0
664.524	1	-6
664.863	1	-4
665.202	1	-7
665.541	1	1
665.879	1	13
666.218	1	-11
666.557	1	-7
666.896	1	-5
667.235	1	5
667.574	1	5
667.913	1	0
668.251	1	0
668.590	1	3
668.929	1	14
669.268	1	-7
669.607	1	-9
669.946	1	5
670.285	1	0
670.623	1	1
670.962	1	7
671.301	1	-4
671.640	1	-17
671.979	1	9
672.317	1	1
672.656	1	0
672.995	1	-4
673.334	1	7
673.673	1	8
674.011	1	6
674.350	1	-4
674.689	1	1
675.028	1	-1
675.367	1	1
675.705	1	-10
676.044	1	2
676.383	1	-7
676.722	1	-5
677.060	1	1
677.399	1	4
677.738	1	-2
678.077	1	-5
678.416	1	-6
678.754	1	6
679.093	1	-2
679.432	1	-9
679.771	1	4
680.109	1	0
680.448	1	3
680.787	1	-3
681.125	1	1
681.464	1	1
681.803	1	-23
682.142	1	8
682.480	1	3
682.819	1	2
683.158	1	-2
683.496	1	-11
683.835	1	9
684.174	1	3
684.512	1	2
684.851	1	2
685.190	1	6
685.529	1	4
685.867	1	-5
686.206	1	1
686.545	1	5
686.883	1	-2
687.222	1	-2
687.561	1	2
687.899	1	-1
688.238	1	6
688.577	1	-9
688.746	1	1