File: Analysis/GaN_68K_200ms/GaN_sample E_spot4_UVVIS_68 K_200um_200 ms 2x2mm1_255.txt
340.368	1	5
340.710	1	-6
341.052	1	2
341.394	1	3
341.737	1	17
342.079	1	5
342.421	1	1
342.763	1	-1
343.105	1	13
343.447	1	7
343.789	1	0
344.131	1	-6
344.473	1	6
344.815	1	11
345.157	1	3
345.499	1	6
345.841	1	-4
346.183	1	1
346.526	1	14
346.868	1	0
347.210	1	1
347.552	1	13
347.894	1	2
348.236	1	11
348.578	1	7
348.920	1	14
349.262	1	2
349.604	1	8
349.946	1	13
350.288	1	11
350.630	1	-7
350.972	1	0
351.314	1	-2
351.656	1	8
351.998	1	-1
352.340	1	1
352.682	1	7
353.024	1	-1
353.366	1	3
353.708	1	11
354.050	1	1
354.392	1	0
354.734	1	7
355.076	1	7
355.418	1	1
355.760	1	9
356.102	1	-3
356.444	1	9
356.785	1	13
357.127	1	14
357.469	1	-2
357.811	1	12
358.153	1	7
358.495	1	9
358.837	1	0
359.179	1	5
359.521	1	6
359.863	1	-7
360.205	1	3
360.547	1	14
360.889	1	13
361.231	1	7
361.572	1	-2
361.914	1	9
362.256	1	7
362.598	1	2
362.940	1	3
363.282	1	-1
363.624	1	6
363.966	1	13
364.308	1	10
364.649	1	5
364.991	1	11
365.333	1	13
365.675	1	14
366.017	1	7
366.359	1	19
366.701	1	14
367.042	1	21
367.384	1	20
367.726	1	24
368.068	1	10
368.410	1	11
368.752	1	1
369.093	1	12
369.435	1	6
369.777	1	9
370.119	1	22
370.461	1	9
370.803	1	3
371.144	1	23
371.486	1	13
371.828	1	6
372.170	1	15
372.512	1	7
372.853	1	12
373.195	1	6
373.537	1	6
373.879	1	12
374.220	1	1
374.562	1	12
374.904	1	4
375.246	1	6
375.588	1	5
375.929	1	8
376.271	1	7
376.613	1	4
376.955	1	-2
377.296	1	8
377.638	1	8
377.980	1	12
378.321	1	1
378.663	1	1
379.005	1	13
379.347	1	6
379.688	1	2
380.030	1	-4
380.372	1	-1
380.714	1	5
381.055	1	17
381.397	1	10
381.739	1	11
382.080	1	-1
382.422	1	11
382.764	1	7
383.105	1	5
383.447	1	17
383.789	1	5
384.130	1	-1
384.472	1	3
384.814	1	11
385.156	1	19
385.497	1	13
385.839	1	16
386.180	1	13
386.522	1	21
386.864	1	6
387.205	1	8
387.547	1	19
387.889	1	21
388.230	1	15
388.572	1	19
388.914	1	18
389.255	1	9
389.597	1	4
389.939	1	24
390.280	1	21
390.622	1	18
390.963	1	17
391.305	1	14
391.647	1	13
391.988	1	6
392.330	1	14
392.671	1	19
393.013	1	19
393.355	1	26
393.696	1	5
394.038	1	8
394.379	1	10
394.721	1	11
395.062	1	6
395.404	1	20
395.746	1	6
396.087	1	15
396.429	1	13
396.770	1	20
397.112	1	9
397.453	1	9
397.795	1	21
398.136	1	18
398.478	1	11
398.819	1	18
399.161	1	18
399.503	1	16
399.844	1	10
400.186	1	14
400.527	1	24
400.869	1	19
401.210	1	15
401.552	1	27
401.893	1	7
402.235	1	16
402.576	1	20
402.918	1	7
403.259	1	-4
403.601	1	6
403.942	1	10
404.284	1	13
404.625	1	10
404.967	1	11
405.308	1	4
405.649	1	4
405.991	1	12
406.332	1	14
406.674	1	13
407.015	1	4
407.357	1	18
407.698	1	1
408.040	1	6
408.381	1	7
408.722	1	7
409.064	1	4
409.405	1	7
409.747	1	5
410.088	1	13
410.430	1	12
410.771	1	7
411.112	1	10
411.454	1	19
411.795	1	6
412.137	1	12
412.478	1	20
412.819	1	0
413.161	1	16
413.502	1	14
413.844	1	-2
414.185	1	16
414.526	1	11
414.868	1	13
415.209	1	7
415.550	1	1
415.892	1	-2
416.233	1	1
416.575	1	8
416.916	1	4
417.257	1	17
417.599	1	4
417.940	1	5
418.281	1	5
418.623	1	2
418.964	1	9
419.305	1	10
419.647	1	18
419.988	1	4
420.329	1	18
420.671	1	8
421.012	1	7
421.353	1	12
421.695	1	3
422.036	1	1
422.377	1	12
422.718	1	10
423.060	1	1
423.401	1	13
423.742	1	3
424.084	1	13
424.425	1	3
424.766	1	15
425.107	1	9
425.449	1	10
425.790	1	3
426.131	1	11
426.472	1	2
426.814	1	7
427.155	1	5
427.496	1	14
427.837	1	2
428.179	1	4
428.520	1	3
428.861	1	13
429.202	1	9
429.544	1	7
429.885	1	7
430.226	1	-5
430.567	1	19
430.909	1	11
431.250	1	0
431.591	1	10
431.932	1	8
432.273	1	3
432.615	1	11
432.956	1	0
433.297	1	-2
433.638	1	6
433.979	1	3
434.320	1	2
434.662	1	0
435.003	1	12
435.344	1	10
435.685	1	4
436.026	1	2
436.368	1	2
436.709	1	0
437.050	1	13
437.391	1	13
437.732	1	6
438.073	1	17
438.414	1	2
438.756	1	5
439.097	1	2
439.438	1	11
439.779	1	7
440.120	1	10
440.461	1	8
440.802	1	5
441.143	1	4
441.485	1	6
441.826	1	-2
442.167	1	-4
442.508	1	-1
442.849	1	1
443.190	1	-7
443.531	1	3
443.872	1	3
444.213	1	-1
444.554	1	-1
444.895	1	3
445.237	1	4
445.578	1	7
445.919	1	2
446.260	1	13
446.601	1	-2
446.942	1	13
447.283	1	-2
447.624	1	12
447.965	1	-4
448.306	1	10
448.647	1	22
448.988	1	-8
449.329	1	4
449.670	1	8
450.011	1	10
450.352	1	10
450.693	1	8
451.034	1	15
451.375	1	11
451.716	1	13
452.057	1	13
452.398	1	8
452.739	1	9
453.080	1	15
453.421	1	0
453.762	1	3
454.103	1	6
454.444	1	10
454.785	1	-1
455.126	1	5
455.467	1	3
455.808	1	4
456.149	1	-6
456.490	1	6
456.831	1	15
457.172	1	-7
457.513	1	18
457.854	1	1
458.195	1	-3
458.536	1	6
458.877	1	6
459.218	1	4
459.559	1	16
459.899	1	22
460.240	1	10
460.581	1	5
460.922	1	5
461.263	1	3
461.604	1	5
461.945	1	16
462.286	1	15
462.627	1	0
462.968	1	-2
463.309	1	1
463.649	1	1
463.990	1	2
464.331	1	9
464.672	1	4
465.013	1	-8
465.354	1	3
465.695	1	16
466.036	1	11
466.376	1	2
466.717	1	-5
467.058	1	10
467.399	1	3
467.740	1	5
468.081	1	5
468.422	1	13
468.762	1	-7
469.103	1	-1
469.444	1	7
469.785	1	4
470.126	1	11
470.467	1	-6
470.807	1	8
471.148	1	3
471.489	1	1
471.830	1	19
472.171	1	-3
472.511	1	5
472.852	1	-2
473.193	1	-6
473.534	1	5
473.875	1	10
474.215	1	-5
474.556	1	-2
474.897	1	7
475.238	1	5
475.578	1	5
475.919	1	4
476.260	1	0
476.601	1	1
476.942	1	7
477.282	1	-7
477.623	1	6
477.964	1	9
478.305	1	3
478.645	1	3
478.986	1	5
479.327	1	-2
479.667	1	-1
480.008	1	10
480.349	1	6
480.690	1	5
481.030	1	0
481.371	1	3
481.712	1	-1
482.053	1	17
482.393	1	-7
482.734	1	11
483.075	1	0
483.415	1	11
483.756	1	11
484.097	1	5
484.437	1	-5
484.778	1	0
485.119	1	10
485.459	1	7
485.800	1	1
486.141	1	-16
486.481	1	1
486.822	1	6
487.163	1	1
487.503	1	-11
487.844	1	-2
488.185	1	-4
488.525	1	5
488.866	1	12
489.207	1	13
489.547	1	1
489.888	1	4
490.228	1	1
490.569	1	11
490.910	1	8
491.250	1	10
491.591	1	-2
491.932	1	2
492.272	1	5
492.613	1	8
492.953	1	3
493.294	1	8
493.635	1	7
493.975	1	1
494.316	1	17
494.656	1	5
494.997	1	-5
495.337	1	10
495.678	1	10
496.019	1	0
496.359	1	8
496.700	1	2
497.040	1	1
497.381	1	-13
497.721	1	2
498.062	1	2
498.403	1	17
498.743	1	7
499.084	1	-10
499.424	1	14
499.765	1	6
500.105	1	-1
500.446	1	4
500.786	1	7
501.127	1	8
501.467	1	2
501.808	1	-8
502.148	1	14
502.489	1	16
502.829	1	-4
503.170	1	6
503.510	1	7
503.851	1	0
504.191	1	7
504.532	1	3
504.872	1	0
505.213	1	4
505.553	1	1
505.894	1	20
506.234	1	17
506.575	1	3
506.915	1	8
507.256	1	2
507.596	1	13
507.936	1	6
508.277	1	0
508.617	1	10
508.958	1	20
509.298	1	23
509.639	1	9
509.979	1	14
510.319	1	0
510.660	1	5
511.000	1	7
511.341	1	-4
511.681	1	13
512.022	1	2
512.362	1	9
512.702	1	-1
513.043	1	8
513.383	1	4
513.724	1	16
514.064	1	9
514.404	1	2
514.745	1	12
515.085	1	7
515.425	1	0
515.766	1	8
516.106	1	5
516.447	1	12
516.787	1	7
517.127	1	5
517.468	1	5
517.808	1	6
518.148	1	8
518.489	1	9
518.829	1	-5
519.169	1	22
519.510	1	3
519.850	1	7
520.190	1	4
520.531	1	11
520.871	1	4
521.211	1	17
521.552	1	11
521.892	1	-5
522.232	1	3
522.573	1	3
522.913	1	13
523.253	1	20
523.593	1	-2
523.934	1	15
524.274	1	10
524.614	1	17
524.955	1	4
525.295	1	4
525.635	1	22
525.975	1	12
526.316	1	12
526.656	1	25
526.996	1	25
527.337	1	1
527.677	1	23
528.017	1	-2
528.357	1	17
528.698	1	3
529.038	1	8
529.378	1	16
529.718	1	15
530.058	1	9
530.399	1	19
530.739	1	4
531.079	1	11
531.419	1	18
531.760	1	13
532.100	1	14
532.440	1	4
532.780	1	5
533.120	1	2
533.461	1	24
533.801	1	9
534.141	1	20
534.481	1	7
534.821	1	13
535.162	1	14
535.502	1	13
535.842	1	15
536.182	1	4
536.522	1	15
536.862	1	18
537.203	1	7
537.543	1	12
537.883	1	15
538.223	1	22
538.563	1	9
538.903	1	11
539.243	1	4
539.584	1	9
539.924	1	14
540.264	1	17
540.604	1	13
540.944	1	11
541.284	1	7
541.624	1	9
541.964	1	15
542.305	1	1
542.645	1	7
542.985	1	11
543.325	1	7
543.665	1	12
544.005	1	4
544.345	1	10
544.685	1	16
545.025	1	2
545.365	1	16
545.705	1	19
546.045	1	11
546.386	1	-2
546.726	1	8
547.066	1	0
547.406	1	13
547.746	1	13
548.086	1	17
548.426	1	10
548.766	1	19
549.106	1	7
549.446	1	12
549.786	1	7
550.126	1	5
550.466	1	9
550.806	1	9
551.146	1	2
551.486	1	7
551.826	1	11
552.166	1	14
552.506	1	5
552.846	1	10
553.186	1	7
553.526	1	0
553.866	1	9
554.206	1	13
554.546	1	11
554.886	1	9
555.226	1	7
555.566	1	15
555.906	1	21
556.246	1	7
556.586	1	9
556.926	1	15
557.266	1	19
557.606	1	0
557.946	1	18
558.286	1	16
558.626	1	10
558.966	1	5
559.306	1	8
559.646	1	4
559.986	1	7
560.325	1	-6
560.665	1	10
561.005	1	8
561.345	1	4
561.685	1	7
562.025	1	2
562.365	1	10
562.705	1	8
563.045	1	7
563.385	1	11
563.725	1	11
564.064	1	11
564.404	1	3
564.744	1	6
565.084	1	-3
565.424	1	0
565.764	1	9
566.104	1	7
566.444	1	7
566.783	1	5
567.123	1	24
567.463	1	9
567.803	1	0
568.143	1	-1
568.483	1	-1
568.823	1	18
569.162	1	12
569.502	1	6
569.842	1	9
570.182	1	-2
570.522	1	14
570.862	1	11
571.201	1	8
571.541	1	-9
571.881	1	5
572.221	1	10
572.561	1	-2
572.900	1	19
573.240	1	2
573.580	1	7
573.920	1	1
574.260	1	4
574.599	1	7
574.939	1	7
575.279	1	8
575.619	1	8
575.959	1	-7
576.298	1	-3
576.638	1	8
576.978	1	10
577.318	1	14
577.657	1	-1
577.997	1	-2
578.337	1	2
578.677	1	4
579.016	1	11
579.356	1	1
579.696	1	7
580.036	1	-2
580.375	1	-2
580.715	1	1
581.055	1	4
581.394	1	-3
581.734	1	9
582.074	1	3
582.414	1	10
582.753	1	15
583.093	1	2
583.433	1	-1
583.772	1	5
584.112	1	5
584.452	1	4
584.791	1	1
585.131	1	1
585.471	1	-3
585.811	1	9
586.150	1	9
586.490	1	-4
586.830	1	-8
587.169	1	-1
587.509	1	5
587.849	1	18
588.188	1	9
588.528	1	8
588.867	1	13
589.207	1	-6
589.547	1	-1
589.886	1	2
590.226	1	6
590.566	1	-1
590.905	1	6
591.245	1	3
591.585	1	-10
591.924	1	6
592.264	1	5
592.603	1	6
592.943	1	0
593.283	1	11
593.622	1	-4
593.962	1	10
594.301	1	23
594.641	1	4
594.981	1	6
595.320	1	10
595.660	1	-3
595.999	1	1
596.339	1	4
596.678	1	11
597.018	1	1
597.358	1	9
597.697	1	-4
598.037	1	3
598.376	1	8
598.716	1	6
599.055	1	9
599.395	1	9
599.734	1	1
600.074	1	7
600.413	1	11
600.753	1	2
601.092	1	-8
601.432	1	6
601.771	1	10
602.111	1	-5
602.451	1	1
602.790	1	4
603.130	1	8
603.469	1	-1
603.809	1	8
604.148	1	1
604.487	1	7
604.827	1	-8
605.166	1	5
605.506	1	9
605.845	1	2
606.185	1	3
606.524	1	2
606.864	1	3
607.203	1	6
607.543	1	-5
607.882	1	-4
608.222	1	9
608.561	1	2
608.901	1	11
609.240	1	1
609.579	1	7
609.919	1	-7
610.258	1	10
610.598	1	5
610.937	1	-3
611.277	1	9
611.616	1	-2
611.955	1	8
612.295	1	3
612.634	1	8
612.974	1	11
613.313	1	10
613.652	1	10
613.992	1	6
614.331	1	2
614.671	1	3
615.010	1	10
615.349	1	9
615.689	1	9
616.028	1	-3
616.368	1	-2
616.707	1	0
617.046	1	3
617.386	1	-7
617.725	1	13
618.064	1	5
618.404	1	10
618.743	1	-2
619.082	1	-2
619.422	1	2
619.761	1	13
620.100	1	-4
620.440	1	10
620.779	1	-1
621.118	1	3
621.458	1	11
621.797	1	1
622.136	1	2
622.476	1	6
622.815	1	2
623.154	1	11
623.494	1	12
623.833	1	7
624.172	1	6
624.511	1	-3
624.851	1	-7
625.190	1	15
625.529	1	13
625.869	1	5
626.208	1	0
626.547	1	-1
626.886	1	6
627.226	1	-5
627.565	1	7
627.904	1	-2
628.243	1	-5
628.583	1	6
628.922	1	1
629.261	1	4
629.600	1	17
629.940	1	4
630.279	1	0
630.618	1	3
630.957	1	6
631.297	1	5
631.636	1	0
631.975	1	8
632.314	1	11
632.653	1	-9
632.993	1	8
633.332	1	2
633.671	1	0
634.010	1	6
634.349	1	11
634.689	1	15
635.028	1	8
635.367	1	1
635.706	1	-4
636.045	1	7
636.384	1	9
636.724	1	7
637.063	1	5
637.402	1	8
637.741	1	15
638.080	1	8
638.419	1	12
638.759	1	14
639.098	1	0
639.437	1	-15
639.776	1	5
640.115	1	-1
640.454	1	16
640.793	1	11
641.132	1	12
641.472	1	-2
641.811	1	-2
642.150	1	7
642.489	1	4
642.828	1	4
643.167	1	7
643.506	1	-1
643.845	1	1
644.184	1	4
644.524	1	6
644.863	1	-3
645.202	1	-2
645.541	1	-8
645.880	1	5
646.219	1	11
646.558	1	7
646.897	1	2
647.236	1	13
647.575	1	8
647.914	1	2
648.253	1	9
648.592	1	12
648.931	1	13
649.270	1	18
649.610	1	17
649.949	1	1
650.288	1	-3
650.627	1	0
650.966	1	0
651.305	1	-10
651.644	1	1
651.983	1	-5
652.322	1	16
652.661	1	5
653.000	1	4
653.339	1	9
653.678	1	5
654.017	1	-2
654.356	1	12
654.695	1	11
655.034	1	7
655.373	1	-7
655.712	1	-7
656.051	1	7
656.390	1	-1
656.729	1	1
657.068	1	-2
657.406	1	5
657.745	1	-3
658.084	1	11
658.423	1	6
658.762	1	-1
659.101	1	-2
659.440	1	12
659.779	1	6
660.118	1	15
660.457	1	0
660.796	1	-6
661.135	1	5
661.474	1	3
661.813	1	4
662.152	1	13
662.491	1	-4
662.829	1	-5
663.168	1	-10
663.507	1	1
663.846	1	5
664.185	1	-1
664.524	1	-3
664.863	1	2
665.202	1	-2
665.541	1	-11
665.879	1	1
666.218	1	8
666.557	1	-1
666.896	1	6
667.235	1	-6
667.574	1	6
667.913	1	-3
668.251	1	7
668.590	1	-3
668.929	1	8
669.268	1	7
669.607	1	-7
669.946	1	16
670.285	1	13
670.623	1	14
670.962	1	-4
671.301	1	-1
671.640	1	-15
671.979	1	12
672.317	1	6
672.656	1	1
672.995	1	0
673.334	1	4
673.673	1	25
674.011	1	5
674.350	1	6
674.689	1	-3
675.028	1	15
675.367	1	6
675.705	1	-3
676.044	1	0
676.383	1	-1
676.722	1	2
677.060	1	-3
677.399	1	0
677.738	1	-1
678.077	1	10
678.416	1	5
678.754	1	-7
679.093	1	3
679.432	1	-9
679.771	1	2
680.109	1	10
680.448	1	0
680.787	1	9
681.125	1	6
681.464	1	2
681.803	1	-5
682.142	1	24
682.480	1	8
682.819	1	8
683.158	1	2
683.496	1	1
683.835	1	11
684.174	1	3
684.512	1	0
684.851	1	4
685.190	1	15
685.529	1	-4
685.867	1	6
686.206	1	-2
686.545	1	13
686.883	1	3
687.222	1	6
687.561	1	3
687.899	1	-1
688.238	1	-3
688.577	1	-1
688.746	1	5