File: Analysis/GaN_68K_200ms/GaN_sample E_spot4_UVVIS_68 K_200um_200 ms 2x2mm1_154.txt
340.368	1	-2
340.710	1	-10
341.052	1	3
341.394	1	-1
341.737	1	6
342.079	1	5
342.421	1	0
342.763	1	-1
343.105	1	12
343.447	1	-1
343.789	1	-5
344.131	1	-2
344.473	1	1
344.815	1	6
345.157	1	11
345.499	1	6
345.841	1	11
346.183	1	9
346.526	1	8
346.868	1	11
347.210	1	7
347.552	1	1
347.894	1	1
348.236	1	7
348.578	1	5
348.920	1	16
349.262	1	-4
349.604	1	12
349.946	1	17
350.288	1	4
350.630	1	5
350.972	1	6
351.314	1	8
351.656	1	11
351.998	1	-1
352.340	1	9
352.682	1	6
353.024	1	10
353.366	1	6
353.708	1	11
354.050	1	10
354.392	1	14
354.734	1	8
355.076	1	5
355.418	1	12
355.760	1	7
356.102	1	2
356.444	1	11
356.785	1	15
357.127	1	4
357.469	1	9
357.811	1	21
358.153	1	15
358.495	1	19
358.837	1	11
359.179	1	21
359.521	1	12
359.863	1	0
360.205	1	18
360.547	1	16
360.889	1	22
361.231	1	24
361.572	1	11
361.914	1	17
362.256	1	17
362.598	1	21
362.940	1	31
363.282	1	36
363.624	1	28
363.966	1	37
364.308	1	35
364.649	1	47
364.991	1	54
365.333	1	56
365.675	1	47
366.017	1	58
366.359	1	50
366.701	1	67
367.042	1	67
367.384	1	74
367.726	1	68
368.068	1	54
368.410	1	54
368.752	1	51
369.093	1	54
369.435	1	58
369.777	1	39
370.119	1	54
370.461	1	46
370.803	1	42
371.144	1	48
371.486	1	45
371.828	1	40
372.170	1	45
372.512	1	37
372.853	1	39
373.195	1	16
373.537	1	36
373.879	1	39
374.220	1	35
374.562	1	34
374.904	1	28
375.246	1	24
375.588	1	12
375.929	1	19
376.271	1	31
376.613	1	19
376.955	1	15
377.296	1	33
377.638	1	18
377.980	1	31
378.321	1	17
378.663	1	24
379.005	1	27
379.347	1	12
379.688	1	11
380.030	1	13
380.372	1	30
380.714	1	25
381.055	1	19
381.397	1	14
381.739	1	25
382.080	1	5
382.422	1	35
382.764	1	28
383.105	1	30
383.447	1	50
383.789	1	38
384.130	1	32
384.472	1	39
384.814	1	53
385.156	1	58
385.497	1	49
385.839	1	55
386.180	1	64
386.522	1	66
386.864	1	58
387.205	1	67
387.547	1	52
387.889	1	72
388.230	1	60
388.572	1	67
388.914	1	72
389.255	1	71
389.597	1	63
389.939	1	62
390.280	1	53
390.622	1	68
390.963	1	56
391.305	1	66
391.647	1	50
391.988	1	44
392.330	1	59
392.671	1	53
393.013	1	52
393.355	1	62
393.696	1	58
394.038	1	43
394.379	1	39
394.721	1	51
395.062	1	52
395.404	1	53
395.746	1	34
396.087	1	48
396.429	1	63
396.770	1	57
397.112	1	52
397.453	1	44
397.795	1	65
398.136	1	66
398.478	1	58
398.819	1	59
399.161	1	63
399.503	1	59
399.844	1	54
400.186	1	58
400.527	1	43
400.869	1	69
401.210	1	52
401.552	1	59
401.893	1	45
402.235	1	43
402.576	1	54
402.918	1	39
403.259	1	35
403.601	1	32
403.942	1	48
404.284	1	33
404.625	1	49
404.967	1	49
405.308	1	26
405.649	1	37
405.991	1	50
406.332	1	38
406.674	1	46
407.015	1	38
407.357	1	42
407.698	1	32
408.040	1	38
408.381	1	40
408.722	1	43
409.064	1	33
409.405	1	37
409.747	1	35
410.088	1	41
410.430	1	44
410.771	1	39
411.112	1	32
411.454	1	43
411.795	1	41
412.137	1	34
412.478	1	40
412.819	1	30
413.161	1	23
413.502	1	18
413.844	1	21
414.185	1	22
414.526	1	33
414.868	1	36
415.209	1	31
415.550	1	18
415.892	1	25
416.233	1	27
416.575	1	22
416.916	1	16
417.257	1	26
417.599	1	24
417.940	1	25
418.281	1	26
418.623	1	20
418.964	1	21
419.305	1	30
419.647	1	27
419.988	1	26
420.329	1	27
420.671	1	23
421.012	1	34
421.353	1	26
421.695	1	28
422.036	1	15
422.377	1	16
422.718	1	12
423.060	1	14
423.401	1	20
423.742	1	18
424.084	1	24
424.425	1	8
424.766	1	27
425.107	1	28
425.449	1	23
425.790	1	17
426.131	1	16
426.472	1	12
426.814	1	21
427.155	1	17
427.496	1	22
427.837	1	16
428.179	1	11
428.520	1	13
428.861	1	12
429.202	1	22
429.544	1	22
429.885	1	16
430.226	1	8
430.567	1	30
430.909	1	11
431.250	1	7
431.591	1	20
431.932	1	24
432.273	1	11
432.615	1	11
432.956	1	9
433.297	1	18
433.638	1	16
433.979	1	4
434.320	1	18
434.662	1	8
435.003	1	21
435.344	1	21
435.685	1	28
436.026	1	14
436.368	1	9
436.709	1	0
437.050	1	11
437.391	1	21
437.732	1	13
438.073	1	14
438.414	1	19
438.756	1	12
439.097	1	18
439.438	1	19
439.779	1	12
440.120	1	11
440.461	1	2
440.802	1	22
441.143	1	27
441.485	1	9
441.826	1	1
442.167	1	17
442.508	1	8
442.849	1	24
443.190	1	4
443.531	1	13
443.872	1	14
444.213	1	10
444.554	1	8
444.895	1	11
445.237	1	1
445.578	1	11
445.919	1	8
446.260	1	14
446.601	1	3
446.942	1	14
447.283	1	10
447.624	1	13
447.965	1	1
448.306	1	4
448.647	1	15
448.988	1	-5
449.329	1	10
449.670	1	14
450.011	1	5
450.352	1	17
450.693	1	16
451.034	1	15
451.375	1	21
451.716	1	7
452.057	1	17
452.398	1	10
452.739	1	10
453.080	1	18
453.421	1	19
453.762	1	12
454.103	1	5
454.444	1	17
454.785	1	-3
455.126	1	8
455.467	1	9
455.808	1	5
456.149	1	5
456.490	1	12
456.831	1	11
457.172	1	3
457.513	1	11
457.854	1	9
458.195	1	4
458.536	1	10
458.877	1	6
459.218	1	12
459.559	1	6
459.899	1	22
460.240	1	13
460.581	1	12
460.922	1	7
461.263	1	11
461.604	1	11
461.945	1	20
462.286	1	23
462.627	1	0
462.968	1	3
463.309	1	2
463.649	1	9
463.990	1	8
464.331	1	11
464.672	1	10
465.013	1	-2
465.354	1	12
465.695	1	15
466.036	1	9
466.376	1	7
466.717	1	5
467.058	1	19
467.399	1	10
467.740	1	5
468.081	1	3
468.422	1	12
468.762	1	-1
469.103	1	2
469.444	1	4
469.785	1	6
470.126	1	12
470.467	1	0
470.807	1	10
471.148	1	-1
471.489	1	9
471.830	1	16
472.171	1	4
472.511	1	15
472.852	1	7
473.193	1	8
473.534	1	4
473.875	1	5
474.215	1	3
474.556	1	0
474.897	1	8
475.238	1	7
475.578	1	11
475.919	1	18
476.260	1	8
476.601	1	13
476.942	1	4
477.282	1	2
477.623	1	13
477.964	1	11
478.305	1	11
478.645	1	11
478.986	1	10
479.327	1	0
479.667	1	9
480.008	1	6
480.349	1	11
480.690	1	4
481.030	1	8
481.371	1	12
481.712	1	9
482.053	1	13
482.393	1	1
482.734	1	7
483.075	1	17
483.415	1	22
483.756	1	13
484.097	1	-1
484.437	1	2
484.778	1	13
485.119	1	20
485.459	1	5
485.800	1	12
486.141	1	-5
486.481	1	18
486.822	1	18
487.163	1	3
487.503	1	2
487.844	1	13
488.185	1	7
488.525	1	6
488.866	1	20
489.207	1	16
489.547	1	6
489.888	1	10
490.228	1	0
490.569	1	22
490.910	1	7
491.250	1	12
491.591	1	2
491.932	1	13
492.272	1	21
492.613	1	18
492.953	1	15
493.294	1	33
493.635	1	3
493.975	1	11
494.316	1	16
494.656	1	18
494.997	1	9
495.337	1	18
495.678	1	17
496.019	1	10
496.359	1	12
496.700	1	21
497.040	1	21
497.381	1	-5
497.721	1	10
498.062	1	13
498.403	1	22
498.743	1	25
499.084	1	9
499.424	1	27
499.765	1	18
500.105	1	21
500.446	1	31
500.786	1	19
501.127	1	29
501.467	1	21
501.808	1	13
502.148	1	21
502.489	1	25
502.829	1	20
503.170	1	30
503.510	1	17
503.851	1	3
504.191	1	20
504.532	1	12
504.872	1	23
505.213	1	22
505.553	1	32
505.894	1	28
506.234	1	32
506.575	1	16
506.915	1	22
507.256	1	18
507.596	1	28
507.936	1	31
508.277	1	23
508.617	1	37
508.958	1	30
509.298	1	44
509.639	1	42
509.979	1	33
510.319	1	31
510.660	1	36
511.000	1	40
511.341	1	28
511.681	1	32
512.022	1	18
512.362	1	34
512.702	1	39
513.043	1	40
513.383	1	32
513.724	1	40
514.064	1	30
514.404	1	36
514.745	1	32
515.085	1	36
515.425	1	30
515.766	1	39
516.106	1	30
516.447	1	43
516.787	1	31
517.127	1	37
517.468	1	35
517.808	1	32
518.148	1	34
518.489	1	32
518.829	1	26
519.169	1	55
519.510	1	45
519.850	1	42
520.190	1	48
520.531	1	48
520.871	1	44
521.211	1	41
521.552	1	46
521.892	1	34
522.232	1	43
522.573	1	44
522.913	1	41
523.253	1	44
523.593	1	39
523.934	1	44
524.274	1	46
524.614	1	35
524.955	1	47
525.295	1	38
525.635	1	53
525.975	1	28
526.316	1	53
526.656	1	60
526.996	1	60
527.337	1	54
527.677	1	53
528.017	1	33
528.357	1	46
528.698	1	41
529.038	1	44
529.378	1	43
529.718	1	50
530.058	1	36
530.399	1	57
530.739	1	42
531.079	1	49
531.419	1	56
531.760	1	41
532.100	1	57
532.440	1	43
532.780	1	43
533.120	1	39
533.461	1	60
533.801	1	51
534.141	1	55
534.481	1	50
534.821	1	54
535.162	1	45
535.502	1	48
535.842	1	58
536.182	1	47
536.522	1	47
536.862	1	56
537.203	1	54
537.543	1	42
537.883	1	41
538.223	1	48
538.563	1	50
538.903	1	43
539.243	1	38
539.584	1	45
539.924	1	42
540.264	1	50
540.604	1	47
540.944	1	50
541.284	1	39
541.624	1	42
541.964	1	40
542.305	1	36
542.645	1	42
542.985	1	32
543.325	1	33
543.665	1	47
544.005	1	42
544.345	1	38
544.685	1	49
545.025	1	40
545.365	1	41
545.705	1	44
546.045	1	50
546.386	1	49
546.726	1	40
547.066	1	30
547.406	1	40
547.746	1	53
548.086	1	40
548.426	1	33
548.766	1	42
549.106	1	30
549.446	1	39
549.786	1	45
550.126	1	30
550.466	1	20
550.806	1	45
551.146	1	23
551.486	1	33
551.826	1	50
552.166	1	46
552.506	1	25
552.846	1	29
553.186	1	35
553.526	1	31
553.866	1	35
554.206	1	44
554.546	1	17
554.886	1	37
555.226	1	30
555.566	1	35
555.906	1	36
556.246	1	30
556.586	1	30
556.926	1	41
557.266	1	42
557.606	1	18
557.946	1	35
558.286	1	45
558.626	1	32
558.966	1	17
559.306	1	30
559.646	1	16
559.986	1	24
560.325	1	19
560.665	1	31
561.005	1	24
561.345	1	19
561.685	1	24
562.025	1	18
562.365	1	25
562.705	1	35
563.045	1	29
563.385	1	24
563.725	1	33
564.064	1	37
564.404	1	23
564.744	1	26
565.084	1	15
565.424	1	24
565.764	1	37
566.104	1	12
566.444	1	28
566.783	1	29
567.123	1	34
567.463	1	25
567.803	1	20
568.143	1	12
568.483	1	19
568.823	1	20
569.162	1	20
569.502	1	24
569.842	1	13
570.182	1	6
570.522	1	21
570.862	1	23
571.201	1	30
571.541	1	9
571.881	1	15
572.221	1	19
572.561	1	13
572.900	1	27
573.240	1	15
573.580	1	20
573.920	1	5
574.260	1	21
574.599	1	15
574.939	1	5
575.279	1	24
575.619	1	18
575.959	1	9
576.298	1	9
576.638	1	17
576.978	1	23
577.318	1	25
577.657	1	3
577.997	1	7
578.337	1	10
578.677	1	18
579.016	1	31
579.356	1	6
579.696	1	20
580.036	1	4
580.375	1	20
580.715	1	26
581.055	1	19
581.394	1	7
581.734	1	26
582.074	1	9
582.414	1	24
582.753	1	15
583.093	1	0
583.433	1	10
583.772	1	24
584.112	1	14
584.452	1	16
584.791	1	11
585.131	1	11
585.471	1	-4
585.811	1	12
586.150	1	18
586.490	1	8
586.830	1	0
587.169	1	7
587.509	1	15
587.849	1	27
588.188	1	13
588.528	1	11
588.867	1	20
589.207	1	15
589.547	1	11
589.886	1	1
590.226	1	10
590.566	1	8
590.905	1	18
591.245	1	9
591.585	1	-2
591.924	1	6
592.264	1	8
592.603	1	4
592.943	1	9
593.283	1	18
593.622	1	8
593.962	1	3
594.301	1	22
594.641	1	18
594.981	1	7
595.320	1	15
595.660	1	7
595.999	1	9
596.339	1	10
596.678	1	13
597.018	1	7
597.358	1	2
597.697	1	0
598.037	1	16
598.376	1	7
598.716	1	1
599.055	1	7
599.395	1	15
599.734	1	3
600.074	1	6
600.413	1	7
600.753	1	10
601.092	1	1
601.432	1	13
601.771	1	17
602.111	1	1
602.451	1	2
602.790	1	16
603.130	1	12
603.469	1	3
603.809	1	15
604.148	1	11
604.487	1	20
604.827	1	-3
605.166	1	3
605.506	1	8
605.845	1	10
606.185	1	6
606.524	1	1
606.864	1	8
607.203	1	24
607.543	1	3
607.882	1	1
608.222	1	9
608.561	1	23
608.901	1	11
609.240	1	5
609.579	1	8
609.919	1	3
610.258	1	18
610.598	1	20
610.937	1	6
611.277	1	12
611.616	1	0
611.955	1	14
612.295	1	18
612.634	1	-1
612.974	1	13
613.313	1	16
613.652	1	9
613.992	1	6
614.331	1	6
614.671	1	10
615.010	1	7
615.349	1	1
615.689	1	9
616.028	1	10
616.368	1	12
616.707	1	4
617.046	1	8
617.386	1	12
617.725	1	6
618.064	1	9
618.404	1	12
618.743	1	12
619.082	1	8
619.422	1	9
619.761	1	11
620.100	1	19
620.440	1	12
620.779	1	-2
621.118	1	-4
621.458	1	11
621.797	1	11
622.136	1	10
622.476	1	4
622.815	1	7
623.154	1	14
623.494	1	7
623.833	1	10
624.172	1	11
624.511	1	6
624.851	1	2
625.190	1	4
625.529	1	13
625.869	1	5
626.208	1	6
626.547	1	4
626.886	1	3
627.226	1	11
627.565	1	20
627.904	1	6
628.243	1	4
628.583	1	7
628.922	1	4
629.261	1	14
629.600	1	19
629.940	1	1
630.279	1	-2
630.618	1	6
630.957	1	-1
631.297	1	-3
631.636	1	-1
631.975	1	11
632.314	1	15
632.653	1	-10
632.993	1	10
633.332	1	4
633.671	1	10
634.010	1	8
634.349	1	17
634.689	1	11
635.028	1	9
635.367	1	-1
635.706	1	2
636.045	1	14
636.384	1	14
636.724	1	9
637.063	1	19
637.402	1	15
637.741	1	16
638.080	1	5
638.419	1	12
638.759	1	4
639.098	1	8
639.437	1	-10
639.776	1	12
640.115	1	4
640.454	1	7
640.793	1	7
641.132	1	16
641.472	1	8
641.811	1	6
642.150	1	2
642.489	1	6
642.828	1	9
643.167	1	20
643.506	1	1
643.845	1	2
644.184	1	15
644.524	1	-1
644.863	1	3
645.202	1	5
645.541	1	-9
645.880	1	7
646.219	1	8
646.558	1	8
646.897	1	3
647.236	1	8
647.575	1	14
647.914	1	6
648.253	1	5
648.592	1	6
648.931	1	15
649.270	1	15
649.610	1	17
649.949	1	2
650.288	1	1
650.627	1	2
650.966	1	-10
651.305	1	7
651.644	1	5
651.983	1	5
652.322	1	10
652.661	1	4
653.000	1	-3
653.339	1	8
653.678	1	17
654.017	1	4
654.356	1	14
654.695	1	8
655.034	1	7
655.373	1	5
655.712	1	3
656.051	1	10
656.390	1	6
656.729	1	11
657.068	1	-2
657.406	1	8
657.745	1	6
658.084	1	13
658.423	1	-6
658.762	1	-4
659.101	1	-4
659.440	1	15
659.779	1	3
660.118	1	-1
660.457	1	-7
660.796	1	-4
661.135	1	-3
661.474	1	5
661.813	1	16
662.152	1	7
662.491	1	2
662.829	1	7
663.168	1	-6
663.507	1	-8
663.846	1	5
664.185	1	3
664.524	1	-1
664.863	1	4
665.202	1	-4
665.541	1	5
665.879	1	-7
666.218	1	3
666.557	1	4
666.896	1	0
667.235	1	8
667.574	1	9
667.913	1	6
668.251	1	5
668.590	1	4
668.929	1	12
669.268	1	2
669.607	1	-1
669.946	1	10
670.285	1	5
670.623	1	4
670.962	1	2
671.301	1	3
671.640	1	-11
671.979	1	12
672.317	1	7
672.656	1	0
672.995	1	1
673.334	1	14
673.673	1	24
674.011	1	11
674.350	1	4
674.689	1	8
675.028	1	15
675.367	1	10
675.705	1	-5
676.044	1	8
676.383	1	7
676.722	1	8
677.060	1	1
677.399	1	10
677.738	1	5
678.077	1	7
678.416	1	10
678.754	1	-1
679.093	1	8
679.432	1	-6
679.771	1	3
680.109	1	11
680.448	1	8
680.787	1	8
681.125	1	11
681.464	1	10
681.803	1	-2
682.142	1	18
682.480	1	-1
682.819	1	5
683.158	1	5
683.496	1	-1
683.835	1	16
684.174	1	4
684.512	1	10
684.851	1	3
685.190	1	15
685.529	1	5
685.867	1	11
686.206	1	5
686.545	1	8
686.883	1	-6
687.222	1	-2
687.561	1	6
687.899	1	7
688.238	1	17
688.577	1	3
688.746	1	13