File: Analysis/GaN_68K_200ms/GaN_sample E_spot4_UVVIS_68 K_200um_200 ms 2x2mm1_297.txt
340.368	1	3
340.710	1	-4
341.052	1	4
341.394	1	4
341.737	1	9
342.079	1	-1
342.421	1	-7
342.763	1	0
343.105	1	12
343.447	1	6
343.789	1	-8
344.131	1	-4
344.473	1	5
344.815	1	2
345.157	1	7
345.499	1	13
345.841	1	2
346.183	1	4
346.526	1	1
346.868	1	1
347.210	1	2
347.552	1	-3
347.894	1	3
348.236	1	6
348.578	1	2
348.920	1	10
349.262	1	5
349.604	1	19
349.946	1	11
350.288	1	11
350.630	1	-11
350.972	1	0
351.314	1	-4
351.656	1	6
351.998	1	-23
352.340	1	-7
352.682	1	-1
353.024	1	0
353.366	1	6
353.708	1	4
354.050	1	-1
354.392	1	6
354.734	1	7
355.076	1	11
355.418	1	1
355.760	1	8
356.102	1	-3
356.444	1	14
356.785	1	1
357.127	1	0
357.469	1	-1
357.811	1	13
358.153	1	10
358.495	1	2
358.837	1	4
359.179	1	2
359.521	1	7
359.863	1	0
360.205	1	-2
360.547	1	3
360.889	1	2
361.231	1	8
361.572	1	0
361.914	1	-5
362.256	1	16
362.598	1	-1
362.940	1	-1
363.282	1	7
363.624	1	13
363.966	1	10
364.308	1	3
364.649	1	17
364.991	1	10
365.333	1	24
365.675	1	4
366.017	1	10
366.359	1	10
366.701	1	5
367.042	1	14
367.384	1	16
367.726	1	14
368.068	1	2
368.410	1	2
368.752	1	-2
369.093	1	1
369.435	1	2
369.777	1	0
370.119	1	15
370.461	1	6
370.803	1	7
371.144	1	10
371.486	1	13
371.828	1	3
372.170	1	14
372.512	1	5
372.853	1	6
373.195	1	1
373.537	1	5
373.879	1	3
374.220	1	1
374.562	1	8
374.904	1	8
375.246	1	7
375.588	1	0
375.929	1	6
376.271	1	0
376.613	1	9
376.955	1	2
377.296	1	17
377.638	1	4
377.980	1	8
378.321	1	5
378.663	1	-10
379.005	1	17
379.347	1	2
379.688	1	3
380.030	1	-3
380.372	1	13
380.714	1	0
381.055	1	0
381.397	1	3
381.739	1	-2
382.080	1	-5
382.422	1	10
382.764	1	-3
383.105	1	10
383.447	1	13
383.789	1	1
384.130	1	11
384.472	1	2
384.814	1	4
385.156	1	15
385.497	1	17
385.839	1	16
386.180	1	14
386.522	1	5
386.864	1	4
387.205	1	4
387.547	1	2
387.889	1	21
388.230	1	6
388.572	1	1
388.914	1	19
389.255	1	14
389.597	1	9
389.939	1	23
390.280	1	12
390.622	1	2
390.963	1	9
391.305	1	16
391.647	1	8
391.988	1	-4
392.330	1	7
392.671	1	19
393.013	1	20
393.355	1	22
393.696	1	10
394.038	1	2
394.379	1	-2
394.721	1	9
395.062	1	6
395.404	1	12
395.746	1	8
396.087	1	3
396.429	1	8
396.770	1	16
397.112	1	-1
397.453	1	2
397.795	1	9
398.136	1	18
398.478	1	-3
398.819	1	12
399.161	1	3
399.503	1	15
399.844	1	7
400.186	1	12
400.527	1	4
400.869	1	12
401.210	1	4
401.552	1	23
401.893	1	10
402.235	1	15
402.576	1	16
402.918	1	-3
403.259	1	-1
403.601	1	3
403.942	1	2
404.284	1	5
404.625	1	7
404.967	1	11
405.308	1	5
405.649	1	6
405.991	1	5
406.332	1	-1
406.674	1	11
407.015	1	3
407.357	1	13
407.698	1	8
408.040	1	5
408.381	1	7
408.722	1	0
409.064	1	7
409.405	1	1
409.747	1	3
410.088	1	11
410.430	1	15
410.771	1	8
411.112	1	14
411.454	1	13
411.795	1	10
412.137	1	14
412.478	1	3
412.819	1	3
413.161	1	7
413.502	1	2
413.844	1	3
414.185	1	16
414.526	1	6
414.868	1	13
415.209	1	7
415.550	1	4
415.892	1	3
416.233	1	2
416.575	1	0
416.916	1	-2
417.257	1	5
417.599	1	10
417.940	1	-1
418.281	1	1
418.623	1	6
418.964	1	9
419.305	1	-3
419.647	1	12
419.988	1	7
420.329	1	6
420.671	1	11
421.012	1	12
421.353	1	13
421.695	1	3
422.036	1	1
422.377	1	5
422.718	1	1
423.060	1	3
423.401	1	3
423.742	1	4
424.084	1	14
424.425	1	8
424.766	1	6
425.107	1	13
425.449	1	14
425.790	1	3
426.131	1	0
426.472	1	-3
426.814	1	16
427.155	1	-2
427.496	1	14
427.837	1	-4
428.179	1	-7
428.520	1	2
428.861	1	5
429.202	1	19
429.544	1	7
429.885	1	-2
430.226	1	-1
430.567	1	11
430.909	1	-4
431.250	1	-5
431.591	1	5
431.932	1	9
432.273	1	3
432.615	1	6
432.956	1	8
433.297	1	15
433.638	1	0
433.979	1	-2
434.320	1	0
434.662	1	-2
435.003	1	6
435.344	1	6
435.685	1	6
436.026	1	5
436.368	1	11
436.709	1	-9
437.050	1	9
437.391	1	2
437.732	1	3
438.073	1	5
438.414	1	3
438.756	1	7
439.097	1	1
439.438	1	11
439.779	1	6
440.120	1	16
440.461	1	-4
440.802	1	5
441.143	1	10
441.485	1	-4
441.826	1	-2
442.167	1	8
442.508	1	2
442.849	1	18
443.190	1	-11
443.531	1	-1
443.872	1	-5
444.213	1	-10
444.554	1	1
444.895	1	1
445.237	1	0
445.578	1	14
445.919	1	0
446.260	1	14
446.601	1	-7
446.942	1	4
447.283	1	-3
447.624	1	17
447.965	1	-6
448.306	1	2
448.647	1	17
448.988	1	-1
449.329	1	6
449.670	1	8
450.011	1	0
450.352	1	5
450.693	1	7
451.034	1	9
451.375	1	-4
451.716	1	8
452.057	1	3
452.398	1	2
452.739	1	0
453.080	1	17
453.421	1	4
453.762	1	3
454.103	1	3
454.444	1	15
454.785	1	-4
455.126	1	4
455.467	1	-1
455.808	1	9
456.149	1	8
456.490	1	6
456.831	1	17
457.172	1	9
457.513	1	6
457.854	1	3
458.195	1	5
458.536	1	1
458.877	1	6
459.218	1	6
459.559	1	9
459.899	1	6
460.240	1	10
460.581	1	9
460.922	1	0
461.263	1	12
461.604	1	4
461.945	1	6
462.286	1	10
462.627	1	3
462.968	1	-2
463.309	1	1
463.649	1	9
463.990	1	11
464.331	1	3
464.672	1	6
465.013	1	-12
465.354	1	-5
465.695	1	10
466.036	1	-1
466.376	1	3
466.717	1	-4
467.058	1	12
467.399	1	11
467.740	1	-1
468.081	1	-2
468.422	1	5
468.762	1	-3
469.103	1	4
469.444	1	-8
469.785	1	6
470.126	1	8
470.467	1	-5
470.807	1	4
471.148	1	-8
471.489	1	1
471.830	1	1
472.171	1	7
472.511	1	8
472.852	1	-9
473.193	1	3
473.534	1	-3
473.875	1	-5
474.215	1	9
474.556	1	-3
474.897	1	3
475.238	1	-2
475.578	1	11
475.919	1	9
476.260	1	6
476.601	1	1
476.942	1	3
477.282	1	-13
477.623	1	10
477.964	1	19
478.305	1	-2
478.645	1	-4
478.986	1	13
479.327	1	-2
479.667	1	8
480.008	1	5
480.349	1	-2
480.690	1	10
481.030	1	-4
481.371	1	4
481.712	1	-1
482.053	1	8
482.393	1	-10
482.734	1	5
483.075	1	2
483.415	1	7
483.756	1	10
484.097	1	-6
484.437	1	-10
484.778	1	11
485.119	1	6
485.459	1	4
485.800	1	-3
486.141	1	-3
486.481	1	13
486.822	1	11
487.163	1	-7
487.503	1	-12
487.844	1	7
488.185	1	-2
488.525	1	-6
488.866	1	5
489.207	1	11
489.547	1	9
489.888	1	3
490.228	1	-4
490.569	1	17
490.910	1	-2
491.250	1	2
491.591	1	3
491.932	1	6
492.272	1	8
492.613	1	2
492.953	1	0
493.294	1	11
493.635	1	1
493.975	1	-7
494.316	1	16
494.656	1	6
494.997	1	4
495.337	1	5
495.678	1	16
496.019	1	-11
496.359	1	5
496.700	1	2
497.040	1	6
497.381	1	-23
497.721	1	0
498.062	1	-5
498.403	1	8
498.743	1	8
499.084	1	-10
499.424	1	7
499.765	1	-2
500.105	1	14
500.446	1	5
500.786	1	4
501.127	1	12
501.467	1	-2
501.808	1	-6
502.148	1	6
502.489	1	15
502.829	1	-1
503.170	1	9
503.510	1	6
503.851	1	-5
504.191	1	-2
504.532	1	3
504.872	1	-1
505.213	1	1
505.553	1	9
505.894	1	6
506.234	1	12
506.575	1	3
506.915	1	3
507.256	1	-5
507.596	1	7
507.936	1	15
508.277	1	-2
508.617	1	5
508.958	1	10
509.298	1	22
509.639	1	11
509.979	1	-1
510.319	1	4
510.660	1	3
511.000	1	5
511.341	1	0
511.681	1	2
512.022	1	-5
512.362	1	4
512.702	1	-12
513.043	1	0
513.383	1	2
513.724	1	13
514.064	1	7
514.404	1	7
514.745	1	-4
515.085	1	-2
515.425	1	5
515.766	1	13
516.106	1	2
516.447	1	5
516.787	1	-1
517.127	1	11
517.468	1	1
517.808	1	11
518.148	1	4
518.489	1	5
518.829	1	10
519.169	1	13
519.510	1	14
519.850	1	-5
520.190	1	5
520.531	1	4
520.871	1	4
521.211	1	5
521.552	1	6
521.892	1	0
522.232	1	-2
522.573	1	6
522.913	1	4
523.253	1	5
523.593	1	-13
523.934	1	11
524.274	1	-3
524.614	1	1
524.955	1	1
525.295	1	1
525.635	1	14
525.975	1	3
526.316	1	-4
526.656	1	16
526.996	1	15
527.337	1	2
527.677	1	18
528.017	1	9
528.357	1	10
528.698	1	2
529.038	1	13
529.378	1	6
529.718	1	9
530.058	1	12
530.399	1	11
530.739	1	6
531.079	1	17
531.419	1	17
531.760	1	13
532.100	1	12
532.440	1	4
532.780	1	4
533.120	1	5
533.461	1	16
533.801	1	8
534.141	1	12
534.481	1	8
534.821	1	13
535.162	1	8
535.502	1	8
535.842	1	5
536.182	1	4
536.522	1	18
536.862	1	13
537.203	1	9
537.543	1	4
537.883	1	11
538.223	1	8
538.563	1	10
538.903	1	5
539.243	1	9
539.584	1	6
539.924	1	5
540.264	1	11
540.604	1	4
540.944	1	6
541.284	1	8
541.624	1	2
541.964	1	3
542.305	1	0
542.645	1	-3
542.985	1	5
543.325	1	5
543.665	1	20
544.005	1	8
544.345	1	6
544.685	1	19
545.025	1	0
545.365	1	4
545.705	1	13
546.045	1	12
546.386	1	10
546.726	1	3
547.066	1	0
547.406	1	5
547.746	1	20
548.086	1	10
548.426	1	2
548.766	1	1
549.106	1	13
549.446	1	1
549.786	1	8
550.126	1	1
550.466	1	-3
550.806	1	6
551.146	1	-2
551.486	1	15
551.826	1	4
552.166	1	-2
552.506	1	9
552.846	1	1
553.186	1	12
553.526	1	0
553.866	1	5
554.206	1	8
554.546	1	-1
554.886	1	3
555.226	1	0
555.566	1	12
555.906	1	8
556.246	1	6
556.586	1	10
556.926	1	7
557.266	1	14
557.606	1	-4
557.946	1	13
558.286	1	5
558.626	1	12
558.966	1	4
559.306	1	-5
559.646	1	2
559.986	1	1
560.325	1	2
560.665	1	4
561.005	1	5
561.345	1	6
561.685	1	-2
562.025	1	5
562.365	1	4
562.705	1	8
563.045	1	11
563.385	1	7
563.725	1	5
564.064	1	10
564.404	1	0
564.744	1	-3
565.084	1	-6
565.424	1	0
565.764	1	16
566.104	1	4
566.444	1	8
566.783	1	2
567.123	1	13
567.463	1	2
567.803	1	0
568.143	1	-5
568.483	1	-1
568.823	1	8
569.162	1	12
569.502	1	2
569.842	1	0
570.182	1	-3
570.522	1	-1
570.862	1	8
571.201	1	5
571.541	1	1
571.881	1	5
572.221	1	8
572.561	1	-1
572.900	1	13
573.240	1	2
573.580	1	6
573.920	1	3
574.260	1	-5
574.599	1	2
574.939	1	-9
575.279	1	10
575.619	1	9
575.959	1	7
576.298	1	-6
576.638	1	3
576.978	1	2
577.318	1	8
577.657	1	5
577.997	1	-6
578.337	1	3
578.677	1	-4
579.016	1	-3
579.356	1	6
579.696	1	1
580.036	1	3
580.375	1	-1
580.715	1	10
581.055	1	14
581.394	1	-4
581.734	1	9
582.074	1	2
582.414	1	6
582.753	1	9
583.093	1	-12
583.433	1	-4
583.772	1	-8
584.112	1	10
584.452	1	6
584.791	1	10
585.131	1	-2
585.471	1	-7
585.811	1	4
586.150	1	3
586.490	1	-4
586.830	1	-1
587.169	1	0
587.509	1	9
587.849	1	2
588.188	1	5
588.528	1	9
588.867	1	4
589.207	1	-7
589.547	1	9
589.886	1	-3
590.226	1	4
590.566	1	-5
590.905	1	6
591.245	1	-2
591.585	1	-9
591.924	1	2
592.264	1	2
592.603	1	-5
592.943	1	-13
593.283	1	2
593.622	1	9
593.962	1	3
594.301	1	12
594.641	1	-2
594.981	1	9
595.320	1	8
595.660	1	-1
595.999	1	4
596.339	1	12
596.678	1	3
597.018	1	9
597.358	1	1
597.697	1	-2
598.037	1	7
598.376	1	10
598.716	1	-1
599.055	1	1
599.395	1	8
599.734	1	0
600.074	1	1
600.413	1	1
600.753	1	4
601.092	1	-12
601.432	1	1
601.771	1	5
602.111	1	-6
602.451	1	8
602.790	1	8
603.130	1	4
603.469	1	-2
603.809	1	-2
604.148	1	-3
604.487	1	6
604.827	1	-14
605.166	1	4
605.506	1	17
605.845	1	-2
606.185	1	-1
606.524	1	-2
606.864	1	4
607.203	1	10
607.543	1	-3
607.882	1	-1
608.222	1	9
608.561	1	15
608.901	1	14
609.240	1	-1
609.579	1	4
609.919	1	1
610.258	1	9
610.598	1	1
610.937	1	-6
611.277	1	10
611.616	1	-9
611.955	1	10
612.295	1	8
612.634	1	4
612.974	1	3
613.313	1	0
613.652	1	-5
613.992	1	8
614.331	1	5
614.671	1	-6
615.010	1	5
615.349	1	3
615.689	1	8
616.028	1	8
616.368	1	-2
616.707	1	-5
617.046	1	2
617.386	1	2
617.725	1	2
618.064	1	3
618.404	1	9
618.743	1	6
619.082	1	3
619.422	1	0
619.761	1	1
620.100	1	2
620.440	1	2
620.779	1	1
621.118	1	3
621.458	1	9
621.797	1	2
622.136	1	8
622.476	1	9
622.815	1	12
623.154	1	3
623.494	1	-1
623.833	1	-1
624.172	1	12
624.511	1	2
624.851	1	-6
625.190	1	3
625.529	1	5
625.869	1	8
626.208	1	-7
626.547	1	5
626.886	1	-3
627.226	1	1
627.565	1	3
627.904	1	6
628.243	1	6
628.583	1	6
628.922	1	-2
629.261	1	9
629.600	1	9
629.940	1	5
630.279	1	-2
630.618	1	0
630.957	1	-8
631.297	1	3
631.636	1	8
631.975	1	8
632.314	1	19
632.653	1	2
632.993	1	4
633.332	1	8
633.671	1	-5
634.010	1	6
634.349	1	5
634.689	1	5
635.028	1	8
635.367	1	3
635.706	1	-5
636.045	1	1
636.384	1	3
636.724	1	1
637.063	1	5
637.402	1	8
637.741	1	0
638.080	1	2
638.419	1	10
638.759	1	2
639.098	1	2
639.437	1	-5
639.776	1	1
640.115	1	0
640.454	1	14
640.793	1	0
641.132	1	12
641.472	1	-1
641.811	1	7
642.150	1	-5
642.489	1	-6
642.828	1	7
643.167	1	2
643.506	1	-8
643.845	1	-5
644.184	1	17
644.524	1	-6
644.863	1	-3
645.202	1	7
645.541	1	-4
645.880	1	10
646.219	1	9
646.558	1	4
646.897	1	1
647.236	1	9
647.575	1	8
647.914	1	-9
648.253	1	7
648.592	1	-2
648.931	1	0
649.270	1	9
649.610	1	16
649.949	1	0
650.288	1	0
650.627	1	9
650.966	1	-4
651.305	1	3
651.644	1	3
651.983	1	4
652.322	1	4
652.661	1	5
653.000	1	10
653.339	1	-3
653.678	1	-3
654.017	1	7
654.356	1	13
654.695	1	-5
655.034	1	4
655.373	1	-6
655.712	1	-6
656.051	1	12
656.390	1	6
656.729	1	6
657.068	1	7
657.406	1	11
657.745	1	-2
658.084	1	9
658.423	1	-6
658.762	1	-5
659.101	1	-8
659.440	1	10
659.779	1	3
660.118	1	7
660.457	1	-1
660.796	1	5
661.135	1	-9
661.474	1	2
661.813	1	-4
662.152	1	6
662.491	1	3
662.829	1	3
663.168	1	0
663.507	1	4
663.846	1	10
664.185	1	-7
664.524	1	-4
664.863	1	1
665.202	1	-6
665.541	1	-2
665.879	1	6
666.218	1	-7
666.557	1	-4
666.896	1	-5
667.235	1	1
667.574	1	6
667.913	1	8
668.251	1	3
668.590	1	-3
668.929	1	4
669.268	1	6
669.607	1	-4
669.946	1	-2
670.285	1	0
670.623	1	4
670.962	1	11
671.301	1	-3
671.640	1	-15
671.979	1	15
672.317	1	0
672.656	1	8
672.995	1	1
673.334	1	7
673.673	1	17
674.011	1	14
674.350	1	1
674.689	1	-1
675.028	1	-1
675.367	1	0
675.705	1	-10
676.044	1	3
676.383	1	5
676.722	1	0
677.060	1	-4
677.399	1	2
677.738	1	-2
678.077	1	0
678.416	1	-2
678.754	1	-1
679.093	1	4
679.432	1	-9
679.771	1	3
680.109	1	3
680.448	1	3
680.787	1	5
681.125	1	2
681.464	1	1
681.803	1	-9
682.142	1	11
682.480	1	-2
682.819	1	0
683.158	1	-1
683.496	1	-11
683.835	1	1
684.174	1	6
684.512	1	5
684.851	1	0
685.190	1	1
685.529	1	-7
685.867	1	-1
686.206	1	6
686.545	1	9
686.883	1	-8
687.222	1	6
687.561	1	-1
687.899	1	0
688.238	1	5
688.577	1	3
688.746	1	4