File: Analysis/GaN_68K_200ms/GaN_sample E_spot4_UVVIS_68 K_200um_200 ms 2x2mm1_361.txt
340.368	1	3
340.710	1	-5
341.052	1	12
341.394	1	-2
341.737	1	10
342.079	1	-8
342.421	1	5
342.763	1	2
343.105	1	7
343.447	1	5
343.789	1	-3
344.131	1	-1
344.473	1	2
344.815	1	9
345.157	1	10
345.499	1	7
345.841	1	6
346.183	1	2
346.526	1	11
346.868	1	-3
347.210	1	2
347.552	1	10
347.894	1	7
348.236	1	4
348.578	1	4
348.920	1	4
349.262	1	3
349.604	1	10
349.946	1	6
350.288	1	-3
350.630	1	-9
350.972	1	-7
351.314	1	2
351.656	1	5
351.998	1	2
352.340	1	0
352.682	1	1
353.024	1	-7
353.366	1	8
353.708	1	11
354.050	1	5
354.392	1	10
354.734	1	1
355.076	1	5
355.418	1	-1
355.760	1	5
356.102	1	-9
356.444	1	3
356.785	1	11
357.127	1	2
357.469	1	3
357.811	1	17
358.153	1	9
358.495	1	11
358.837	1	4
359.179	1	6
359.521	1	-1
359.863	1	3
360.205	1	7
360.547	1	1
360.889	1	4
361.231	1	3
361.572	1	5
361.914	1	3
362.256	1	5
362.598	1	2
362.940	1	2
363.282	1	6
363.624	1	6
363.966	1	0
364.308	1	1
364.649	1	1
364.991	1	3
365.333	1	8
365.675	1	6
366.017	1	9
366.359	1	5
366.701	1	3
367.042	1	11
367.384	1	15
367.726	1	13
368.068	1	6
368.410	1	4
368.752	1	-5
369.093	1	9
369.435	1	1
369.777	1	0
370.119	1	3
370.461	1	8
370.803	1	-3
371.144	1	9
371.486	1	10
371.828	1	2
372.170	1	12
372.512	1	3
372.853	1	11
373.195	1	-7
373.537	1	4
373.879	1	6
374.220	1	5
374.562	1	8
374.904	1	0
375.246	1	2
375.588	1	1
375.929	1	2
376.271	1	-3
376.613	1	4
376.955	1	-1
377.296	1	5
377.638	1	3
377.980	1	3
378.321	1	3
378.663	1	0
379.005	1	12
379.347	1	8
379.688	1	3
380.030	1	0
380.372	1	9
380.714	1	8
381.055	1	0
381.397	1	-7
381.739	1	5
382.080	1	-4
382.422	1	17
382.764	1	0
383.105	1	8
383.447	1	7
383.789	1	3
384.130	1	2
384.472	1	-8
384.814	1	13
385.156	1	15
385.497	1	7
385.839	1	13
386.180	1	3
386.522	1	13
386.864	1	11
387.205	1	8
387.547	1	9
387.889	1	18
388.230	1	8
388.572	1	2
388.914	1	12
389.255	1	11
389.597	1	0
389.939	1	11
390.280	1	10
390.622	1	2
390.963	1	6
391.305	1	8
391.647	1	1
391.988	1	-2
392.330	1	15
392.671	1	19
393.013	1	8
393.355	1	18
393.696	1	2
394.038	1	-2
394.379	1	4
394.721	1	0
395.062	1	-3
395.404	1	13
395.746	1	6
396.087	1	10
396.429	1	5
396.770	1	9
397.112	1	3
397.453	1	-1
397.795	1	13
398.136	1	8
398.478	1	2
398.819	1	11
399.161	1	10
399.503	1	17
399.844	1	2
400.186	1	13
400.527	1	3
400.869	1	12
401.210	1	-3
401.552	1	13
401.893	1	2
402.235	1	17
402.576	1	14
402.918	1	-3
403.259	1	-1
403.601	1	-5
403.942	1	15
404.284	1	5
404.625	1	6
404.967	1	6
405.308	1	4
405.649	1	3
405.991	1	10
406.332	1	-2
406.674	1	8
407.015	1	-6
407.357	1	8
407.698	1	0
408.040	1	-4
408.381	1	3
408.722	1	6
409.064	1	7
409.405	1	5
409.747	1	-4
410.088	1	10
410.430	1	11
410.771	1	7
411.112	1	14
411.454	1	15
411.795	1	13
412.137	1	4
412.478	1	0
412.819	1	3
413.161	1	-2
413.502	1	3
413.844	1	-9
414.185	1	10
414.526	1	7
414.868	1	23
415.209	1	0
415.550	1	-7
415.892	1	4
416.233	1	13
416.575	1	-1
416.916	1	0
417.257	1	14
417.599	1	11
417.940	1	0
418.281	1	-1
418.623	1	6
418.964	1	10
419.305	1	-1
419.647	1	12
419.988	1	-7
420.329	1	3
420.671	1	1
421.012	1	11
421.353	1	13
421.695	1	8
422.036	1	5
422.377	1	10
422.718	1	-6
423.060	1	0
423.401	1	3
423.742	1	2
424.084	1	2
424.425	1	-3
424.766	1	12
425.107	1	3
425.449	1	8
425.790	1	7
426.131	1	0
426.472	1	-1
426.814	1	11
427.155	1	2
427.496	1	14
427.837	1	4
428.179	1	-7
428.520	1	1
428.861	1	1
429.202	1	2
429.544	1	1
429.885	1	-8
430.226	1	10
430.567	1	14
430.909	1	-8
431.250	1	-3
431.591	1	5
431.932	1	14
432.273	1	0
432.615	1	13
432.956	1	1
433.297	1	16
433.638	1	-3
433.979	1	5
434.320	1	-1
434.662	1	2
435.003	1	7
435.344	1	5
435.685	1	14
436.026	1	1
436.368	1	-6
436.709	1	-10
437.050	1	9
437.391	1	4
437.732	1	7
438.073	1	10
438.414	1	2
438.756	1	9
439.097	1	16
439.438	1	13
439.779	1	7
440.120	1	-2
440.461	1	-3
440.802	1	8
441.143	1	18
441.485	1	1
441.826	1	-2
442.167	1	4
442.508	1	3
442.849	1	1
443.190	1	-9
443.531	1	4
443.872	1	3
444.213	1	-11
444.554	1	-3
444.895	1	1
445.237	1	1
445.578	1	4
445.919	1	6
446.260	1	6
446.601	1	1
446.942	1	2
447.283	1	-1
447.624	1	18
447.965	1	-1
448.306	1	7
448.647	1	10
448.988	1	-5
449.329	1	6
449.670	1	7
450.011	1	1
450.352	1	4
450.693	1	13
451.034	1	5
451.375	1	16
451.716	1	5
452.057	1	15
452.398	1	9
452.739	1	4
453.080	1	2
453.421	1	0
453.762	1	14
454.103	1	10
454.444	1	-1
454.785	1	0
455.126	1	4
455.467	1	12
455.808	1	5
456.149	1	4
456.490	1	2
456.831	1	12
457.172	1	0
457.513	1	10
457.854	1	7
458.195	1	-1
458.536	1	4
458.877	1	8
459.218	1	4
459.559	1	4
459.899	1	11
460.240	1	1
460.581	1	1
460.922	1	-4
461.263	1	5
461.604	1	1
461.945	1	13
462.286	1	10
462.627	1	5
462.968	1	-7
463.309	1	-5
463.649	1	-2
463.990	1	7
464.331	1	12
464.672	1	-1
465.013	1	-19
465.354	1	-1
465.695	1	13
466.036	1	13
466.376	1	-1
466.717	1	-7
467.058	1	10
467.399	1	0
467.740	1	0
468.081	1	-1
468.422	1	4
468.762	1	-20
469.103	1	-3
469.444	1	-4
469.785	1	14
470.126	1	2
470.467	1	1
470.807	1	1
471.148	1	-1
471.489	1	-5
471.830	1	17
472.171	1	1
472.511	1	12
472.852	1	3
473.193	1	7
473.534	1	-10
473.875	1	1
474.215	1	-2
474.556	1	-6
474.897	1	2
475.238	1	3
475.578	1	4
475.919	1	11
476.260	1	0
476.601	1	0
476.942	1	1
477.282	1	-10
477.623	1	4
477.964	1	13
478.305	1	9
478.645	1	-8
478.986	1	2
479.327	1	-5
479.667	1	-2
480.008	1	3
480.349	1	-2
480.690	1	-1
481.030	1	-9
481.371	1	9
481.712	1	2
482.053	1	4
482.393	1	-4
482.734	1	2
483.075	1	-1
483.415	1	1
483.756	1	4
484.097	1	4
484.437	1	-5
484.778	1	-3
485.119	1	-2
485.459	1	6
485.800	1	-1
486.141	1	-6
486.481	1	5
486.822	1	4
487.163	1	-6
487.503	1	-6
487.844	1	5
488.185	1	-10
488.525	1	-2
488.866	1	10
489.207	1	18
489.547	1	-5
489.888	1	1
490.228	1	-9
490.569	1	5
490.910	1	1
491.250	1	2
491.591	1	-4
491.932	1	6
492.272	1	12
492.613	1	5
492.953	1	4
493.294	1	7
493.635	1	-4
493.975	1	3
494.316	1	12
494.656	1	2
494.997	1	3
495.337	1	6
495.678	1	7
496.019	1	-1
496.359	1	3
496.700	1	-1
497.040	1	-4
497.381	1	-12
497.721	1	5
498.062	1	4
498.403	1	5
498.743	1	-5
499.084	1	-1
499.424	1	8
499.765	1	-6
500.105	1	0
500.446	1	12
500.786	1	3
501.127	1	13
501.467	1	6
501.808	1	-6
502.148	1	4
502.489	1	9
502.829	1	1
503.170	1	11
503.510	1	-2
503.851	1	-12
504.191	1	0
504.532	1	-10
504.872	1	-3
505.213	1	-2
505.553	1	10
505.894	1	9
506.234	1	1
506.575	1	-2
506.915	1	4
507.256	1	-5
507.596	1	4
507.936	1	8
508.277	1	-1
508.617	1	9
508.958	1	11
509.298	1	12
509.639	1	9
509.979	1	0
510.319	1	-10
510.660	1	6
511.000	1	11
511.341	1	-1
511.681	1	2
512.022	1	-7
512.362	1	5
512.702	1	-7
513.043	1	9
513.383	1	2
513.724	1	10
514.064	1	6
514.404	1	2
514.745	1	6
515.085	1	-1
515.425	1	5
515.766	1	0
516.106	1	-5
516.447	1	2
516.787	1	5
517.127	1	9
517.468	1	0
517.808	1	8
518.148	1	-2
518.489	1	4
518.829	1	2
519.169	1	15
519.510	1	1
519.850	1	0
520.190	1	1
520.531	1	0
520.871	1	2
521.211	1	16
521.552	1	9
521.892	1	1
522.232	1	-5
522.573	1	9
522.913	1	4
523.253	1	5
523.593	1	-4
523.934	1	14
524.274	1	-2
524.614	1	4
524.955	1	6
525.295	1	-6
525.635	1	15
525.975	1	0
526.316	1	-3
526.656	1	21
526.996	1	10
527.337	1	-2
527.677	1	21
528.017	1	-2
528.357	1	10
528.698	1	0
529.038	1	12
529.378	1	-1
529.718	1	5
530.058	1	7
530.399	1	10
530.739	1	-4
531.079	1	13
531.419	1	12
531.760	1	11
532.100	1	8
532.440	1	-6
532.780	1	-1
533.120	1	3
533.461	1	15
533.801	1	7
534.141	1	11
534.481	1	3
534.821	1	11
535.162	1	8
535.502	1	9
535.842	1	9
536.182	1	3
536.522	1	11
536.862	1	11
537.203	1	12
537.543	1	2
537.883	1	7
538.223	1	8
538.563	1	5
538.903	1	-2
539.243	1	2
539.584	1	15
539.924	1	10
540.264	1	3
540.604	1	16
540.944	1	-3
541.284	1	2
541.624	1	4
541.964	1	1
542.305	1	-2
542.645	1	9
542.985	1	-6
543.325	1	7
543.665	1	15
544.005	1	-2
544.345	1	7
544.685	1	11
545.025	1	-1
545.365	1	3
545.705	1	8
546.045	1	7
546.386	1	9
546.726	1	5
547.066	1	-4
547.406	1	12
547.746	1	17
548.086	1	17
548.426	1	-2
548.766	1	8
549.106	1	14
549.446	1	0
549.786	1	11
550.126	1	5
550.466	1	0
550.806	1	0
551.146	1	-4
551.486	1	8
551.826	1	4
552.166	1	-1
552.506	1	-3
552.846	1	12
553.186	1	2
553.526	1	0
553.866	1	-1
554.206	1	5
554.546	1	-8
554.886	1	4
555.226	1	4
555.566	1	-1
555.906	1	9
556.246	1	6
556.586	1	19
556.926	1	1
557.266	1	16
557.606	1	-1
557.946	1	12
558.286	1	7
558.626	1	8
558.966	1	7
559.306	1	-2
559.646	1	-3
559.986	1	-4
560.325	1	-5
560.665	1	6
561.005	1	0
561.345	1	2
561.685	1	1
562.025	1	-2
562.365	1	7
562.705	1	5
563.045	1	12
563.385	1	-1
563.725	1	-1
564.064	1	12
564.404	1	2
564.744	1	8
565.084	1	-8
565.424	1	0
565.764	1	14
566.104	1	-1
566.444	1	6
566.783	1	7
567.123	1	15
567.463	1	-3
567.803	1	-8
568.143	1	0
568.483	1	-13
568.823	1	14
569.162	1	0
569.502	1	0
569.842	1	8
570.182	1	-3
570.522	1	2
570.862	1	6
571.201	1	4
571.541	1	-4
571.881	1	10
572.221	1	11
572.561	1	-2
572.900	1	12
573.240	1	-4
573.580	1	2
573.920	1	0
574.260	1	-6
574.599	1	1
574.939	1	0
575.279	1	-2
575.619	1	8
575.959	1	1
576.298	1	-2
576.638	1	3
576.978	1	5
577.318	1	7
577.657	1	-12
577.997	1	-8
578.337	1	6
578.677	1	-6
579.016	1	17
579.356	1	-4
579.696	1	12
580.036	1	-8
580.375	1	6
580.715	1	5
581.055	1	4
581.394	1	8
581.734	1	3
582.074	1	-5
582.414	1	5
582.753	1	13
583.093	1	-6
583.433	1	-6
583.772	1	-4
584.112	1	12
584.452	1	-2
584.791	1	4
585.131	1	2
585.471	1	4
585.811	1	7
586.150	1	-1
586.490	1	-3
586.830	1	-7
587.169	1	1
587.509	1	5
587.849	1	13
588.188	1	4
588.528	1	6
588.867	1	12
589.207	1	1
589.547	1	-6
589.886	1	-4
590.226	1	6
590.566	1	4
590.905	1	-1
591.245	1	-3
591.585	1	-1
591.924	1	-10
592.264	1	2
592.603	1	-2
592.943	1	1
593.283	1	-2
593.622	1	-6
593.962	1	9
594.301	1	16
594.641	1	2
594.981	1	-2
595.320	1	16
595.660	1	3
595.999	1	3
596.339	1	1
596.678	1	1
597.018	1	1
597.358	1	-7
597.697	1	-1
598.037	1	4
598.376	1	11
598.716	1	-5
599.055	1	2
599.395	1	15
599.734	1	5
600.074	1	-13
600.413	1	3
600.753	1	3
601.092	1	-11
601.432	1	5
601.771	1	4
602.111	1	-3
602.451	1	1
602.790	1	1
603.130	1	7
603.469	1	6
603.809	1	1
604.148	1	3
604.487	1	-3
604.827	1	-11
605.166	1	-10
605.506	1	12
605.845	1	7
606.185	1	3
606.524	1	-2
606.864	1	0
607.203	1	16
607.543	1	-4
607.882	1	-2
608.222	1	7
608.561	1	1
608.901	1	6
609.240	1	3
609.579	1	7
609.919	1	-10
610.258	1	6
610.598	1	-1
610.937	1	2
611.277	1	8
611.616	1	-5
611.955	1	4
612.295	1	-2
612.634	1	1
612.974	1	4
613.313	1	5
613.652	1	-6
613.992	1	12
614.331	1	-6
614.671	1	11
615.010	1	0
615.349	1	3
615.689	1	-1
616.028	1	5
616.368	1	4
616.707	1	4
617.046	1	8
617.386	1	4
617.725	1	3
618.064	1	1
618.404	1	12
618.743	1	0
619.082	1	1
619.422	1	3
619.761	1	4
620.100	1	8
620.440	1	12
620.779	1	-1
621.118	1	1
621.458	1	8
621.797	1	13
622.136	1	4
622.476	1	6
622.815	1	-7
623.154	1	4
623.494	1	0
623.833	1	-6
624.172	1	13
624.511	1	-5
624.851	1	-2
625.190	1	5
625.529	1	8
625.869	1	4
626.208	1	-4
626.547	1	2
626.886	1	1
627.226	1	4
627.565	1	7
627.904	1	2
628.243	1	3
628.583	1	7
628.922	1	6
629.261	1	12
629.600	1	6
629.940	1	4
630.279	1	-5
630.618	1	7
630.957	1	-2
631.297	1	-1
631.636	1	-6
631.975	1	1
632.314	1	8
632.653	1	-10
632.993	1	11
633.332	1	2
633.671	1	0
634.010	1	-6
634.349	1	0
634.689	1	9
635.028	1	3
635.367	1	0
635.706	1	-15
636.045	1	4
636.384	1	8
636.724	1	6
637.063	1	4
637.402	1	10
637.741	1	11
638.080	1	8
638.419	1	14
638.759	1	-3
639.098	1	2
639.437	1	-1
639.776	1	-3
640.115	1	6
640.454	1	9
640.793	1	13
641.132	1	2
641.472	1	-3
641.811	1	-3
642.150	1	1
642.489	1	-11
642.828	1	6
643.167	1	2
643.506	1	-1
643.845	1	1
644.184	1	11
644.524	1	-2
644.863	1	-7
645.202	1	1
645.541	1	-3
645.880	1	4
646.219	1	7
646.558	1	7
646.897	1	-4
647.236	1	3
647.575	1	4
647.914	1	-6
648.253	1	-2
648.592	1	-10
648.931	1	5
649.270	1	7
649.610	1	15
649.949	1	-2
650.288	1	-5
650.627	1	3
650.966	1	-5
651.305	1	4
651.644	1	6
651.983	1	6
652.322	1	15
652.661	1	10
653.000	1	-10
653.339	1	-1
653.678	1	-3
654.017	1	5
654.356	1	9
654.695	1	3
655.034	1	-2
655.373	1	4
655.712	1	-2
656.051	1	6
656.390	1	-1
656.729	1	7
657.068	1	-9
657.406	1	2
657.745	1	0
658.084	1	11
658.423	1	-5
658.762	1	-6
659.101	1	7
659.440	1	0
659.779	1	1
660.118	1	7
660.457	1	-4
660.796	1	-1
661.135	1	7
661.474	1	-1
661.813	1	1
662.152	1	4
662.491	1	-4
662.829	1	-12
663.168	1	-6
663.507	1	-1
663.846	1	24
664.185	1	3
664.524	1	-9
664.863	1	1
665.202	1	-5
665.541	1	-5
665.879	1	8
666.218	1	-1
666.557	1	0
666.896	1	6
667.235	1	6
667.574	1	11
667.913	1	4
668.251	1	9
668.590	1	-2
668.929	1	2
669.268	1	-9
669.607	1	-7
669.946	1	7
670.285	1	13
670.623	1	10
670.962	1	-2
671.301	1	0
671.640	1	-11
671.979	1	13
672.317	1	-1
672.656	1	3
672.995	1	-1
673.334	1	6
673.673	1	15
674.011	1	0
674.350	1	0
674.689	1	-9
675.028	1	1
675.367	1	6
675.705	1	-13
676.044	1	-4
676.383	1	-2
676.722	1	3
677.060	1	9
677.399	1	-5
677.738	1	-9
678.077	1	5
678.416	1	0
678.754	1	-5
679.093	1	-4
679.432	1	-6
679.771	1	-4
680.109	1	12
680.448	1	-7
680.787	1	-3
681.125	1	7
681.464	1	-5
681.803	1	-9
682.142	1	18
682.480	1	-1
682.819	1	4
683.158	1	1
683.496	1	-2
683.835	1	6
684.174	1	-3
684.512	1	5
684.851	1	-4
685.190	1	7
685.529	1	7
685.867	1	7
686.206	1	8
686.545	1	1
686.883	1	-5
687.222	1	7
687.561	1	1
687.899	1	4
688.238	1	-5
688.577	1	-3
688.746	1	0