File: Analysis/GaN_68K_200ms/GaN_sample E_spot4_UVVIS_68 K_200um_200 ms 2x2mm1_300.txt
340.368	1	-4
340.710	1	-6
341.052	1	6
341.394	1	1
341.737	1	0
342.079	1	-3
342.421	1	-2
342.763	1	1
343.105	1	10
343.447	1	4
343.789	1	-6
344.131	1	4
344.473	1	-1
344.815	1	13
345.157	1	0
345.499	1	8
345.841	1	0
346.183	1	0
346.526	1	4
346.868	1	1
347.210	1	8
347.552	1	3
347.894	1	0
348.236	1	4
348.578	1	6
348.920	1	15
349.262	1	-7
349.604	1	16
349.946	1	4
350.288	1	-3
350.630	1	-5
350.972	1	2
351.314	1	-5
351.656	1	6
351.998	1	0
352.340	1	-5
352.682	1	-8
353.024	1	-5
353.366	1	9
353.708	1	3
354.050	1	-5
354.392	1	3
354.734	1	-2
355.076	1	6
355.418	1	-3
355.760	1	9
356.102	1	2
356.444	1	8
356.785	1	15
357.127	1	3
357.469	1	2
357.811	1	12
358.153	1	4
358.495	1	11
358.837	1	-2
359.179	1	11
359.521	1	7
359.863	1	-4
360.205	1	1
360.547	1	9
360.889	1	11
361.231	1	1
361.572	1	2
361.914	1	11
362.256	1	12
362.598	1	6
362.940	1	6
363.282	1	7
363.624	1	10
363.966	1	0
364.308	1	1
364.649	1	3
364.991	1	15
365.333	1	15
365.675	1	2
366.017	1	11
366.359	1	13
366.701	1	4
367.042	1	17
367.384	1	13
367.726	1	10
368.068	1	1
368.410	1	9
368.752	1	3
369.093	1	7
369.435	1	10
369.777	1	3
370.119	1	6
370.461	1	5
370.803	1	5
371.144	1	7
371.486	1	15
371.828	1	8
372.170	1	16
372.512	1	1
372.853	1	3
373.195	1	-6
373.537	1	15
373.879	1	11
374.220	1	6
374.562	1	2
374.904	1	1
375.246	1	-3
375.588	1	8
375.929	1	13
376.271	1	-1
376.613	1	6
376.955	1	3
377.296	1	3
377.638	1	-1
377.980	1	0
378.321	1	6
378.663	1	-1
379.005	1	16
379.347	1	6
379.688	1	-4
380.030	1	-6
380.372	1	6
380.714	1	11
381.055	1	4
381.397	1	11
381.739	1	5
382.080	1	-11
382.422	1	11
382.764	1	5
383.105	1	9
383.447	1	13
383.789	1	14
384.130	1	-5
384.472	1	4
384.814	1	9
385.156	1	10
385.497	1	18
385.839	1	19
386.180	1	12
386.522	1	10
386.864	1	3
387.205	1	7
387.547	1	5
387.889	1	20
388.230	1	1
388.572	1	14
388.914	1	17
389.255	1	8
389.597	1	-3
389.939	1	11
390.280	1	22
390.622	1	14
390.963	1	10
391.305	1	10
391.647	1	12
391.988	1	5
392.330	1	12
392.671	1	15
393.013	1	15
393.355	1	21
393.696	1	8
394.038	1	-1
394.379	1	-1
394.721	1	11
395.062	1	2
395.404	1	11
395.746	1	6
396.087	1	4
396.429	1	6
396.770	1	10
397.112	1	1
397.453	1	3
397.795	1	13
398.136	1	15
398.478	1	5
398.819	1	23
399.161	1	12
399.503	1	1
399.844	1	6
400.186	1	12
400.527	1	9
400.869	1	21
401.210	1	-1
401.552	1	17
401.893	1	11
402.235	1	20
402.576	1	17
402.918	1	-7
403.259	1	0
403.601	1	11
403.942	1	16
404.284	1	10
404.625	1	8
404.967	1	4
405.308	1	6
405.649	1	10
405.991	1	17
406.332	1	9
406.674	1	10
407.015	1	-4
407.357	1	13
407.698	1	-6
408.040	1	-2
408.381	1	11
408.722	1	2
409.064	1	7
409.405	1	9
409.747	1	4
410.088	1	17
410.430	1	12
410.771	1	6
411.112	1	6
411.454	1	7
411.795	1	9
412.137	1	9
412.478	1	1
412.819	1	-2
413.161	1	3
413.502	1	-1
413.844	1	1
414.185	1	11
414.526	1	10
414.868	1	13
415.209	1	3
415.550	1	2
415.892	1	-7
416.233	1	9
416.575	1	2
416.916	1	3
417.257	1	13
417.599	1	7
417.940	1	11
418.281	1	8
418.623	1	8
418.964	1	16
419.305	1	13
419.647	1	17
419.988	1	12
420.329	1	5
420.671	1	6
421.012	1	9
421.353	1	15
421.695	1	3
422.036	1	5
422.377	1	13
422.718	1	4
423.060	1	3
423.401	1	7
423.742	1	2
424.084	1	4
424.425	1	8
424.766	1	11
425.107	1	9
425.449	1	0
425.790	1	1
426.131	1	5
426.472	1	-7
426.814	1	11
427.155	1	-6
427.496	1	7
427.837	1	-7
428.179	1	0
428.520	1	3
428.861	1	-2
429.202	1	6
429.544	1	8
429.885	1	-1
430.226	1	3
430.567	1	8
430.909	1	-9
431.250	1	-6
431.591	1	5
431.932	1	5
432.273	1	6
432.615	1	5
432.956	1	-1
433.297	1	20
433.638	1	7
433.979	1	4
434.320	1	7
434.662	1	-1
435.003	1	7
435.344	1	4
435.685	1	5
436.026	1	10
436.368	1	6
436.709	1	-5
437.050	1	7
437.391	1	3
437.732	1	3
438.073	1	3
438.414	1	0
438.756	1	12
439.097	1	17
439.438	1	7
439.779	1	4
440.120	1	2
440.461	1	-3
440.802	1	7
441.143	1	8
441.485	1	5
441.826	1	4
442.167	1	2
442.508	1	3
442.849	1	12
443.190	1	-3
443.531	1	2
443.872	1	8
444.213	1	4
444.554	1	3
444.895	1	-9
445.237	1	-3
445.578	1	6
445.919	1	0
446.260	1	7
446.601	1	-1
446.942	1	7
447.283	1	-2
447.624	1	13
447.965	1	11
448.306	1	4
448.647	1	8
448.988	1	-7
449.329	1	2
449.670	1	7
450.011	1	1
450.352	1	8
450.693	1	5
451.034	1	2
451.375	1	15
451.716	1	14
452.057	1	0
452.398	1	3
452.739	1	7
453.080	1	12
453.421	1	3
453.762	1	8
454.103	1	-1
454.444	1	17
454.785	1	-4
455.126	1	2
455.467	1	3
455.808	1	-2
456.149	1	-3
456.490	1	6
456.831	1	12
457.172	1	-1
457.513	1	13
457.854	1	10
458.195	1	-7
458.536	1	9
458.877	1	1
459.218	1	1
459.559	1	3
459.899	1	13
460.240	1	3
460.581	1	13
460.922	1	-3
461.263	1	13
461.604	1	2
461.945	1	5
462.286	1	9
462.627	1	-4
462.968	1	0
463.309	1	0
463.649	1	2
463.990	1	4
464.331	1	7
464.672	1	2
465.013	1	-4
465.354	1	4
465.695	1	7
466.036	1	8
466.376	1	-4
466.717	1	-1
467.058	1	18
467.399	1	2
467.740	1	4
468.081	1	4
468.422	1	4
468.762	1	-5
469.103	1	-9
469.444	1	-7
469.785	1	10
470.126	1	8
470.467	1	6
470.807	1	7
471.148	1	-3
471.489	1	9
471.830	1	24
472.171	1	0
472.511	1	15
472.852	1	-4
473.193	1	-3
473.534	1	-6
473.875	1	11
474.215	1	3
474.556	1	-12
474.897	1	7
475.238	1	-4
475.578	1	10
475.919	1	5
476.260	1	5
476.601	1	3
476.942	1	-10
477.282	1	-6
477.623	1	4
477.964	1	14
478.305	1	3
478.645	1	-1
478.986	1	3
479.327	1	-9
479.667	1	-1
480.008	1	7
480.349	1	0
480.690	1	-3
481.030	1	2
481.371	1	7
481.712	1	10
482.053	1	6
482.393	1	-4
482.734	1	12
483.075	1	3
483.415	1	8
483.756	1	13
484.097	1	-7
484.437	1	-2
484.778	1	6
485.119	1	8
485.459	1	0
485.800	1	-9
486.141	1	-9
486.481	1	7
486.822	1	-2
487.163	1	1
487.503	1	-6
487.844	1	5
488.185	1	-17
488.525	1	0
488.866	1	12
489.207	1	6
489.547	1	1
489.888	1	0
490.228	1	2
490.569	1	0
490.910	1	-2
491.250	1	6
491.591	1	-4
491.932	1	7
492.272	1	4
492.613	1	6
492.953	1	-3
493.294	1	11
493.635	1	-12
493.975	1	6
494.316	1	9
494.656	1	3
494.997	1	1
495.337	1	5
495.678	1	13
496.019	1	-2
496.359	1	-3
496.700	1	5
497.040	1	13
497.381	1	-17
497.721	1	7
498.062	1	-1
498.403	1	5
498.743	1	9
499.084	1	-5
499.424	1	14
499.765	1	0
500.105	1	10
500.446	1	10
500.786	1	5
501.127	1	10
501.467	1	2
501.808	1	-12
502.148	1	11
502.489	1	16
502.829	1	3
503.170	1	3
503.510	1	3
503.851	1	-7
504.191	1	0
504.532	1	-7
504.872	1	0
505.213	1	2
505.553	1	10
505.894	1	3
506.234	1	14
506.575	1	3
506.915	1	6
507.256	1	5
507.596	1	15
507.936	1	7
508.277	1	-2
508.617	1	24
508.958	1	16
509.298	1	6
509.639	1	15
509.979	1	5
510.319	1	3
510.660	1	16
511.000	1	5
511.341	1	-3
511.681	1	13
512.022	1	-6
512.362	1	2
512.702	1	-4
513.043	1	1
513.383	1	2
513.724	1	10
514.064	1	9
514.404	1	5
514.745	1	6
515.085	1	10
515.425	1	-2
515.766	1	2
516.106	1	2
516.447	1	3
516.787	1	-6
517.127	1	3
517.468	1	4
517.808	1	6
518.148	1	2
518.489	1	1
518.829	1	-6
519.169	1	8
519.510	1	8
519.850	1	6
520.190	1	8
520.531	1	10
520.871	1	-6
521.211	1	17
521.552	1	15
521.892	1	-10
522.232	1	-4
522.573	1	5
522.913	1	8
523.253	1	6
523.593	1	-1
523.934	1	14
524.274	1	4
524.614	1	2
524.955	1	5
525.295	1	-2
525.635	1	10
525.975	1	-1
526.316	1	-1
526.656	1	13
526.996	1	7
527.337	1	4
527.677	1	15
528.017	1	-10
528.357	1	4
528.698	1	3
529.038	1	20
529.378	1	13
529.718	1	14
530.058	1	11
530.399	1	11
530.739	1	8
531.079	1	19
531.419	1	8
531.760	1	16
532.100	1	12
532.440	1	6
532.780	1	2
533.120	1	12
533.461	1	17
533.801	1	9
534.141	1	15
534.481	1	4
534.821	1	10
535.162	1	11
535.502	1	8
535.842	1	-3
536.182	1	6
536.522	1	13
536.862	1	3
537.203	1	15
537.543	1	3
537.883	1	13
538.223	1	13
538.563	1	16
538.903	1	6
539.243	1	-4
539.584	1	3
539.924	1	4
540.264	1	13
540.604	1	6
540.944	1	8
541.284	1	8
541.624	1	7
541.964	1	9
542.305	1	-5
542.645	1	3
542.985	1	1
543.325	1	3
543.665	1	16
544.005	1	4
544.345	1	9
544.685	1	12
545.025	1	3
545.365	1	7
545.705	1	15
546.045	1	11
546.386	1	11
546.726	1	5
547.066	1	-2
547.406	1	9
547.746	1	17
548.086	1	12
548.426	1	7
548.766	1	8
549.106	1	7
549.446	1	13
549.786	1	6
550.126	1	0
550.466	1	3
550.806	1	11
551.146	1	0
551.486	1	0
551.826	1	10
552.166	1	3
552.506	1	2
552.846	1	7
553.186	1	1
553.526	1	6
553.866	1	5
554.206	1	6
554.546	1	-6
554.886	1	4
555.226	1	-1
555.566	1	10
555.906	1	4
556.246	1	1
556.586	1	11
556.926	1	10
557.266	1	15
557.606	1	3
557.946	1	8
558.286	1	14
558.626	1	8
558.966	1	9
559.306	1	1
559.646	1	4
559.986	1	2
560.325	1	-4
560.665	1	3
561.005	1	3
561.345	1	3
561.685	1	2
562.025	1	1
562.365	1	-7
562.705	1	15
563.045	1	15
563.385	1	7
563.725	1	8
564.064	1	0
564.404	1	1
564.744	1	14
565.084	1	2
565.424	1	6
565.764	1	12
566.104	1	-4
566.444	1	11
566.783	1	-1
567.123	1	15
567.463	1	-5
567.803	1	-6
568.143	1	-2
568.483	1	-1
568.823	1	18
569.162	1	7
569.502	1	-4
569.842	1	3
570.182	1	-3
570.522	1	14
570.862	1	8
571.201	1	10
571.541	1	-4
571.881	1	3
572.221	1	10
572.561	1	1
572.900	1	15
573.240	1	-7
573.580	1	0
573.920	1	-3
574.260	1	4
574.599	1	3
574.939	1	4
575.279	1	6
575.619	1	5
575.959	1	3
576.298	1	-7
576.638	1	-2
576.978	1	4
577.318	1	12
577.657	1	-9
577.997	1	-10
578.337	1	-8
578.677	1	2
579.016	1	9
579.356	1	-5
579.696	1	15
580.036	1	5
580.375	1	-7
580.715	1	10
581.055	1	-2
581.394	1	3
581.734	1	9
582.074	1	5
582.414	1	-3
582.753	1	10
583.093	1	0
583.433	1	-4
583.772	1	2
584.112	1	5
584.452	1	4
584.791	1	-1
585.131	1	1
585.471	1	-9
585.811	1	0
586.150	1	4
586.490	1	5
586.830	1	-3
587.169	1	4
587.509	1	8
587.849	1	8
588.188	1	9
588.528	1	5
588.867	1	10
589.207	1	-7
589.547	1	0
589.886	1	-11
590.226	1	11
590.566	1	-4
590.905	1	4
591.245	1	4
591.585	1	0
591.924	1	-2
592.264	1	-6
592.603	1	-1
592.943	1	2
593.283	1	0
593.622	1	2
593.962	1	3
594.301	1	10
594.641	1	0
594.981	1	7
595.320	1	9
595.660	1	-1
595.999	1	9
596.339	1	10
596.678	1	-4
597.018	1	2
597.358	1	-2
597.697	1	-2
598.037	1	0
598.376	1	3
598.716	1	-7
599.055	1	2
599.395	1	17
599.734	1	0
600.074	1	-6
600.413	1	2
600.753	1	2
601.092	1	-2
601.432	1	-5
601.771	1	7
602.111	1	-4
602.451	1	-2
602.790	1	6
603.130	1	9
603.469	1	-3
603.809	1	6
604.148	1	-2
604.487	1	2
604.827	1	-3
605.166	1	-2
605.506	1	3
605.845	1	11
606.185	1	8
606.524	1	-3
606.864	1	-6
607.203	1	9
607.543	1	3
607.882	1	-5
608.222	1	5
608.561	1	10
608.901	1	8
609.240	1	7
609.579	1	0
609.919	1	-5
610.258	1	8
610.598	1	7
610.937	1	4
611.277	1	12
611.616	1	-7
611.955	1	14
612.295	1	2
612.634	1	4
612.974	1	8
613.313	1	1
613.652	1	-9
613.992	1	4
614.331	1	-1
614.671	1	12
615.010	1	-3
615.349	1	-2
615.689	1	2
616.028	1	-1
616.368	1	4
616.707	1	-7
617.046	1	11
617.386	1	8
617.725	1	4
618.064	1	5
618.404	1	10
618.743	1	0
619.082	1	11
619.422	1	2
619.761	1	2
620.100	1	3
620.440	1	5
620.779	1	4
621.118	1	5
621.458	1	1
621.797	1	2
622.136	1	7
622.476	1	-5
622.815	1	1
623.154	1	5
623.494	1	2
623.833	1	-3
624.172	1	12
624.511	1	2
624.851	1	-7
625.190	1	6
625.529	1	3
625.869	1	10
626.208	1	4
626.547	1	8
626.886	1	-2
627.226	1	-6
627.565	1	10
627.904	1	0
628.243	1	0
628.583	1	3
628.922	1	-1
629.261	1	11
629.600	1	7
629.940	1	7
630.279	1	-1
630.618	1	7
630.957	1	-1
631.297	1	-4
631.636	1	4
631.975	1	7
632.314	1	3
632.653	1	-6
632.993	1	5
633.332	1	13
633.671	1	5
634.010	1	-1
634.349	1	5
634.689	1	3
635.028	1	12
635.367	1	0
635.706	1	-4
636.045	1	4
636.384	1	3
636.724	1	6
637.063	1	3
637.402	1	4
637.741	1	8
638.080	1	1
638.419	1	7
638.759	1	9
639.098	1	0
639.437	1	-3
639.776	1	2
640.115	1	-1
640.454	1	14
640.793	1	13
641.132	1	6
641.472	1	-9
641.811	1	0
642.150	1	-9
642.489	1	0
642.828	1	4
643.167	1	2
643.506	1	-11
643.845	1	13
644.184	1	11
644.524	1	1
644.863	1	-10
645.202	1	7
645.541	1	-10
645.880	1	7
646.219	1	0
646.558	1	8
646.897	1	-4
647.236	1	1
647.575	1	8
647.914	1	0
648.253	1	1
648.592	1	-3
648.931	1	11
649.270	1	10
649.610	1	2
649.949	1	1
650.288	1	-6
650.627	1	0
650.966	1	-3
651.305	1	-5
651.644	1	-1
651.983	1	7
652.322	1	5
652.661	1	1
653.000	1	-1
653.339	1	8
653.678	1	2
654.017	1	1
654.356	1	5
654.695	1	6
655.034	1	4
655.373	1	-6
655.712	1	4
656.051	1	10
656.390	1	-4
656.729	1	9
657.068	1	2
657.406	1	2
657.745	1	3
658.084	1	3
658.423	1	-4
658.762	1	-2
659.101	1	-1
659.440	1	10
659.779	1	-10
660.118	1	9
660.457	1	2
660.796	1	1
661.135	1	6
661.474	1	0
661.813	1	7
662.152	1	-3
662.491	1	1
662.829	1	4
663.168	1	0
663.507	1	1
663.846	1	8
664.185	1	-3
664.524	1	-2
664.863	1	13
665.202	1	-3
665.541	1	8
665.879	1	0
666.218	1	-2
666.557	1	3
666.896	1	-10
667.235	1	-3
667.574	1	10
667.913	1	6
668.251	1	5
668.590	1	-1
668.929	1	5
669.268	1	-2
669.607	1	-3
669.946	1	10
670.285	1	4
670.623	1	3
670.962	1	-10
671.301	1	-3
671.640	1	-20
671.979	1	16
672.317	1	-4
672.656	1	5
672.995	1	-6
673.334	1	8
673.673	1	12
674.011	1	7
674.350	1	3
674.689	1	-3
675.028	1	-1
675.367	1	5
675.705	1	-3
676.044	1	5
676.383	1	3
676.722	1	13
677.060	1	5
677.399	1	0
677.738	1	-3
678.077	1	4
678.416	1	-4
678.754	1	-1
679.093	1	7
679.432	1	1
679.771	1	2
680.109	1	1
680.448	1	-5
680.787	1	-1
681.125	1	7
681.464	1	-2
681.803	1	-13
682.142	1	14
682.480	1	-6
682.819	1	4
683.158	1	7
683.496	1	-7
683.835	1	1
684.174	1	-1
684.512	1	-6
684.851	1	-1
685.190	1	18
685.529	1	1
685.867	1	1
686.206	1	2
686.545	1	15
686.883	1	-11
687.222	1	0
687.561	1	5
687.899	1	0
688.238	1	1
688.577	1	-1
688.746	1	7