File: Analysis/GaN_68K_200ms/GaN_sample E_spot4_UVVIS_68 K_200um_200 ms 2x2mm1_136.txt
340.368	1	2
340.710	1	0
341.052	1	11
341.394	1	-2
341.737	1	14
342.079	1	10
342.421	1	-9
342.763	1	1
343.105	1	18
343.447	1	14
343.789	1	0
344.131	1	3
344.473	1	3
344.815	1	9
345.157	1	8
345.499	1	2
345.841	1	3
346.183	1	5
346.526	1	18
346.868	1	10
347.210	1	6
347.552	1	5
347.894	1	3
348.236	1	7
348.578	1	14
348.920	1	20
349.262	1	2
349.604	1	7
349.946	1	9
350.288	1	7
350.630	1	-7
350.972	1	-1
351.314	1	5
351.656	1	9
351.998	1	10
352.340	1	8
352.682	1	-2
353.024	1	-2
353.366	1	12
353.708	1	9
354.050	1	15
354.392	1	15
354.734	1	11
355.076	1	7
355.418	1	11
355.760	1	9
356.102	1	4
356.444	1	8
356.785	1	19
357.127	1	7
357.469	1	14
357.811	1	20
358.153	1	16
358.495	1	20
358.837	1	15
359.179	1	22
359.521	1	21
359.863	1	17
360.205	1	22
360.547	1	33
360.889	1	23
361.231	1	38
361.572	1	30
361.914	1	37
362.256	1	50
362.598	1	51
362.940	1	47
363.282	1	71
363.624	1	68
363.966	1	70
364.308	1	73
364.649	1	82
364.991	1	95
365.333	1	101
365.675	1	97
366.017	1	121
366.359	1	110
366.701	1	107
367.042	1	125
367.384	1	131
367.726	1	131
368.068	1	110
368.410	1	117
368.752	1	107
369.093	1	104
369.435	1	98
369.777	1	94
370.119	1	101
370.461	1	88
370.803	1	71
371.144	1	76
371.486	1	81
371.828	1	76
372.170	1	73
372.512	1	54
372.853	1	65
373.195	1	56
373.537	1	62
373.879	1	67
374.220	1	53
374.562	1	55
374.904	1	50
375.246	1	45
375.588	1	40
375.929	1	36
376.271	1	40
376.613	1	51
376.955	1	33
377.296	1	36
377.638	1	32
377.980	1	36
378.321	1	42
378.663	1	45
379.005	1	35
379.347	1	45
379.688	1	28
380.030	1	40
380.372	1	47
380.714	1	38
381.055	1	39
381.397	1	39
381.739	1	51
382.080	1	42
382.422	1	66
382.764	1	61
383.105	1	72
383.447	1	80
383.789	1	85
384.130	1	76
384.472	1	82
384.814	1	111
385.156	1	119
385.497	1	116
385.839	1	122
386.180	1	137
386.522	1	143
386.864	1	129
387.205	1	135
387.547	1	126
387.889	1	142
388.230	1	139
388.572	1	122
388.914	1	146
389.255	1	139
389.597	1	121
389.939	1	127
390.280	1	130
390.622	1	118
390.963	1	127
391.305	1	122
391.647	1	119
391.988	1	106
392.330	1	128
392.671	1	120
393.013	1	115
393.355	1	110
393.696	1	98
394.038	1	100
394.379	1	99
394.721	1	112
395.062	1	97
395.404	1	115
395.746	1	108
396.087	1	108
396.429	1	109
396.770	1	120
397.112	1	110
397.453	1	106
397.795	1	125
398.136	1	129
398.478	1	125
398.819	1	126
399.161	1	124
399.503	1	124
399.844	1	102
400.186	1	116
400.527	1	112
400.869	1	116
401.210	1	96
401.552	1	105
401.893	1	92
402.235	1	105
402.576	1	102
402.918	1	84
403.259	1	82
403.601	1	79
403.942	1	93
404.284	1	92
404.625	1	82
404.967	1	88
405.308	1	72
405.649	1	76
405.991	1	94
406.332	1	74
406.674	1	76
407.015	1	61
407.357	1	70
407.698	1	66
408.040	1	83
408.381	1	71
408.722	1	76
409.064	1	76
409.405	1	82
409.747	1	72
410.088	1	76
410.430	1	74
410.771	1	60
411.112	1	63
411.454	1	76
411.795	1	66
412.137	1	74
412.478	1	63
412.819	1	48
413.161	1	61
413.502	1	54
413.844	1	51
414.185	1	56
414.526	1	54
414.868	1	66
415.209	1	44
415.550	1	48
415.892	1	48
416.233	1	41
416.575	1	47
416.916	1	44
417.257	1	61
417.599	1	47
417.940	1	41
418.281	1	56
418.623	1	50
418.964	1	37
419.305	1	45
419.647	1	53
419.988	1	39
420.329	1	49
420.671	1	46
421.012	1	45
421.353	1	44
421.695	1	44
422.036	1	37
422.377	1	45
422.718	1	29
423.060	1	34
423.401	1	38
423.742	1	32
424.084	1	40
424.425	1	33
424.766	1	41
425.107	1	36
425.449	1	37
425.790	1	34
426.131	1	23
426.472	1	17
426.814	1	37
427.155	1	27
427.496	1	40
427.837	1	27
428.179	1	25
428.520	1	25
428.861	1	39
429.202	1	37
429.544	1	29
429.885	1	24
430.226	1	24
430.567	1	30
430.909	1	20
431.250	1	20
431.591	1	29
431.932	1	30
432.273	1	24
432.615	1	28
432.956	1	10
433.297	1	40
433.638	1	20
433.979	1	22
434.320	1	19
434.662	1	18
435.003	1	30
435.344	1	34
435.685	1	22
436.026	1	18
436.368	1	18
436.709	1	20
437.050	1	23
437.391	1	16
437.732	1	26
438.073	1	23
438.414	1	21
438.756	1	29
439.097	1	24
439.438	1	26
439.779	1	20
440.120	1	13
440.461	1	15
440.802	1	26
441.143	1	21
441.485	1	10
441.826	1	6
442.167	1	16
442.508	1	21
442.849	1	22
443.190	1	12
443.531	1	16
443.872	1	10
444.213	1	7
444.554	1	19
444.895	1	14
445.237	1	15
445.578	1	24
445.919	1	13
446.260	1	16
446.601	1	9
446.942	1	22
447.283	1	17
447.624	1	19
447.965	1	10
448.306	1	14
448.647	1	27
448.988	1	2
449.329	1	8
449.670	1	19
450.011	1	18
450.352	1	19
450.693	1	19
451.034	1	14
451.375	1	20
451.716	1	20
452.057	1	31
452.398	1	11
452.739	1	15
453.080	1	18
453.421	1	17
453.762	1	23
454.103	1	14
454.444	1	19
454.785	1	2
455.126	1	17
455.467	1	6
455.808	1	10
456.149	1	6
456.490	1	12
456.831	1	21
457.172	1	15
457.513	1	23
457.854	1	8
458.195	1	13
458.536	1	24
458.877	1	14
459.218	1	16
459.559	1	7
459.899	1	30
460.240	1	21
460.581	1	16
460.922	1	16
461.263	1	22
461.604	1	12
461.945	1	18
462.286	1	14
462.627	1	6
462.968	1	11
463.309	1	9
463.649	1	18
463.990	1	9
464.331	1	12
464.672	1	12
465.013	1	6
465.354	1	22
465.695	1	20
466.036	1	12
466.376	1	14
466.717	1	3
467.058	1	21
467.399	1	5
467.740	1	10
468.081	1	14
468.422	1	12
468.762	1	5
469.103	1	6
469.444	1	10
469.785	1	19
470.126	1	15
470.467	1	7
470.807	1	2
471.148	1	11
471.489	1	7
471.830	1	32
472.171	1	11
472.511	1	19
472.852	1	9
473.193	1	8
473.534	1	8
473.875	1	20
474.215	1	7
474.556	1	5
474.897	1	12
475.238	1	15
475.578	1	16
475.919	1	27
476.260	1	11
476.601	1	14
476.942	1	10
477.282	1	0
477.623	1	24
477.964	1	26
478.305	1	18
478.645	1	6
478.986	1	11
479.327	1	7
479.667	1	19
480.008	1	10
480.349	1	12
480.690	1	16
481.030	1	6
481.371	1	15
481.712	1	10
482.053	1	23
482.393	1	6
482.734	1	22
483.075	1	20
483.415	1	17
483.756	1	23
484.097	1	9
484.437	1	12
484.778	1	11
485.119	1	18
485.459	1	15
485.800	1	13
486.141	1	1
486.481	1	21
486.822	1	17
487.163	1	14
487.503	1	3
487.844	1	11
488.185	1	10
488.525	1	12
488.866	1	19
489.207	1	24
489.547	1	17
489.888	1	11
490.228	1	7
490.569	1	23
490.910	1	17
491.250	1	22
491.591	1	12
491.932	1	25
492.272	1	24
492.613	1	23
492.953	1	23
493.294	1	27
493.635	1	22
493.975	1	17
494.316	1	29
494.656	1	23
494.997	1	30
495.337	1	18
495.678	1	24
496.019	1	30
496.359	1	21
496.700	1	33
497.040	1	35
497.381	1	6
497.721	1	17
498.062	1	36
498.403	1	36
498.743	1	37
499.084	1	18
499.424	1	41
499.765	1	40
500.105	1	36
500.446	1	38
500.786	1	40
501.127	1	43
501.467	1	32
501.808	1	15
502.148	1	58
502.489	1	32
502.829	1	38
503.170	1	40
503.510	1	45
503.851	1	22
504.191	1	46
504.532	1	32
504.872	1	38
505.213	1	47
505.553	1	61
505.894	1	63
506.234	1	46
506.575	1	42
506.915	1	52
507.256	1	49
507.596	1	66
507.936	1	57
508.277	1	46
508.617	1	66
508.958	1	58
509.298	1	68
509.639	1	62
509.979	1	51
510.319	1	45
510.660	1	70
511.000	1	60
511.341	1	49
511.681	1	47
512.022	1	42
512.362	1	53
512.702	1	52
513.043	1	62
513.383	1	61
513.724	1	63
514.064	1	71
514.404	1	67
514.745	1	64
515.085	1	65
515.425	1	70
515.766	1	70
516.106	1	68
516.447	1	64
516.787	1	65
517.127	1	75
517.468	1	65
517.808	1	65
518.148	1	72
518.489	1	71
518.829	1	61
519.169	1	89
519.510	1	84
519.850	1	67
520.190	1	74
520.531	1	81
520.871	1	67
521.211	1	79
521.552	1	88
521.892	1	70
522.232	1	66
522.573	1	76
522.913	1	84
523.253	1	85
523.593	1	72
523.934	1	77
524.274	1	74
524.614	1	71
524.955	1	78
525.295	1	68
525.635	1	91
525.975	1	76
526.316	1	78
526.656	1	101
526.996	1	94
527.337	1	75
527.677	1	93
528.017	1	77
528.357	1	92
528.698	1	74
529.038	1	79
529.378	1	85
529.718	1	87
530.058	1	81
530.399	1	98
530.739	1	77
531.079	1	89
531.419	1	90
531.760	1	87
532.100	1	94
532.440	1	85
532.780	1	85
533.120	1	82
533.461	1	113
533.801	1	88
534.141	1	90
534.481	1	88
534.821	1	90
535.162	1	81
535.502	1	91
535.842	1	90
536.182	1	83
536.522	1	84
536.862	1	85
537.203	1	73
537.543	1	74
537.883	1	94
538.223	1	83
538.563	1	81
538.903	1	77
539.243	1	76
539.584	1	84
539.924	1	79
540.264	1	84
540.604	1	77
540.944	1	74
541.284	1	68
541.624	1	81
541.964	1	75
542.305	1	76
542.645	1	73
542.985	1	69
543.325	1	79
543.665	1	76
544.005	1	68
544.345	1	59
544.685	1	77
545.025	1	63
545.365	1	82
545.705	1	75
546.045	1	75
546.386	1	75
546.726	1	68
547.066	1	58
547.406	1	79
547.746	1	74
548.086	1	71
548.426	1	64
548.766	1	74
549.106	1	75
549.446	1	65
549.786	1	77
550.126	1	59
550.466	1	70
550.806	1	75
551.146	1	61
551.486	1	76
551.826	1	78
552.166	1	71
552.506	1	60
552.846	1	65
553.186	1	57
553.526	1	65
553.866	1	71
554.206	1	72
554.546	1	45
554.886	1	57
555.226	1	57
555.566	1	64
555.906	1	67
556.246	1	65
556.586	1	74
556.926	1	56
557.266	1	64
557.606	1	48
557.946	1	57
558.286	1	62
558.626	1	70
558.966	1	56
559.306	1	50
559.646	1	49
559.986	1	40
560.325	1	51
560.665	1	56
561.005	1	47
561.345	1	54
561.685	1	54
562.025	1	38
562.365	1	45
562.705	1	45
563.045	1	52
563.385	1	47
563.725	1	48
564.064	1	49
564.404	1	47
564.744	1	54
565.084	1	33
565.424	1	45
565.764	1	58
566.104	1	41
566.444	1	52
566.783	1	49
567.123	1	65
567.463	1	33
567.803	1	39
568.143	1	40
568.483	1	43
568.823	1	49
569.162	1	47
569.502	1	34
569.842	1	39
570.182	1	40
570.522	1	50
570.862	1	43
571.201	1	45
571.541	1	30
571.881	1	46
572.221	1	48
572.561	1	33
572.900	1	40
573.240	1	25
573.580	1	53
573.920	1	38
574.260	1	25
574.599	1	38
574.939	1	41
575.279	1	26
575.619	1	38
575.959	1	28
576.298	1	18
576.638	1	26
576.978	1	35
577.318	1	25
577.657	1	22
577.997	1	29
578.337	1	22
578.677	1	29
579.016	1	42
579.356	1	22
579.696	1	45
580.036	1	23
580.375	1	25
580.715	1	23
581.055	1	24
581.394	1	22
581.734	1	32
582.074	1	31
582.414	1	23
582.753	1	30
583.093	1	17
583.433	1	22
583.772	1	26
584.112	1	29
584.452	1	34
584.791	1	31
585.131	1	16
585.471	1	15
585.811	1	18
586.150	1	18
586.490	1	21
586.830	1	6
587.169	1	32
587.509	1	26
587.849	1	33
588.188	1	28
588.528	1	23
588.867	1	15
589.207	1	12
589.547	1	13
589.886	1	22
590.226	1	27
590.566	1	17
590.905	1	26
591.245	1	22
591.585	1	13
591.924	1	22
592.264	1	18
592.603	1	9
592.943	1	8
593.283	1	28
593.622	1	16
593.962	1	28
594.301	1	32
594.641	1	7
594.981	1	18
595.320	1	18
595.660	1	19
595.999	1	14
596.339	1	10
596.678	1	12
597.018	1	20
597.358	1	9
597.697	1	17
598.037	1	17
598.376	1	31
598.716	1	8
599.055	1	16
599.395	1	20
599.734	1	21
600.074	1	10
600.413	1	23
600.753	1	10
601.092	1	4
601.432	1	9
601.771	1	22
602.111	1	17
602.451	1	15
602.790	1	17
603.130	1	23
603.469	1	15
603.809	1	18
604.148	1	32
604.487	1	12
604.827	1	4
605.166	1	6
605.506	1	7
605.845	1	17
606.185	1	15
606.524	1	6
606.864	1	9
607.203	1	14
607.543	1	2
607.882	1	5
608.222	1	13
608.561	1	12
608.901	1	16
609.240	1	18
609.579	1	12
609.919	1	9
610.258	1	17
610.598	1	13
610.937	1	9
611.277	1	15
611.616	1	2
611.955	1	10
612.295	1	17
612.634	1	11
612.974	1	19
613.313	1	20
613.652	1	10
613.992	1	16
614.331	1	19
614.671	1	19
615.010	1	4
615.349	1	11
615.689	1	13
616.028	1	4
616.368	1	6
616.707	1	4
617.046	1	13
617.386	1	17
617.725	1	22
618.064	1	14
618.404	1	22
618.743	1	21
619.082	1	10
619.422	1	15
619.761	1	11
620.100	1	18
620.440	1	16
620.779	1	2
621.118	1	11
621.458	1	17
621.797	1	17
622.136	1	12
622.476	1	26
622.815	1	16
623.154	1	9
623.494	1	12
623.833	1	6
624.172	1	24
624.511	1	6
624.851	1	-1
625.190	1	8
625.529	1	19
625.869	1	17
626.208	1	4
626.547	1	5
626.886	1	2
627.226	1	7
627.565	1	18
627.904	1	17
628.243	1	10
628.583	1	2
628.922	1	8
629.261	1	18
629.600	1	15
629.940	1	5
630.279	1	-5
630.618	1	14
630.957	1	11
631.297	1	12
631.636	1	4
631.975	1	12
632.314	1	17
632.653	1	7
632.993	1	15
633.332	1	12
633.671	1	9
634.010	1	6
634.349	1	17
634.689	1	19
635.028	1	8
635.367	1	5
635.706	1	1
636.045	1	4
636.384	1	9
636.724	1	10
637.063	1	2
637.402	1	13
637.741	1	34
638.080	1	8
638.419	1	13
638.759	1	2
639.098	1	10
639.437	1	-5
639.776	1	3
640.115	1	11
640.454	1	15
640.793	1	11
641.132	1	20
641.472	1	6
641.811	1	13
642.150	1	4
642.489	1	-1
642.828	1	3
643.167	1	13
643.506	1	-3
643.845	1	6
644.184	1	9
644.524	1	3
644.863	1	2
645.202	1	7
645.541	1	2
645.880	1	5
646.219	1	10
646.558	1	2
646.897	1	9
647.236	1	5
647.575	1	13
647.914	1	7
648.253	1	10
648.592	1	2
648.931	1	16
649.270	1	20
649.610	1	20
649.949	1	4
650.288	1	-3
650.627	1	14
650.966	1	6
651.305	1	7
651.644	1	6
651.983	1	8
652.322	1	11
652.661	1	-3
653.000	1	6
653.339	1	12
653.678	1	12
654.017	1	1
654.356	1	14
654.695	1	8
655.034	1	3
655.373	1	5
655.712	1	4
656.051	1	21
656.390	1	2
656.729	1	13
657.068	1	4
657.406	1	8
657.745	1	4
658.084	1	16
658.423	1	2
658.762	1	-1
659.101	1	7
659.440	1	16
659.779	1	0
660.118	1	4
660.457	1	3
660.796	1	11
661.135	1	19
661.474	1	2
661.813	1	11
662.152	1	2
662.491	1	12
662.829	1	-6
663.168	1	5
663.507	1	-1
663.846	1	12
664.185	1	7
664.524	1	2
664.863	1	8
665.202	1	-3
665.541	1	-4
665.879	1	2
666.218	1	3
666.557	1	11
666.896	1	6
667.235	1	6
667.574	1	9
667.913	1	5
668.251	1	5
668.590	1	10
668.929	1	14
669.268	1	7
669.607	1	-3
669.946	1	10
670.285	1	6
670.623	1	8
670.962	1	5
671.301	1	7
671.640	1	-1
671.979	1	19
672.317	1	12
672.656	1	13
672.995	1	8
673.334	1	17
673.673	1	18
674.011	1	15
674.350	1	2
674.689	1	1
675.028	1	11
675.367	1	10
675.705	1	-1
676.044	1	6
676.383	1	2
676.722	1	4
677.060	1	7
677.399	1	6
677.738	1	7
678.077	1	13
678.416	1	4
678.754	1	1
679.093	1	10
679.432	1	-10
679.771	1	9
680.109	1	11
680.448	1	4
680.787	1	2
681.125	1	10
681.464	1	8
681.803	1	-2
682.142	1	18
682.480	1	4
682.819	1	4
683.158	1	14
683.496	1	5
683.835	1	10
684.174	1	10
684.512	1	5
684.851	1	0
685.190	1	14
685.529	1	7
685.867	1	6
686.206	1	7
686.545	1	9
686.883	1	4
687.222	1	6
687.561	1	19
687.899	1	14
688.238	1	18
688.577	1	-2
688.746	1	6