File: Analysis/GaN_68K_200ms/GaN_sample E_spot4_UVVIS_68 K_200um_200 ms 2x2mm1_7.txt
340.368	1	-2
340.710	1	-9
341.052	1	5
341.394	1	2
341.737	1	4
342.079	1	-4
342.421	1	-7
342.763	1	-3
343.105	1	7
343.447	1	0
343.789	1	-10
344.131	1	2
344.473	1	-3
344.815	1	10
345.157	1	11
345.499	1	1
345.841	1	6
346.183	1	-2
346.526	1	11
346.868	1	1
347.210	1	0
347.552	1	-6
347.894	1	-5
348.236	1	-2
348.578	1	10
348.920	1	6
349.262	1	-7
349.604	1	14
349.946	1	8
350.288	1	5
350.630	1	-4
350.972	1	6
351.314	1	3
351.656	1	7
351.998	1	-8
352.340	1	2
352.682	1	1
353.024	1	-14
353.366	1	7
353.708	1	0
354.050	1	-1
354.392	1	10
354.734	1	-11
355.076	1	1
355.418	1	-2
355.760	1	7
356.102	1	0
356.444	1	3
356.785	1	13
357.127	1	1
357.469	1	-1
357.811	1	14
358.153	1	3
358.495	1	12
358.837	1	7
359.179	1	11
359.521	1	-2
359.863	1	-5
360.205	1	-5
360.547	1	-4
360.889	1	-1
361.231	1	0
361.572	1	0
361.914	1	2
362.256	1	3
362.598	1	5
362.940	1	-1
363.282	1	3
363.624	1	-2
363.966	1	-4
364.308	1	1
364.649	1	-3
364.991	1	3
365.333	1	1
365.675	1	-10
366.017	1	-3
366.359	1	1
366.701	1	-4
367.042	1	15
367.384	1	3
367.726	1	7
368.068	1	-5
368.410	1	-3
368.752	1	-3
369.093	1	-6
369.435	1	-3
369.777	1	1
370.119	1	4
370.461	1	1
370.803	1	0
371.144	1	8
371.486	1	5
371.828	1	-2
372.170	1	5
372.512	1	-7
372.853	1	1
373.195	1	-6
373.537	1	1
373.879	1	6
374.220	1	10
374.562	1	1
374.904	1	4
375.246	1	-2
375.588	1	-3
375.929	1	8
376.271	1	-2
376.613	1	6
376.955	1	-1
377.296	1	-12
377.638	1	-2
377.980	1	3
378.321	1	5
378.663	1	-7
379.005	1	8
379.347	1	9
379.688	1	-5
380.030	1	-3
380.372	1	1
380.714	1	-2
381.055	1	7
381.397	1	-3
381.739	1	3
382.080	1	-10
382.422	1	18
382.764	1	-6
383.105	1	-2
383.447	1	4
383.789	1	-4
384.130	1	-6
384.472	1	-4
384.814	1	9
385.156	1	9
385.497	1	9
385.839	1	8
386.180	1	3
386.522	1	5
386.864	1	5
387.205	1	-11
387.547	1	-3
387.889	1	9
388.230	1	-2
388.572	1	-4
388.914	1	-1
389.255	1	6
389.597	1	-5
389.939	1	5
390.280	1	8
390.622	1	-9
390.963	1	10
391.305	1	-2
391.647	1	-1
391.988	1	-13
392.330	1	5
392.671	1	4
393.013	1	13
393.355	1	4
393.696	1	-1
394.038	1	-1
394.379	1	-1
394.721	1	-3
395.062	1	-9
395.404	1	1
395.746	1	-6
396.087	1	-4
396.429	1	0
396.770	1	4
397.112	1	-7
397.453	1	4
397.795	1	-5
398.136	1	4
398.478	1	2
398.819	1	6
399.161	1	-4
399.503	1	5
399.844	1	-4
400.186	1	4
400.527	1	1
400.869	1	8
401.210	1	7
401.552	1	4
401.893	1	9
402.235	1	6
402.576	1	13
402.918	1	-13
403.259	1	-4
403.601	1	-2
403.942	1	2
404.284	1	6
404.625	1	3
404.967	1	3
405.308	1	-2
405.649	1	0
405.991	1	7
406.332	1	0
406.674	1	-2
407.015	1	-6
407.357	1	7
407.698	1	-8
408.040	1	-5
408.381	1	-8
408.722	1	-4
409.064	1	-5
409.405	1	1
409.747	1	1
410.088	1	3
410.430	1	7
410.771	1	9
411.112	1	-5
411.454	1	8
411.795	1	4
412.137	1	11
412.478	1	4
412.819	1	-10
413.161	1	3
413.502	1	-2
413.844	1	-5
414.185	1	-4
414.526	1	6
414.868	1	10
415.209	1	-6
415.550	1	-8
415.892	1	-4
416.233	1	0
416.575	1	7
416.916	1	3
417.257	1	7
417.599	1	3
417.940	1	-3
418.281	1	-4
418.623	1	-4
418.964	1	-1
419.305	1	-1
419.647	1	2
419.988	1	-8
420.329	1	5
420.671	1	4
421.012	1	7
421.353	1	8
421.695	1	3
422.036	1	5
422.377	1	4
422.718	1	0
423.060	1	7
423.401	1	0
423.742	1	1
424.084	1	-3
424.425	1	7
424.766	1	-1
425.107	1	0
425.449	1	6
425.790	1	5
426.131	1	-9
426.472	1	5
426.814	1	4
427.155	1	-1
427.496	1	11
427.837	1	-11
428.179	1	-10
428.520	1	-8
428.861	1	1
429.202	1	12
429.544	1	2
429.885	1	-3
430.226	1	-2
430.567	1	9
430.909	1	-12
431.250	1	-13
431.591	1	5
431.932	1	5
432.273	1	-3
432.615	1	-3
432.956	1	8
433.297	1	9
433.638	1	-9
433.979	1	3
434.320	1	-2
434.662	1	-5
435.003	1	1
435.344	1	4
435.685	1	4
436.026	1	0
436.368	1	-3
436.709	1	-7
437.050	1	13
437.391	1	5
437.732	1	-1
438.073	1	12
438.414	1	5
438.756	1	0
439.097	1	3
439.438	1	2
439.779	1	-4
440.120	1	4
440.461	1	3
440.802	1	10
441.143	1	10
441.485	1	-5
441.826	1	-4
442.167	1	-3
442.508	1	1
442.849	1	11
443.190	1	-4
443.531	1	-5
443.872	1	3
444.213	1	-14
444.554	1	-1
444.895	1	-5
445.237	1	-1
445.578	1	-4
445.919	1	-4
446.260	1	-4
446.601	1	-9
446.942	1	-3
447.283	1	2
447.624	1	7
447.965	1	-6
448.306	1	0
448.647	1	4
448.988	1	-9
449.329	1	4
449.670	1	4
450.011	1	3
450.352	1	3
450.693	1	8
451.034	1	7
451.375	1	7
451.716	1	10
452.057	1	13
452.398	1	4
452.739	1	-5
453.080	1	14
453.421	1	0
453.762	1	9
454.103	1	-1
454.444	1	14
454.785	1	-7
455.126	1	2
455.467	1	6
455.808	1	6
456.149	1	1
456.490	1	-7
456.831	1	18
457.172	1	3
457.513	1	5
457.854	1	7
458.195	1	5
458.536	1	7
458.877	1	-1
459.218	1	2
459.559	1	0
459.899	1	9
460.240	1	4
460.581	1	2
460.922	1	-3
461.263	1	1
461.604	1	0
461.945	1	5
462.286	1	5
462.627	1	-2
462.968	1	-2
463.309	1	-6
463.649	1	-3
463.990	1	1
464.331	1	4
464.672	1	5
465.013	1	-11
465.354	1	4
465.695	1	2
466.036	1	-4
466.376	1	-6
466.717	1	-7
467.058	1	7
467.399	1	8
467.740	1	-8
468.081	1	0
468.422	1	2
468.762	1	-14
469.103	1	-8
469.444	1	-5
469.785	1	5
470.126	1	10
470.467	1	-5
470.807	1	2
471.148	1	-3
471.489	1	-1
471.830	1	13
472.171	1	-5
472.511	1	0
472.852	1	7
473.193	1	-5
473.534	1	1
473.875	1	9
474.215	1	2
474.556	1	-1
474.897	1	3
475.238	1	6
475.578	1	-6
475.919	1	11
476.260	1	-6
476.601	1	6
476.942	1	3
477.282	1	-6
477.623	1	-3
477.964	1	11
478.305	1	10
478.645	1	-4
478.986	1	3
479.327	1	-7
479.667	1	0
480.008	1	8
480.349	1	-9
480.690	1	3
481.030	1	-2
481.371	1	3
481.712	1	1
482.053	1	1
482.393	1	-10
482.734	1	2
483.075	1	11
483.415	1	7
483.756	1	-1
484.097	1	-10
484.437	1	-20
484.778	1	1
485.119	1	5
485.459	1	8
485.800	1	0
486.141	1	-9
486.481	1	12
486.822	1	4
487.163	1	-9
487.503	1	-10
487.844	1	16
488.185	1	-10
488.525	1	3
488.866	1	12
489.207	1	5
489.547	1	-2
489.888	1	4
490.228	1	-12
490.569	1	9
490.910	1	4
491.250	1	-7
491.591	1	-13
491.932	1	3
492.272	1	10
492.613	1	13
492.953	1	11
493.294	1	11
493.635	1	-6
493.975	1	1
494.316	1	9
494.656	1	4
494.997	1	2
495.337	1	0
495.678	1	2
496.019	1	1
496.359	1	7
496.700	1	5
497.040	1	1
497.381	1	-21
497.721	1	-6
498.062	1	4
498.403	1	5
498.743	1	1
499.084	1	-11
499.424	1	9
499.765	1	0
500.105	1	-3
500.446	1	4
500.786	1	1
501.127	1	6
501.467	1	1
501.808	1	-10
502.148	1	-2
502.489	1	21
502.829	1	5
503.170	1	8
503.510	1	0
503.851	1	-15
504.191	1	1
504.532	1	-16
504.872	1	-2
505.213	1	2
505.553	1	1
505.894	1	6
506.234	1	10
506.575	1	-2
506.915	1	-7
507.256	1	-8
507.596	1	-5
507.936	1	4
508.277	1	-6
508.617	1	5
508.958	1	11
509.298	1	4
509.639	1	2
509.979	1	-3
510.319	1	-10
510.660	1	6
511.000	1	13
511.341	1	-9
511.681	1	-5
512.022	1	7
512.362	1	-2
512.702	1	-8
513.043	1	0
513.383	1	-7
513.724	1	5
514.064	1	5
514.404	1	8
514.745	1	-7
515.085	1	-2
515.425	1	-9
515.766	1	1
516.106	1	-4
516.447	1	1
516.787	1	1
517.127	1	1
517.468	1	3
517.808	1	2
518.148	1	-3
518.489	1	6
518.829	1	-21
519.169	1	0
519.510	1	4
519.850	1	3
520.190	1	5
520.531	1	7
520.871	1	-3
521.211	1	-2
521.552	1	-4
521.892	1	-10
522.232	1	-3
522.573	1	1
522.913	1	1
523.253	1	-3
523.593	1	-13
523.934	1	5
524.274	1	0
524.614	1	0
524.955	1	-1
525.295	1	-6
525.635	1	2
525.975	1	-2
526.316	1	5
526.656	1	18
526.996	1	4
527.337	1	-4
527.677	1	12
528.017	1	-12
528.357	1	4
528.698	1	-1
529.038	1	9
529.378	1	3
529.718	1	-1
530.058	1	-4
530.399	1	8
530.739	1	-10
531.079	1	9
531.419	1	5
531.760	1	3
532.100	1	5
532.440	1	0
532.780	1	3
533.120	1	-10
533.461	1	19
533.801	1	6
534.141	1	7
534.481	1	-3
534.821	1	4
535.162	1	2
535.502	1	7
535.842	1	4
536.182	1	-1
536.522	1	12
536.862	1	-4
537.203	1	9
537.543	1	0
537.883	1	5
538.223	1	3
538.563	1	5
538.903	1	1
539.243	1	4
539.584	1	-5
539.924	1	7
540.264	1	-2
540.604	1	0
540.944	1	2
541.284	1	-4
541.624	1	9
541.964	1	-2
542.305	1	-9
542.645	1	-1
542.985	1	-2
543.325	1	-2
543.665	1	6
544.005	1	-1
544.345	1	4
544.685	1	-1
545.025	1	0
545.365	1	1
545.705	1	0
546.045	1	8
546.386	1	-7
546.726	1	2
547.066	1	-8
547.406	1	9
547.746	1	8
548.086	1	2
548.426	1	-3
548.766	1	6
549.106	1	11
549.446	1	-5
549.786	1	7
550.126	1	-1
550.466	1	-3
550.806	1	4
551.146	1	-3
551.486	1	4
551.826	1	14
552.166	1	0
552.506	1	-2
552.846	1	3
553.186	1	1
553.526	1	3
553.866	1	-8
554.206	1	10
554.546	1	-10
554.886	1	1
555.226	1	-2
555.566	1	5
555.906	1	6
556.246	1	-4
556.586	1	8
556.926	1	0
557.266	1	5
557.606	1	-10
557.946	1	13
558.286	1	3
558.626	1	9
558.966	1	-1
559.306	1	-5
559.646	1	-7
559.986	1	-6
560.325	1	-2
560.665	1	-2
561.005	1	6
561.345	1	1
561.685	1	-6
562.025	1	-9
562.365	1	2
562.705	1	1
563.045	1	2
563.385	1	1
563.725	1	-5
564.064	1	2
564.404	1	-4
564.744	1	6
565.084	1	-4
565.424	1	-9
565.764	1	4
566.104	1	-6
566.444	1	10
566.783	1	-6
567.123	1	10
567.463	1	6
567.803	1	-7
568.143	1	-6
568.483	1	-2
568.823	1	7
569.162	1	0
569.502	1	9
569.842	1	-1
570.182	1	-11
570.522	1	0
570.862	1	8
571.201	1	10
571.541	1	2
571.881	1	4
572.221	1	6
572.561	1	-12
572.900	1	11
573.240	1	-6
573.580	1	4
573.920	1	-16
574.260	1	2
574.599	1	-9
574.939	1	-4
575.279	1	-1
575.619	1	-4
575.959	1	3
576.298	1	-11
576.638	1	0
576.978	1	-5
577.318	1	12
577.657	1	-12
577.997	1	-6
578.337	1	-3
578.677	1	-12
579.016	1	18
579.356	1	-4
579.696	1	4
580.036	1	-1
580.375	1	-3
580.715	1	14
581.055	1	2
581.394	1	-2
581.734	1	6
582.074	1	-6
582.414	1	5
582.753	1	8
583.093	1	-8
583.433	1	0
583.772	1	7
584.112	1	0
584.452	1	3
584.791	1	-9
585.131	1	1
585.471	1	-11
585.811	1	-8
586.150	1	-2
586.490	1	4
586.830	1	-4
587.169	1	-4
587.509	1	4
587.849	1	3
588.188	1	3
588.528	1	1
588.867	1	6
589.207	1	-12
589.547	1	-1
589.886	1	-14
590.226	1	0
590.566	1	-4
590.905	1	5
591.245	1	-4
591.585	1	-8
591.924	1	-5
592.264	1	-1
592.603	1	-4
592.943	1	-7
593.283	1	12
593.622	1	4
593.962	1	2
594.301	1	6
594.641	1	-13
594.981	1	2
595.320	1	5
595.660	1	-1
595.999	1	-6
596.339	1	1
596.678	1	-3
597.018	1	3
597.358	1	12
597.697	1	0
598.037	1	5
598.376	1	2
598.716	1	-8
599.055	1	6
599.395	1	-1
599.734	1	7
600.074	1	-1
600.413	1	-2
600.753	1	-1
601.092	1	-6
601.432	1	2
601.771	1	1
602.111	1	-9
602.451	1	1
602.790	1	2
603.130	1	-1
603.469	1	4
603.809	1	6
604.148	1	5
604.487	1	3
604.827	1	-20
605.166	1	-8
605.506	1	1
605.845	1	7
606.185	1	6
606.524	1	-7
606.864	1	2
607.203	1	9
607.543	1	-7
607.882	1	-4
608.222	1	3
608.561	1	4
608.901	1	0
609.240	1	0
609.579	1	-7
609.919	1	-1
610.258	1	7
610.598	1	7
610.937	1	-8
611.277	1	6
611.616	1	-10
611.955	1	3
612.295	1	3
612.634	1	-4
612.974	1	-2
613.313	1	-1
613.652	1	-7
613.992	1	3
614.331	1	4
614.671	1	5
615.010	1	6
615.349	1	5
615.689	1	6
616.028	1	1
616.368	1	-5
616.707	1	-9
617.046	1	2
617.386	1	-5
617.725	1	18
618.064	1	6
618.404	1	9
618.743	1	-6
619.082	1	6
619.422	1	5
619.761	1	10
620.100	1	-4
620.440	1	0
620.779	1	-9
621.118	1	6
621.458	1	-2
621.797	1	4
622.136	1	9
622.476	1	-1
622.815	1	1
623.154	1	0
623.494	1	6
623.833	1	0
624.172	1	10
624.511	1	9
624.851	1	-13
625.190	1	-3
625.529	1	4
625.869	1	5
626.208	1	-5
626.547	1	-3
626.886	1	5
627.226	1	-1
627.565	1	9
627.904	1	-1
628.243	1	-9
628.583	1	1
628.922	1	-4
629.261	1	7
629.600	1	8
629.940	1	5
630.279	1	0
630.618	1	-4
630.957	1	0
631.297	1	2
631.636	1	2
631.975	1	8
632.314	1	12
632.653	1	-9
632.993	1	2
633.332	1	10
633.671	1	-1
634.010	1	4
634.349	1	0
634.689	1	8
635.028	1	0
635.367	1	-3
635.706	1	-9
636.045	1	-1
636.384	1	8
636.724	1	7
637.063	1	5
637.402	1	8
637.741	1	15
638.080	1	1
638.419	1	6
638.759	1	0
639.098	1	-2
639.437	1	-1
639.776	1	4
640.115	1	-8
640.454	1	8
640.793	1	4
641.132	1	5
641.472	1	-2
641.811	1	-2
642.150	1	10
642.489	1	-4
642.828	1	-7
643.167	1	7
643.506	1	2
643.845	1	5
644.184	1	3
644.524	1	-9
644.863	1	-5
645.202	1	7
645.541	1	-11
645.880	1	0
646.219	1	1
646.558	1	-3
646.897	1	-8
647.236	1	1
647.575	1	4
647.914	1	1
648.253	1	4
648.592	1	3
648.931	1	3
649.270	1	17
649.610	1	16
649.949	1	-1
650.288	1	0
650.627	1	6
650.966	1	-6
651.305	1	-1
651.644	1	-5
651.983	1	-1
652.322	1	3
652.661	1	2
653.000	1	8
653.339	1	-4
653.678	1	3
654.017	1	1
654.356	1	10
654.695	1	13
655.034	1	-6
655.373	1	-6
655.712	1	-6
656.051	1	18
656.390	1	7
656.729	1	2
657.068	1	-6
657.406	1	9
657.745	1	1
658.084	1	7
658.423	1	-7
658.762	1	-6
659.101	1	-3
659.440	1	12
659.779	1	1
660.118	1	0
660.457	1	-8
660.796	1	-11
661.135	1	9
661.474	1	3
661.813	1	-6
662.152	1	4
662.491	1	-7
662.829	1	-2
663.168	1	-2
663.507	1	-9
663.846	1	8
664.185	1	5
664.524	1	-11
664.863	1	-4
665.202	1	-6
665.541	1	-1
665.879	1	3
666.218	1	-7
666.557	1	1
666.896	1	-5
667.235	1	-1
667.574	1	4
667.913	1	5
668.251	1	4
668.590	1	-1
668.929	1	-2
669.268	1	4
669.607	1	-7
669.946	1	9
670.285	1	6
670.623	1	-1
670.962	1	3
671.301	1	1
671.640	1	-10
671.979	1	7
672.317	1	2
672.656	1	10
672.995	1	5
673.334	1	5
673.673	1	8
674.011	1	4
674.350	1	-4
674.689	1	-2
675.028	1	1
675.367	1	0
675.705	1	-6
676.044	1	-11
676.383	1	-5
676.722	1	-2
677.060	1	5
677.399	1	4
677.738	1	-4
678.077	1	9
678.416	1	1
678.754	1	-11
679.093	1	9
679.432	1	2
679.771	1	-1
680.109	1	4
680.448	1	5
680.787	1	1
681.125	1	8
681.464	1	1
681.803	1	-11
682.142	1	13
682.480	1	-5
682.819	1	6
683.158	1	-5
683.496	1	-13
683.835	1	4
684.174	1	-4
684.512	1	0
684.851	1	-5
685.190	1	10
685.529	1	-8
685.867	1	-6
686.206	1	4
686.545	1	8
686.883	1	-7
687.222	1	-9
687.561	1	6
687.899	1	-5
688.238	1	9
688.577	1	-2
688.746	1	5