File: Analysis/GaN_68K_200ms/GaN_sample E_spot4_UVVIS_68 K_200um_200 ms 2x2mm1_382.txt
340.368	1	2
340.710	1	-3
341.052	1	-7
341.394	1	0
341.737	1	0
342.079	1	-5
342.421	1	3
342.763	1	-6
343.105	1	14
343.447	1	8
343.789	1	3
344.131	1	3
344.473	1	7
344.815	1	6
345.157	1	1
345.499	1	5
345.841	1	1
346.183	1	6
346.526	1	13
346.868	1	6
347.210	1	-3
347.552	1	1
347.894	1	5
348.236	1	-1
348.578	1	0
348.920	1	13
349.262	1	3
349.604	1	13
349.946	1	5
350.288	1	4
350.630	1	-8
350.972	1	-2
351.314	1	-1
351.656	1	-5
351.998	1	-12
352.340	1	7
352.682	1	1
353.024	1	-9
353.366	1	0
353.708	1	4
354.050	1	5
354.392	1	3
354.734	1	3
355.076	1	1
355.418	1	0
355.760	1	12
356.102	1	2
356.444	1	2
356.785	1	14
357.127	1	-2
357.469	1	-2
357.811	1	13
358.153	1	11
358.495	1	8
358.837	1	2
359.179	1	10
359.521	1	0
359.863	1	-2
360.205	1	-5
360.547	1	4
360.889	1	10
361.231	1	4
361.572	1	-4
361.914	1	3
362.256	1	3
362.598	1	-2
362.940	1	3
363.282	1	11
363.624	1	0
363.966	1	9
364.308	1	1
364.649	1	10
364.991	1	0
365.333	1	9
365.675	1	-1
366.017	1	-5
366.359	1	7
366.701	1	3
367.042	1	20
367.384	1	12
367.726	1	9
368.068	1	-1
368.410	1	-1
368.752	1	-5
369.093	1	5
369.435	1	13
369.777	1	1
370.119	1	7
370.461	1	-3
370.803	1	3
371.144	1	15
371.486	1	8
371.828	1	4
372.170	1	4
372.512	1	5
372.853	1	3
373.195	1	-6
373.537	1	4
373.879	1	-1
374.220	1	6
374.562	1	-2
374.904	1	4
375.246	1	-3
375.588	1	8
375.929	1	3
376.271	1	8
376.613	1	-5
376.955	1	-14
377.296	1	10
377.638	1	0
377.980	1	-6
378.321	1	11
378.663	1	2
379.005	1	3
379.347	1	10
379.688	1	-6
380.030	1	-8
380.372	1	8
380.714	1	7
381.055	1	6
381.397	1	-10
381.739	1	11
382.080	1	-12
382.422	1	11
382.764	1	4
383.105	1	-5
383.447	1	6
383.789	1	8
384.130	1	-1
384.472	1	-3
384.814	1	5
385.156	1	22
385.497	1	9
385.839	1	12
386.180	1	7
386.522	1	8
386.864	1	0
387.205	1	4
387.547	1	1
387.889	1	9
388.230	1	-3
388.572	1	11
388.914	1	15
389.255	1	10
389.597	1	-5
389.939	1	9
390.280	1	15
390.622	1	10
390.963	1	15
391.305	1	14
391.647	1	15
391.988	1	0
392.330	1	10
392.671	1	16
393.013	1	13
393.355	1	13
393.696	1	10
394.038	1	1
394.379	1	7
394.721	1	14
395.062	1	-2
395.404	1	9
395.746	1	2
396.087	1	-1
396.429	1	6
396.770	1	11
397.112	1	4
397.453	1	-8
397.795	1	12
398.136	1	5
398.478	1	0
398.819	1	9
399.161	1	8
399.503	1	6
399.844	1	-3
400.186	1	14
400.527	1	-3
400.869	1	21
401.210	1	0
401.552	1	18
401.893	1	2
402.235	1	16
402.576	1	12
402.918	1	-3
403.259	1	-2
403.601	1	-3
403.942	1	5
404.284	1	7
404.625	1	3
404.967	1	11
405.308	1	2
405.649	1	-1
405.991	1	24
406.332	1	1
406.674	1	2
407.015	1	-4
407.357	1	3
407.698	1	-8
408.040	1	2
408.381	1	-4
408.722	1	2
409.064	1	1
409.405	1	-2
409.747	1	2
410.088	1	-1
410.430	1	9
410.771	1	16
411.112	1	3
411.454	1	13
411.795	1	2
412.137	1	10
412.478	1	5
412.819	1	9
413.161	1	5
413.502	1	1
413.844	1	-5
414.185	1	7
414.526	1	7
414.868	1	6
415.209	1	1
415.550	1	-8
415.892	1	0
416.233	1	-1
416.575	1	2
416.916	1	-5
417.257	1	10
417.599	1	6
417.940	1	-1
418.281	1	-1
418.623	1	-1
418.964	1	9
419.305	1	1
419.647	1	10
419.988	1	-7
420.329	1	3
420.671	1	-1
421.012	1	13
421.353	1	6
421.695	1	1
422.036	1	-1
422.377	1	5
422.718	1	-1
423.060	1	-3
423.401	1	8
423.742	1	-2
424.084	1	0
424.425	1	1
424.766	1	-1
425.107	1	1
425.449	1	6
425.790	1	2
426.131	1	5
426.472	1	0
426.814	1	9
427.155	1	-2
427.496	1	11
427.837	1	-4
428.179	1	-8
428.520	1	4
428.861	1	1
429.202	1	7
429.544	1	7
429.885	1	1
430.226	1	14
430.567	1	12
430.909	1	-1
431.250	1	-13
431.591	1	3
431.932	1	2
432.273	1	-3
432.615	1	4
432.956	1	1
433.297	1	5
433.638	1	5
433.979	1	-1
434.320	1	1
434.662	1	-12
435.003	1	9
435.344	1	9
435.685	1	9
436.026	1	4
436.368	1	-7
436.709	1	-4
437.050	1	10
437.391	1	6
437.732	1	0
438.073	1	0
438.414	1	2
438.756	1	-2
439.097	1	6
439.438	1	12
439.779	1	1
440.120	1	6
440.461	1	4
440.802	1	11
441.143	1	8
441.485	1	0
441.826	1	-9
442.167	1	-2
442.508	1	-1
442.849	1	8
443.190	1	-4
443.531	1	5
443.872	1	1
444.213	1	-10
444.554	1	-8
444.895	1	-2
445.237	1	-4
445.578	1	14
445.919	1	0
446.260	1	13
446.601	1	-4
446.942	1	14
447.283	1	0
447.624	1	2
447.965	1	-1
448.306	1	-2
448.647	1	13
448.988	1	-2
449.329	1	-1
449.670	1	5
450.011	1	4
450.352	1	8
450.693	1	7
451.034	1	8
451.375	1	8
451.716	1	10
452.057	1	13
452.398	1	8
452.739	1	0
453.080	1	15
453.421	1	9
453.762	1	10
454.103	1	3
454.444	1	11
454.785	1	4
455.126	1	-3
455.467	1	1
455.808	1	2
456.149	1	2
456.490	1	-3
456.831	1	10
457.172	1	0
457.513	1	3
457.854	1	-3
458.195	1	-2
458.536	1	6
458.877	1	-6
459.218	1	3
459.559	1	4
459.899	1	4
460.240	1	1
460.581	1	-1
460.922	1	3
461.263	1	3
461.604	1	-3
461.945	1	7
462.286	1	8
462.627	1	-1
462.968	1	-3
463.309	1	3
463.649	1	4
463.990	1	-1
464.331	1	2
464.672	1	4
465.013	1	-4
465.354	1	1
465.695	1	8
466.036	1	2
466.376	1	-10
466.717	1	-3
467.058	1	5
467.399	1	-5
467.740	1	-2
468.081	1	1
468.422	1	4
468.762	1	0
469.103	1	-1
469.444	1	11
469.785	1	3
470.126	1	3
470.467	1	4
470.807	1	1
471.148	1	2
471.489	1	3
471.830	1	11
472.171	1	4
472.511	1	19
472.852	1	-1
473.193	1	0
473.534	1	-3
473.875	1	7
474.215	1	-2
474.556	1	-5
474.897	1	0
475.238	1	0
475.578	1	-3
475.919	1	17
476.260	1	4
476.601	1	1
476.942	1	-3
477.282	1	-7
477.623	1	7
477.964	1	10
478.305	1	4
478.645	1	-5
478.986	1	8
479.327	1	-11
479.667	1	0
480.008	1	9
480.349	1	7
480.690	1	-2
481.030	1	-3
481.371	1	1
481.712	1	8
482.053	1	8
482.393	1	-8
482.734	1	0
483.075	1	10
483.415	1	6
483.756	1	12
484.097	1	-7
484.437	1	-7
484.778	1	7
485.119	1	6
485.459	1	4
485.800	1	2
486.141	1	-3
486.481	1	10
486.822	1	4
487.163	1	-14
487.503	1	-6
487.844	1	7
488.185	1	-6
488.525	1	-2
488.866	1	4
489.207	1	5
489.547	1	2
489.888	1	4
490.228	1	-7
490.569	1	3
490.910	1	-9
491.250	1	10
491.591	1	-2
491.932	1	9
492.272	1	3
492.613	1	-6
492.953	1	1
493.294	1	8
493.635	1	-10
493.975	1	-7
494.316	1	7
494.656	1	-2
494.997	1	6
495.337	1	4
495.678	1	11
496.019	1	2
496.359	1	1
496.700	1	4
497.040	1	0
497.381	1	-23
497.721	1	2
498.062	1	4
498.403	1	4
498.743	1	-3
499.084	1	-13
499.424	1	6
499.765	1	11
500.105	1	8
500.446	1	8
500.786	1	8
501.127	1	14
501.467	1	4
501.808	1	-6
502.148	1	6
502.489	1	11
502.829	1	4
503.170	1	7
503.510	1	-2
503.851	1	-1
504.191	1	1
504.532	1	0
504.872	1	-4
505.213	1	7
505.553	1	8
505.894	1	10
506.234	1	6
506.575	1	-1
506.915	1	0
507.256	1	3
507.596	1	5
507.936	1	1
508.277	1	-2
508.617	1	9
508.958	1	10
509.298	1	9
509.639	1	7
509.979	1	1
510.319	1	-5
510.660	1	11
511.000	1	11
511.341	1	-12
511.681	1	2
512.022	1	1
512.362	1	6
512.702	1	0
513.043	1	10
513.383	1	-9
513.724	1	14
514.064	1	5
514.404	1	4
514.745	1	-4
515.085	1	6
515.425	1	-1
515.766	1	3
516.106	1	1
516.447	1	0
516.787	1	7
517.127	1	14
517.468	1	3
517.808	1	0
518.148	1	3
518.489	1	9
518.829	1	-8
519.169	1	6
519.510	1	-7
519.850	1	-2
520.190	1	7
520.531	1	4
520.871	1	-10
521.211	1	4
521.552	1	2
521.892	1	3
522.232	1	1
522.573	1	7
522.913	1	10
523.253	1	-9
523.593	1	-2
523.934	1	2
524.274	1	0
524.614	1	2
524.955	1	1
525.295	1	-2
525.635	1	15
525.975	1	0
526.316	1	4
526.656	1	14
526.996	1	14
527.337	1	0
527.677	1	19
528.017	1	1
528.357	1	1
528.698	1	4
529.038	1	5
529.378	1	12
529.718	1	2
530.058	1	0
530.399	1	12
530.739	1	-3
531.079	1	8
531.419	1	13
531.760	1	4
532.100	1	14
532.440	1	1
532.780	1	1
533.120	1	1
533.461	1	15
533.801	1	1
534.141	1	7
534.481	1	9
534.821	1	0
535.162	1	-1
535.502	1	11
535.842	1	7
536.182	1	8
536.522	1	8
536.862	1	11
537.203	1	18
537.543	1	-2
537.883	1	4
538.223	1	15
538.563	1	4
538.903	1	4
539.243	1	2
539.584	1	11
539.924	1	-1
540.264	1	15
540.604	1	5
540.944	1	6
541.284	1	6
541.624	1	-3
541.964	1	2
542.305	1	8
542.645	1	7
542.985	1	-4
543.325	1	-4
543.665	1	11
544.005	1	3
544.345	1	-10
544.685	1	2
545.025	1	-7
545.365	1	1
545.705	1	8
546.045	1	13
546.386	1	3
546.726	1	-7
547.066	1	-5
547.406	1	6
547.746	1	8
548.086	1	10
548.426	1	1
548.766	1	9
549.106	1	12
549.446	1	2
549.786	1	3
550.126	1	2
550.466	1	1
550.806	1	9
551.146	1	-2
551.486	1	7
551.826	1	13
552.166	1	4
552.506	1	-9
552.846	1	0
553.186	1	4
553.526	1	2
553.866	1	5
554.206	1	13
554.546	1	0
554.886	1	-1
555.226	1	-15
555.566	1	0
555.906	1	3
556.246	1	3
556.586	1	14
556.926	1	0
557.266	1	0
557.606	1	-5
557.946	1	12
558.286	1	7
558.626	1	-2
558.966	1	-3
559.306	1	-10
559.646	1	-1
559.986	1	0
560.325	1	-2
560.665	1	7
561.005	1	11
561.345	1	-3
561.685	1	-4
562.025	1	4
562.365	1	10
562.705	1	13
563.045	1	-3
563.385	1	-1
563.725	1	-1
564.064	1	11
564.404	1	4
564.744	1	13
565.084	1	-10
565.424	1	-5
565.764	1	3
566.104	1	3
566.444	1	5
566.783	1	7
567.123	1	10
567.463	1	3
567.803	1	-4
568.143	1	-7
568.483	1	1
568.823	1	4
569.162	1	9
569.502	1	4
569.842	1	-3
570.182	1	-7
570.522	1	7
570.862	1	8
571.201	1	12
571.541	1	-3
571.881	1	11
572.221	1	3
572.561	1	-10
572.900	1	13
573.240	1	-4
573.580	1	-2
573.920	1	11
574.260	1	3
574.599	1	-4
574.939	1	-3
575.279	1	3
575.619	1	0
575.959	1	-6
576.298	1	-3
576.638	1	12
576.978	1	-1
577.318	1	4
577.657	1	-10
577.997	1	-5
578.337	1	-2
578.677	1	-4
579.016	1	17
579.356	1	-4
579.696	1	15
580.036	1	-19
580.375	1	-1
580.715	1	11
581.055	1	7
581.394	1	-7
581.734	1	4
582.074	1	-8
582.414	1	7
582.753	1	3
583.093	1	3
583.433	1	-8
583.772	1	9
584.112	1	-5
584.452	1	-1
584.791	1	5
585.131	1	-8
585.471	1	-4
585.811	1	1
586.150	1	6
586.490	1	-7
586.830	1	1
587.169	1	2
587.509	1	0
587.849	1	7
588.188	1	-6
588.528	1	5
588.867	1	1
589.207	1	0
589.547	1	-8
589.886	1	-2
590.226	1	4
590.566	1	-4
590.905	1	-1
591.245	1	4
591.585	1	-2
591.924	1	-2
592.264	1	-1
592.603	1	-2
592.943	1	3
593.283	1	4
593.622	1	2
593.962	1	5
594.301	1	11
594.641	1	1
594.981	1	4
595.320	1	11
595.660	1	6
595.999	1	3
596.339	1	4
596.678	1	1
597.018	1	9
597.358	1	-4
597.697	1	-1
598.037	1	4
598.376	1	7
598.716	1	-10
599.055	1	2
599.395	1	12
599.734	1	6
600.074	1	3
600.413	1	-4
600.753	1	10
601.092	1	-4
601.432	1	-6
601.771	1	10
602.111	1	-9
602.451	1	0
602.790	1	4
603.130	1	2
603.469	1	-1
603.809	1	5
604.148	1	3
604.487	1	1
604.827	1	0
605.166	1	-6
605.506	1	3
605.845	1	1
606.185	1	4
606.524	1	-6
606.864	1	-1
607.203	1	12
607.543	1	-2
607.882	1	-4
608.222	1	5
608.561	1	5
608.901	1	8
609.240	1	6
609.579	1	4
609.919	1	-6
610.258	1	11
610.598	1	8
610.937	1	0
611.277	1	5
611.616	1	-7
611.955	1	17
612.295	1	-1
612.634	1	-5
612.974	1	4
613.313	1	0
613.652	1	0
613.992	1	-1
614.331	1	5
614.671	1	4
615.010	1	-1
615.349	1	2
615.689	1	1
616.028	1	2
616.368	1	-3
616.707	1	-13
617.046	1	2
617.386	1	1
617.725	1	10
618.064	1	6
618.404	1	8
618.743	1	0
619.082	1	3
619.422	1	10
619.761	1	6
620.100	1	6
620.440	1	7
620.779	1	-9
621.118	1	2
621.458	1	5
621.797	1	1
622.136	1	1
622.476	1	6
622.815	1	0
623.154	1	1
623.494	1	3
623.833	1	-4
624.172	1	17
624.511	1	3
624.851	1	-18
625.190	1	7
625.529	1	12
625.869	1	7
626.208	1	-1
626.547	1	-2
626.886	1	-4
627.226	1	9
627.565	1	6
627.904	1	9
628.243	1	-5
628.583	1	-1
628.922	1	5
629.261	1	9
629.600	1	9
629.940	1	-5
630.279	1	-2
630.618	1	6
630.957	1	-3
631.297	1	0
631.636	1	1
631.975	1	6
632.314	1	10
632.653	1	-8
632.993	1	1
633.332	1	6
633.671	1	0
634.010	1	3
634.349	1	-2
634.689	1	2
635.028	1	3
635.367	1	-5
635.706	1	0
636.045	1	3
636.384	1	9
636.724	1	1
637.063	1	5
637.402	1	4
637.741	1	6
638.080	1	12
638.419	1	1
638.759	1	9
639.098	1	-7
639.437	1	-7
639.776	1	1
640.115	1	-6
640.454	1	7
640.793	1	8
641.132	1	2
641.472	1	-6
641.811	1	2
642.150	1	3
642.489	1	-3
642.828	1	1
643.167	1	19
643.506	1	0
643.845	1	10
644.184	1	2
644.524	1	-5
644.863	1	2
645.202	1	4
645.541	1	-6
645.880	1	-2
646.219	1	4
646.558	1	-1
646.897	1	-10
647.236	1	0
647.575	1	7
647.914	1	-4
648.253	1	10
648.592	1	2
648.931	1	0
649.270	1	12
649.610	1	13
649.949	1	-4
650.288	1	-8
650.627	1	4
650.966	1	-7
651.305	1	0
651.644	1	5
651.983	1	3
652.322	1	0
652.661	1	-1
653.000	1	2
653.339	1	9
653.678	1	9
654.017	1	-6
654.356	1	5
654.695	1	5
655.034	1	6
655.373	1	-1
655.712	1	-9
656.051	1	12
656.390	1	0
656.729	1	5
657.068	1	5
657.406	1	5
657.745	1	-3
658.084	1	10
658.423	1	-9
658.762	1	-6
659.101	1	0
659.440	1	11
659.779	1	-4
660.118	1	1
660.457	1	-5
660.796	1	0
661.135	1	6
661.474	1	3
661.813	1	2
662.152	1	-2
662.491	1	-4
662.829	1	-2
663.168	1	-3
663.507	1	-4
663.846	1	11
664.185	1	1
664.524	1	-5
664.863	1	0
665.202	1	-2
665.541	1	-1
665.879	1	-4
666.218	1	-9
666.557	1	9
666.896	1	2
667.235	1	-7
667.574	1	2
667.913	1	6
668.251	1	0
668.590	1	4
668.929	1	7
669.268	1	5
669.607	1	-9
669.946	1	10
670.285	1	3
670.623	1	6
670.962	1	-6
671.301	1	-3
671.640	1	-7
671.979	1	16
672.317	1	0
672.656	1	-3
672.995	1	12
673.334	1	8
673.673	1	10
674.011	1	2
674.350	1	-3
674.689	1	5
675.028	1	7
675.367	1	7
675.705	1	-11
676.044	1	1
676.383	1	-5
676.722	1	9
677.060	1	5
677.399	1	-4
677.738	1	-3
678.077	1	0
678.416	1	-8
678.754	1	5
679.093	1	8
679.432	1	-8
679.771	1	8
680.109	1	9
680.448	1	2
680.787	1	-4
681.125	1	7
681.464	1	-1
681.803	1	-2
682.142	1	15
682.480	1	1
682.819	1	-1
683.158	1	-1
683.496	1	-3
683.835	1	0
684.174	1	0
684.512	1	-6
684.851	1	11
685.190	1	10
685.529	1	1
685.867	1	1
686.206	1	-4
686.545	1	8
686.883	1	-5
687.222	1	0
687.561	1	7
687.899	1	3
688.238	1	-1
688.577	1	-2
688.746	1	9