File: Analysis/GaN_68K_200ms/GaN_sample E_spot4_UVVIS_68 K_200um_200 ms 2x2mm1_584.txt
340.368	1	0
340.710	1	-8
341.052	1	-3
341.394	1	-1
341.737	1	10
342.079	1	-3
342.421	1	-9
342.763	1	-4
343.105	1	11
343.447	1	1
343.789	1	-2
344.131	1	-3
344.473	1	1
344.815	1	1
345.157	1	8
345.499	1	-3
345.841	1	2
346.183	1	7
346.526	1	5
346.868	1	-6
347.210	1	3
347.552	1	1
347.894	1	4
348.236	1	8
348.578	1	2
348.920	1	11
349.262	1	4
349.604	1	-2
349.946	1	6
350.288	1	-5
350.630	1	0
350.972	1	6
351.314	1	-3
351.656	1	5
351.998	1	-3
352.340	1	3
352.682	1	-3
353.024	1	-5
353.366	1	-3
353.708	1	4
354.050	1	-1
354.392	1	12
354.734	1	4
355.076	1	6
355.418	1	2
355.760	1	-1
356.102	1	1
356.444	1	9
356.785	1	14
357.127	1	-5
357.469	1	5
357.811	1	9
358.153	1	2
358.495	1	8
358.837	1	4
359.179	1	-2
359.521	1	11
359.863	1	-1
360.205	1	0
360.547	1	1
360.889	1	6
361.231	1	7
361.572	1	4
361.914	1	-4
362.256	1	-1
362.598	1	1
362.940	1	3
363.282	1	2
363.624	1	0
363.966	1	5
364.308	1	6
364.649	1	0
364.991	1	3
365.333	1	4
365.675	1	-8
366.017	1	-2
366.359	1	3
366.701	1	3
367.042	1	14
367.384	1	4
367.726	1	6
368.068	1	-6
368.410	1	3
368.752	1	-7
369.093	1	-4
369.435	1	7
369.777	1	5
370.119	1	1
370.461	1	0
370.803	1	-2
371.144	1	8
371.486	1	8
371.828	1	10
372.170	1	6
372.512	1	5
372.853	1	-4
373.195	1	-7
373.537	1	-5
373.879	1	9
374.220	1	3
374.562	1	-2
374.904	1	-2
375.246	1	6
375.588	1	7
375.929	1	0
376.271	1	0
376.613	1	4
376.955	1	-7
377.296	1	6
377.638	1	-1
377.980	1	12
378.321	1	8
378.663	1	-3
379.005	1	11
379.347	1	0
379.688	1	1
380.030	1	-4
380.372	1	1
380.714	1	8
381.055	1	7
381.397	1	-6
381.739	1	13
382.080	1	-11
382.422	1	7
382.764	1	0
383.105	1	3
383.447	1	-2
383.789	1	0
384.130	1	-5
384.472	1	-11
384.814	1	4
385.156	1	5
385.497	1	3
385.839	1	3
386.180	1	7
386.522	1	7
386.864	1	-4
387.205	1	-3
387.547	1	-4
387.889	1	2
388.230	1	-4
388.572	1	6
388.914	1	4
389.255	1	5
389.597	1	-10
389.939	1	3
390.280	1	14
390.622	1	-7
390.963	1	7
391.305	1	9
391.647	1	0
391.988	1	-4
392.330	1	4
392.671	1	4
393.013	1	4
393.355	1	12
393.696	1	-3
394.038	1	0
394.379	1	2
394.721	1	0
395.062	1	-11
395.404	1	-2
395.746	1	-12
396.087	1	6
396.429	1	-2
396.770	1	3
397.112	1	1
397.453	1	-5
397.795	1	-1
398.136	1	8
398.478	1	-4
398.819	1	2
399.161	1	8
399.503	1	4
399.844	1	4
400.186	1	6
400.527	1	1
400.869	1	17
401.210	1	-11
401.552	1	10
401.893	1	1
402.235	1	10
402.576	1	12
402.918	1	3
403.259	1	-12
403.601	1	-8
403.942	1	9
404.284	1	7
404.625	1	2
404.967	1	3
405.308	1	9
405.649	1	3
405.991	1	8
406.332	1	-6
406.674	1	7
407.015	1	-4
407.357	1	3
407.698	1	-10
408.040	1	0
408.381	1	-3
408.722	1	-5
409.064	1	5
409.405	1	9
409.747	1	-2
410.088	1	9
410.430	1	7
410.771	1	4
411.112	1	2
411.454	1	13
411.795	1	12
412.137	1	7
412.478	1	5
412.819	1	10
413.161	1	-2
413.502	1	-2
413.844	1	-9
414.185	1	5
414.526	1	-4
414.868	1	9
415.209	1	-6
415.550	1	-4
415.892	1	-6
416.233	1	-3
416.575	1	-5
416.916	1	0
417.257	1	5
417.599	1	-3
417.940	1	-4
418.281	1	7
418.623	1	6
418.964	1	2
419.305	1	-4
419.647	1	8
419.988	1	6
420.329	1	0
420.671	1	1
421.012	1	18
421.353	1	3
421.695	1	9
422.036	1	3
422.377	1	-1
422.718	1	-3
423.060	1	-4
423.401	1	-1
423.742	1	6
424.084	1	-3
424.425	1	1
424.766	1	2
425.107	1	-6
425.449	1	0
425.790	1	-1
426.131	1	-2
426.472	1	-7
426.814	1	2
427.155	1	-5
427.496	1	1
427.837	1	-3
428.179	1	-2
428.520	1	4
428.861	1	5
429.202	1	2
429.544	1	-2
429.885	1	3
430.226	1	4
430.567	1	15
430.909	1	-13
431.250	1	-10
431.591	1	-2
431.932	1	-3
432.273	1	-7
432.615	1	6
432.956	1	-6
433.297	1	3
433.638	1	0
433.979	1	1
434.320	1	-2
434.662	1	-1
435.003	1	0
435.344	1	3
435.685	1	3
436.026	1	5
436.368	1	-6
436.709	1	-1
437.050	1	5
437.391	1	1
437.732	1	1
438.073	1	2
438.414	1	5
438.756	1	5
439.097	1	2
439.438	1	6
439.779	1	-3
440.120	1	4
440.461	1	-3
440.802	1	0
441.143	1	0
441.485	1	-2
441.826	1	-7
442.167	1	-4
442.508	1	-10
442.849	1	7
443.190	1	-4
443.531	1	-8
443.872	1	5
444.213	1	-5
444.554	1	3
444.895	1	-7
445.237	1	3
445.578	1	11
445.919	1	-4
446.260	1	8
446.601	1	-7
446.942	1	4
447.283	1	-7
447.624	1	6
447.965	1	0
448.306	1	8
448.647	1	3
448.988	1	-9
449.329	1	1
449.670	1	9
450.011	1	6
450.352	1	4
450.693	1	6
451.034	1	8
451.375	1	13
451.716	1	6
452.057	1	12
452.398	1	10
452.739	1	-4
453.080	1	12
453.421	1	-1
453.762	1	7
454.103	1	1
454.444	1	3
454.785	1	-8
455.126	1	3
455.467	1	-2
455.808	1	-3
456.149	1	-2
456.490	1	-2
456.831	1	3
457.172	1	-3
457.513	1	-2
457.854	1	1
458.195	1	2
458.536	1	-4
458.877	1	-4
459.218	1	6
459.559	1	4
459.899	1	3
460.240	1	1
460.581	1	14
460.922	1	1
461.263	1	5
461.604	1	0
461.945	1	6
462.286	1	3
462.627	1	3
462.968	1	-12
463.309	1	-2
463.649	1	6
463.990	1	4
464.331	1	7
464.672	1	-4
465.013	1	-5
465.354	1	11
465.695	1	7
466.036	1	-1
466.376	1	4
466.717	1	-1
467.058	1	9
467.399	1	-2
467.740	1	-3
468.081	1	-7
468.422	1	9
468.762	1	-4
469.103	1	-6
469.444	1	2
469.785	1	5
470.126	1	7
470.467	1	-3
470.807	1	5
471.148	1	-5
471.489	1	-4
471.830	1	7
472.171	1	11
472.511	1	7
472.852	1	-10
473.193	1	-11
473.534	1	0
473.875	1	3
474.215	1	-2
474.556	1	0
474.897	1	-6
475.238	1	-5
475.578	1	4
475.919	1	3
476.260	1	0
476.601	1	2
476.942	1	8
477.282	1	-15
477.623	1	2
477.964	1	2
478.305	1	-1
478.645	1	-6
478.986	1	5
479.327	1	1
479.667	1	-2
480.008	1	3
480.349	1	0
480.690	1	4
481.030	1	-3
481.371	1	1
481.712	1	2
482.053	1	0
482.393	1	-9
482.734	1	6
483.075	1	7
483.415	1	7
483.756	1	11
484.097	1	-1
484.437	1	-13
484.778	1	15
485.119	1	0
485.459	1	10
485.800	1	4
486.141	1	-16
486.481	1	1
486.822	1	7
487.163	1	-8
487.503	1	-3
487.844	1	5
488.185	1	-8
488.525	1	-5
488.866	1	3
489.207	1	10
489.547	1	-10
489.888	1	-8
490.228	1	-8
490.569	1	6
490.910	1	-14
491.250	1	2
491.591	1	-8
491.932	1	6
492.272	1	4
492.613	1	2
492.953	1	5
493.294	1	4
493.635	1	0
493.975	1	-6
494.316	1	3
494.656	1	2
494.997	1	-10
495.337	1	13
495.678	1	8
496.019	1	1
496.359	1	2
496.700	1	2
497.040	1	1
497.381	1	-13
497.721	1	-10
498.062	1	5
498.403	1	10
498.743	1	7
499.084	1	-4
499.424	1	6
499.765	1	1
500.105	1	7
500.446	1	14
500.786	1	3
501.127	1	4
501.467	1	2
501.808	1	-9
502.148	1	2
502.489	1	4
502.829	1	-3
503.170	1	7
503.510	1	1
503.851	1	-13
504.191	1	4
504.532	1	-8
504.872	1	-6
505.213	1	-5
505.553	1	-1
505.894	1	-1
506.234	1	4
506.575	1	0
506.915	1	-2
507.256	1	-8
507.596	1	2
507.936	1	15
508.277	1	3
508.617	1	-2
508.958	1	11
509.298	1	7
509.639	1	10
509.979	1	4
510.319	1	-5
510.660	1	12
511.000	1	7
511.341	1	-6
511.681	1	-5
512.022	1	0
512.362	1	-3
512.702	1	-9
513.043	1	2
513.383	1	-3
513.724	1	17
514.064	1	11
514.404	1	11
514.745	1	-4
515.085	1	-6
515.425	1	-5
515.766	1	5
516.106	1	3
516.447	1	0
516.787	1	-7
517.127	1	0
517.468	1	-1
517.808	1	8
518.148	1	4
518.489	1	6
518.829	1	-1
519.169	1	-1
519.510	1	-6
519.850	1	3
520.190	1	1
520.531	1	9
520.871	1	-4
521.211	1	7
521.552	1	8
521.892	1	-12
522.232	1	-6
522.573	1	2
522.913	1	3
523.253	1	2
523.593	1	-9
523.934	1	5
524.274	1	-8
524.614	1	7
524.955	1	1
525.295	1	-9
525.635	1	2
525.975	1	-10
526.316	1	0
526.656	1	10
526.996	1	21
527.337	1	4
527.677	1	16
528.017	1	-10
528.357	1	-4
528.698	1	-5
529.038	1	2
529.378	1	4
529.718	1	4
530.058	1	3
530.399	1	18
530.739	1	-9
531.079	1	7
531.419	1	10
531.760	1	6
532.100	1	10
532.440	1	-5
532.780	1	-6
533.120	1	-11
533.461	1	6
533.801	1	5
534.141	1	15
534.481	1	-1
534.821	1	8
535.162	1	9
535.502	1	9
535.842	1	0
536.182	1	-7
536.522	1	7
536.862	1	2
537.203	1	7
537.543	1	3
537.883	1	1
538.223	1	5
538.563	1	3
538.903	1	-3
539.243	1	7
539.584	1	0
539.924	1	9
540.264	1	13
540.604	1	7
540.944	1	0
541.284	1	-6
541.624	1	-4
541.964	1	-2
542.305	1	-7
542.645	1	-6
542.985	1	-2
543.325	1	-4
543.665	1	1
544.005	1	5
544.345	1	-4
544.685	1	9
545.025	1	-6
545.365	1	4
545.705	1	10
546.045	1	9
546.386	1	-1
546.726	1	0
547.066	1	-8
547.406	1	3
547.746	1	18
548.086	1	1
548.426	1	-3
548.766	1	12
549.106	1	2
549.446	1	3
549.786	1	6
550.126	1	-8
550.466	1	-13
550.806	1	14
551.146	1	-1
551.486	1	-3
551.826	1	9
552.166	1	3
552.506	1	-5
552.846	1	5
553.186	1	5
553.526	1	-6
553.866	1	9
554.206	1	0
554.546	1	-1
554.886	1	10
555.226	1	-8
555.566	1	3
555.906	1	6
556.246	1	0
556.586	1	12
556.926	1	4
557.266	1	16
557.606	1	-2
557.946	1	1
558.286	1	10
558.626	1	4
558.966	1	1
559.306	1	0
559.646	1	-4
559.986	1	-3
560.325	1	-10
560.665	1	4
561.005	1	1
561.345	1	5
561.685	1	-6
562.025	1	-7
562.365	1	14
562.705	1	11
563.045	1	12
563.385	1	0
563.725	1	4
564.064	1	-2
564.404	1	-7
564.744	1	5
565.084	1	4
565.424	1	3
565.764	1	10
566.104	1	-6
566.444	1	8
566.783	1	7
567.123	1	17
567.463	1	4
567.803	1	-2
568.143	1	2
568.483	1	-3
568.823	1	4
569.162	1	3
569.502	1	11
569.842	1	-10
570.182	1	-9
570.522	1	5
570.862	1	8
571.201	1	5
571.541	1	-6
571.881	1	7
572.221	1	-3
572.561	1	3
572.900	1	11
573.240	1	3
573.580	1	7
573.920	1	2
574.260	1	-5
574.599	1	0
574.939	1	-1
575.279	1	4
575.619	1	5
575.959	1	3
576.298	1	-13
576.638	1	-3
576.978	1	1
577.318	1	12
577.657	1	-8
577.997	1	-5
578.337	1	5
578.677	1	-4
579.016	1	12
579.356	1	-5
579.696	1	8
580.036	1	-1
580.375	1	-5
580.715	1	7
581.055	1	8
581.394	1	-4
581.734	1	4
582.074	1	-9
582.414	1	0
582.753	1	10
583.093	1	-8
583.433	1	-7
583.772	1	5
584.112	1	4
584.452	1	-3
584.791	1	-4
585.131	1	-1
585.471	1	2
585.811	1	-8
586.150	1	5
586.490	1	-2
586.830	1	-10
587.169	1	1
587.509	1	5
587.849	1	6
588.188	1	-6
588.528	1	-4
588.867	1	0
589.207	1	-3
589.547	1	-8
589.886	1	-11
590.226	1	3
590.566	1	4
590.905	1	-2
591.245	1	-5
591.585	1	-4
591.924	1	-2
592.264	1	-8
592.603	1	-3
592.943	1	-9
593.283	1	10
593.622	1	-2
593.962	1	3
594.301	1	11
594.641	1	-9
594.981	1	-4
595.320	1	11
595.660	1	-5
595.999	1	8
596.339	1	5
596.678	1	-4
597.018	1	5
597.358	1	7
597.697	1	-3
598.037	1	0
598.376	1	2
598.716	1	-11
599.055	1	1
599.395	1	5
599.734	1	-3
600.074	1	3
600.413	1	-6
600.753	1	6
601.092	1	-10
601.432	1	0
601.771	1	7
602.111	1	-8
602.451	1	2
602.790	1	7
603.130	1	6
603.469	1	3
603.809	1	6
604.148	1	7
604.487	1	9
604.827	1	-8
605.166	1	-11
605.506	1	1
605.845	1	6
606.185	1	10
606.524	1	-2
606.864	1	3
607.203	1	4
607.543	1	-2
607.882	1	-6
608.222	1	0
608.561	1	12
608.901	1	-2
609.240	1	-1
609.579	1	5
609.919	1	-8
610.258	1	2
610.598	1	1
610.937	1	0
611.277	1	0
611.616	1	-7
611.955	1	9
612.295	1	2
612.634	1	-7
612.974	1	-2
613.313	1	5
613.652	1	0
613.992	1	2
614.331	1	-2
614.671	1	9
615.010	1	3
615.349	1	-4
615.689	1	-2
616.028	1	-9
616.368	1	-6
616.707	1	4
617.046	1	9
617.386	1	-4
617.725	1	-4
618.064	1	6
618.404	1	8
618.743	1	-1
619.082	1	8
619.422	1	2
619.761	1	-1
620.100	1	-3
620.440	1	12
620.779	1	-2
621.118	1	-3
621.458	1	-2
621.797	1	-2
622.136	1	7
622.476	1	-6
622.815	1	-2
623.154	1	2
623.494	1	-13
623.833	1	1
624.172	1	6
624.511	1	0
624.851	1	-11
625.190	1	-1
625.529	1	12
625.869	1	8
626.208	1	-2
626.547	1	2
626.886	1	-8
627.226	1	3
627.565	1	6
627.904	1	-1
628.243	1	-6
628.583	1	3
628.922	1	-2
629.261	1	8
629.600	1	6
629.940	1	-2
630.279	1	-6
630.618	1	-2
630.957	1	-3
631.297	1	-9
631.636	1	4
631.975	1	-2
632.314	1	8
632.653	1	-17
632.993	1	0
633.332	1	3
633.671	1	-5
634.010	1	6
634.349	1	1
634.689	1	7
635.028	1	-3
635.367	1	-9
635.706	1	-11
636.045	1	7
636.384	1	12
636.724	1	2
637.063	1	4
637.402	1	8
637.741	1	2
638.080	1	-1
638.419	1	7
638.759	1	3
639.098	1	-6
639.437	1	-8
639.776	1	1
640.115	1	-4
640.454	1	10
640.793	1	9
641.132	1	7
641.472	1	-5
641.811	1	-6
642.150	1	-3
642.489	1	-6
642.828	1	6
643.167	1	9
643.506	1	-3
643.845	1	-4
644.184	1	7
644.524	1	-6
644.863	1	-7
645.202	1	4
645.541	1	-16
645.880	1	4
646.219	1	3
646.558	1	-1
646.897	1	-3
647.236	1	15
647.575	1	2
647.914	1	-4
648.253	1	2
648.592	1	4
648.931	1	2
649.270	1	7
649.610	1	3
649.949	1	9
650.288	1	-8
650.627	1	0
650.966	1	-10
651.305	1	-4
651.644	1	2
651.983	1	4
652.322	1	13
652.661	1	7
653.000	1	2
653.339	1	4
653.678	1	-3
654.017	1	-2
654.356	1	5
654.695	1	-1
655.034	1	-2
655.373	1	7
655.712	1	-5
656.051	1	11
656.390	1	2
656.729	1	8
657.068	1	-3
657.406	1	6
657.745	1	-4
658.084	1	14
658.423	1	-6
658.762	1	3
659.101	1	0
659.440	1	9
659.779	1	-7
660.118	1	-4
660.457	1	-5
660.796	1	3
661.135	1	8
661.474	1	7
661.813	1	5
662.152	1	-3
662.491	1	5
662.829	1	-4
663.168	1	1
663.507	1	2
663.846	1	7
664.185	1	1
664.524	1	-3
664.863	1	11
665.202	1	-7
665.541	1	-3
665.879	1	-3
666.218	1	-3
666.557	1	-1
666.896	1	4
667.235	1	4
667.574	1	1
667.913	1	5
668.251	1	6
668.590	1	-8
668.929	1	-6
669.268	1	-3
669.607	1	-11
669.946	1	12
670.285	1	5
670.623	1	2
670.962	1	-2
671.301	1	-5
671.640	1	-6
671.979	1	3
672.317	1	-7
672.656	1	-3
672.995	1	0
673.334	1	4
673.673	1	9
674.011	1	9
674.350	1	-3
674.689	1	-7
675.028	1	3
675.367	1	12
675.705	1	-6
676.044	1	-2
676.383	1	4
676.722	1	-4
677.060	1	1
677.399	1	2
677.738	1	-4
678.077	1	5
678.416	1	-5
678.754	1	-7
679.093	1	1
679.432	1	-10
679.771	1	-7
680.109	1	8
680.448	1	5
680.787	1	10
681.125	1	11
681.464	1	-10
681.803	1	-9
682.142	1	8
682.480	1	2
682.819	1	0
683.158	1	2
683.496	1	-4
683.835	1	0
684.174	1	4
684.512	1	10
684.851	1	-5
685.190	1	0
685.529	1	-1
685.867	1	7
686.206	1	7
686.545	1	3
686.883	1	0
687.222	1	5
687.561	1	-2
687.899	1	-5
688.238	1	-2
688.577	1	-16
688.746	1	1