File: Analysis/GaN_68K_200ms/GaN_sample E_spot4_UVVIS_68 K_200um_200 ms 2x2mm1_844.txt
340.368	1	2
340.710	1	-6
341.052	1	-4
341.394	1	-4
341.737	1	10
342.079	1	-1
342.421	1	-8
342.763	1	1
343.105	1	9
343.447	1	0
343.789	1	-3
344.131	1	-2
344.473	1	1
344.815	1	-1
345.157	1	3
345.499	1	7
345.841	1	-6
346.183	1	1
346.526	1	0
346.868	1	1
347.210	1	0
347.552	1	-1
347.894	1	1
348.236	1	-3
348.578	1	7
348.920	1	-1
349.262	1	4
349.604	1	2
349.946	1	4
350.288	1	5
350.630	1	-11
350.972	1	-4
351.314	1	-8
351.656	1	2
351.998	1	3
352.340	1	2
352.682	1	3
353.024	1	-13
353.366	1	3
353.708	1	6
354.050	1	2
354.392	1	8
354.734	1	-7
355.076	1	-1
355.418	1	6
355.760	1	5
356.102	1	-3
356.444	1	-2
356.785	1	12
357.127	1	0
357.469	1	-6
357.811	1	7
358.153	1	3
358.495	1	9
358.837	1	3
359.179	1	3
359.521	1	-6
359.863	1	-14
360.205	1	-7
360.547	1	0
360.889	1	12
361.231	1	-1
361.572	1	-8
361.914	1	-8
362.256	1	2
362.598	1	1
362.940	1	1
363.282	1	9
363.624	1	0
363.966	1	4
364.308	1	3
364.649	1	-4
364.991	1	6
365.333	1	2
365.675	1	1
366.017	1	11
366.359	1	4
366.701	1	-4
367.042	1	8
367.384	1	3
367.726	1	3
368.068	1	-4
368.410	1	-5
368.752	1	-6
369.093	1	-11
369.435	1	1
369.777	1	-5
370.119	1	6
370.461	1	-4
370.803	1	-5
371.144	1	6
371.486	1	8
371.828	1	2
372.170	1	12
372.512	1	-7
372.853	1	5
373.195	1	-7
373.537	1	-5
373.879	1	6
374.220	1	-5
374.562	1	0
374.904	1	10
375.246	1	-3
375.588	1	-2
375.929	1	3
376.271	1	0
376.613	1	3
376.955	1	-5
377.296	1	6
377.638	1	2
377.980	1	2
378.321	1	-4
378.663	1	1
379.005	1	11
379.347	1	2
379.688	1	-10
380.030	1	-2
380.372	1	1
380.714	1	-1
381.055	1	4
381.397	1	1
381.739	1	1
382.080	1	-11
382.422	1	2
382.764	1	0
383.105	1	-7
383.447	1	7
383.789	1	-7
384.130	1	-8
384.472	1	-8
384.814	1	2
385.156	1	7
385.497	1	8
385.839	1	3
386.180	1	6
386.522	1	6
386.864	1	-4
387.205	1	-1
387.547	1	-3
387.889	1	6
388.230	1	3
388.572	1	-2
388.914	1	11
389.255	1	2
389.597	1	5
389.939	1	5
390.280	1	8
390.622	1	-3
390.963	1	1
391.305	1	3
391.647	1	4
391.988	1	-12
392.330	1	2
392.671	1	6
393.013	1	8
393.355	1	17
393.696	1	-14
394.038	1	-2
394.379	1	-2
394.721	1	8
395.062	1	-5
395.404	1	1
395.746	1	-10
396.087	1	0
396.429	1	8
396.770	1	5
397.112	1	-9
397.453	1	-2
397.795	1	-2
398.136	1	1
398.478	1	-3
398.819	1	10
399.161	1	1
399.503	1	2
399.844	1	-5
400.186	1	9
400.527	1	6
400.869	1	8
401.210	1	-13
401.552	1	8
401.893	1	0
402.235	1	-1
402.576	1	5
402.918	1	-1
403.259	1	-18
403.601	1	-10
403.942	1	3
404.284	1	-3
404.625	1	2
404.967	1	-3
405.308	1	-8
405.649	1	2
405.991	1	6
406.332	1	-3
406.674	1	0
407.015	1	-7
407.357	1	2
407.698	1	-6
408.040	1	-8
408.381	1	0
408.722	1	-13
409.064	1	-5
409.405	1	6
409.747	1	-2
410.088	1	-3
410.430	1	2
410.771	1	-2
411.112	1	11
411.454	1	3
411.795	1	-1
412.137	1	8
412.478	1	7
412.819	1	-8
413.161	1	-6
413.502	1	-2
413.844	1	-11
414.185	1	-1
414.526	1	8
414.868	1	8
415.209	1	4
415.550	1	-3
415.892	1	-5
416.233	1	-2
416.575	1	-3
416.916	1	-8
417.257	1	-9
417.599	1	3
417.940	1	-11
418.281	1	3
418.623	1	-1
418.964	1	7
419.305	1	0
419.647	1	4
419.988	1	-6
420.329	1	3
420.671	1	2
421.012	1	12
421.353	1	7
421.695	1	-7
422.036	1	-3
422.377	1	5
422.718	1	1
423.060	1	-11
423.401	1	-4
423.742	1	-9
424.084	1	2
424.425	1	3
424.766	1	7
425.107	1	0
425.449	1	0
425.790	1	-2
426.131	1	2
426.472	1	-10
426.814	1	5
427.155	1	-13
427.496	1	-1
427.837	1	-9
428.179	1	-7
428.520	1	-10
428.861	1	-1
429.202	1	9
429.544	1	1
429.885	1	-2
430.226	1	-2
430.567	1	3
430.909	1	-13
431.250	1	-13
431.591	1	-11
431.932	1	8
432.273	1	-5
432.615	1	0
432.956	1	-6
433.297	1	-1
433.638	1	-9
433.979	1	0
434.320	1	3
434.662	1	-5
435.003	1	5
435.344	1	0
435.685	1	1
436.026	1	0
436.368	1	-1
436.709	1	-2
437.050	1	0
437.391	1	4
437.732	1	-7
438.073	1	9
438.414	1	1
438.756	1	-4
439.097	1	10
439.438	1	7
439.779	1	3
440.120	1	-6
440.461	1	-7
440.802	1	6
441.143	1	3
441.485	1	-5
441.826	1	-9
442.167	1	-6
442.508	1	5
442.849	1	10
443.190	1	-9
443.531	1	1
443.872	1	0
444.213	1	-9
444.554	1	-3
444.895	1	-5
445.237	1	-4
445.578	1	4
445.919	1	0
446.260	1	3
446.601	1	4
446.942	1	1
447.283	1	-4
447.624	1	11
447.965	1	-3
448.306	1	-3
448.647	1	9
448.988	1	-12
449.329	1	-11
449.670	1	4
450.011	1	-3
450.352	1	7
450.693	1	-3
451.034	1	2
451.375	1	7
451.716	1	4
452.057	1	12
452.398	1	-3
452.739	1	-7
453.080	1	15
453.421	1	1
453.762	1	10
454.103	1	-1
454.444	1	6
454.785	1	-5
455.126	1	4
455.467	1	4
455.808	1	-2
456.149	1	-3
456.490	1	11
456.831	1	7
457.172	1	-8
457.513	1	10
457.854	1	-3
458.195	1	-2
458.536	1	2
458.877	1	-6
459.218	1	2
459.559	1	4
459.899	1	17
460.240	1	3
460.581	1	5
460.922	1	-1
461.263	1	14
461.604	1	1
461.945	1	-7
462.286	1	12
462.627	1	-4
462.968	1	-1
463.309	1	-9
463.649	1	2
463.990	1	3
464.331	1	1
464.672	1	3
465.013	1	-9
465.354	1	12
465.695	1	2
466.036	1	2
466.376	1	-12
466.717	1	-6
467.058	1	11
467.399	1	1
467.740	1	-4
468.081	1	0
468.422	1	-1
468.762	1	-8
469.103	1	-1
469.444	1	-4
469.785	1	3
470.126	1	1
470.467	1	-5
470.807	1	2
471.148	1	-5
471.489	1	-6
471.830	1	8
472.171	1	2
472.511	1	11
472.852	1	-11
473.193	1	-12
473.534	1	3
473.875	1	3
474.215	1	-4
474.556	1	-8
474.897	1	-3
475.238	1	0
475.578	1	-5
475.919	1	1
476.260	1	-1
476.601	1	-8
476.942	1	2
477.282	1	-8
477.623	1	7
477.964	1	2
478.305	1	2
478.645	1	-9
478.986	1	-1
479.327	1	-10
479.667	1	8
480.008	1	3
480.349	1	-5
480.690	1	5
481.030	1	-6
481.371	1	3
481.712	1	3
482.053	1	7
482.393	1	-4
482.734	1	10
483.075	1	4
483.415	1	3
483.756	1	5
484.097	1	-1
484.437	1	-3
484.778	1	-5
485.119	1	-4
485.459	1	0
485.800	1	-4
486.141	1	-7
486.481	1	-7
486.822	1	9
487.163	1	-14
487.503	1	-10
487.844	1	-7
488.185	1	0
488.525	1	-2
488.866	1	7
489.207	1	12
489.547	1	-5
489.888	1	5
490.228	1	-12
490.569	1	5
490.910	1	-1
491.250	1	2
491.591	1	-3
491.932	1	4
492.272	1	2
492.613	1	-1
492.953	1	4
493.294	1	3
493.635	1	-8
493.975	1	-4
494.316	1	6
494.656	1	2
494.997	1	-2
495.337	1	10
495.678	1	6
496.019	1	-2
496.359	1	2
496.700	1	-7
497.040	1	3
497.381	1	-14
497.721	1	-3
498.062	1	-3
498.403	1	9
498.743	1	1
499.084	1	-16
499.424	1	11
499.765	1	-3
500.105	1	5
500.446	1	-3
500.786	1	3
501.127	1	7
501.467	1	9
501.808	1	-10
502.148	1	-5
502.489	1	5
502.829	1	-3
503.170	1	2
503.510	1	6
503.851	1	-18
504.191	1	-2
504.532	1	-8
504.872	1	-9
505.213	1	5
505.553	1	11
505.894	1	-3
506.234	1	8
506.575	1	-5
506.915	1	7
507.256	1	-6
507.596	1	4
507.936	1	12
508.277	1	-6
508.617	1	14
508.958	1	12
509.298	1	11
509.639	1	-1
509.979	1	1
510.319	1	3
510.660	1	2
511.000	1	-3
511.341	1	-7
511.681	1	-1
512.022	1	-2
512.362	1	0
512.702	1	-8
513.043	1	-6
513.383	1	-4
513.724	1	14
514.064	1	5
514.404	1	6
514.745	1	-10
515.085	1	-5
515.425	1	-7
515.766	1	3
516.106	1	-8
516.447	1	7
516.787	1	-12
517.127	1	6
517.468	1	2
517.808	1	-2
518.148	1	-5
518.489	1	7
518.829	1	-7
519.169	1	3
519.510	1	-6
519.850	1	-9
520.190	1	2
520.531	1	1
520.871	1	-13
521.211	1	2
521.552	1	1
521.892	1	-1
522.232	1	-3
522.573	1	4
522.913	1	-2
523.253	1	-3
523.593	1	-15
523.934	1	4
524.274	1	-2
524.614	1	-2
524.955	1	1
525.295	1	-1
525.635	1	1
525.975	1	-6
526.316	1	-2
526.656	1	19
526.996	1	7
527.337	1	2
527.677	1	5
528.017	1	-9
528.357	1	5
528.698	1	-2
529.038	1	1
529.378	1	4
529.718	1	0
530.058	1	4
530.399	1	8
530.739	1	-4
531.079	1	12
531.419	1	13
531.760	1	7
532.100	1	8
532.440	1	-5
532.780	1	-1
533.120	1	2
533.461	1	2
533.801	1	3
534.141	1	4
534.481	1	-3
534.821	1	0
535.162	1	2
535.502	1	-6
535.842	1	-5
536.182	1	2
536.522	1	1
536.862	1	2
537.203	1	5
537.543	1	-1
537.883	1	-5
538.223	1	1
538.563	1	2
538.903	1	-2
539.243	1	-3
539.584	1	2
539.924	1	-3
540.264	1	-3
540.604	1	9
540.944	1	-4
541.284	1	-4
541.624	1	-8
541.964	1	1
542.305	1	-5
542.645	1	3
542.985	1	-5
543.325	1	-9
543.665	1	-7
544.005	1	-6
544.345	1	-13
544.685	1	1
545.025	1	-7
545.365	1	-1
545.705	1	14
546.045	1	10
546.386	1	3
546.726	1	-1
547.066	1	-13
547.406	1	8
547.746	1	2
548.086	1	3
548.426	1	-1
548.766	1	6
549.106	1	9
549.446	1	4
549.786	1	0
550.126	1	4
550.466	1	-3
550.806	1	14
551.146	1	-12
551.486	1	14
551.826	1	2
552.166	1	-4
552.506	1	-3
552.846	1	5
553.186	1	-5
553.526	1	-6
553.866	1	-5
554.206	1	3
554.546	1	-10
554.886	1	1
555.226	1	-17
555.566	1	1
555.906	1	1
556.246	1	3
556.586	1	2
556.926	1	0
557.266	1	-1
557.606	1	-15
557.946	1	11
558.286	1	4
558.626	1	11
558.966	1	4
559.306	1	-2
559.646	1	5
559.986	1	-9
560.325	1	-14
560.665	1	-2
561.005	1	2
561.345	1	6
561.685	1	2
562.025	1	-8
562.365	1	-4
562.705	1	3
563.045	1	3
563.385	1	-10
563.725	1	-7
564.064	1	1
564.404	1	-2
564.744	1	6
565.084	1	-9
565.424	1	0
565.764	1	7
566.104	1	-2
566.444	1	-1
566.783	1	-4
567.123	1	12
567.463	1	0
567.803	1	-2
568.143	1	-18
568.483	1	2
568.823	1	10
569.162	1	10
569.502	1	1
569.842	1	-8
570.182	1	2
570.522	1	-1
570.862	1	2
571.201	1	3
571.541	1	-21
571.881	1	-2
572.221	1	0
572.561	1	-11
572.900	1	-4
573.240	1	-9
573.580	1	4
573.920	1	-3
574.260	1	-5
574.599	1	-3
574.939	1	-3
575.279	1	-4
575.619	1	7
575.959	1	-12
576.298	1	-2
576.638	1	-6
576.978	1	1
577.318	1	9
577.657	1	-8
577.997	1	-7
578.337	1	-7
578.677	1	5
579.016	1	8
579.356	1	4
579.696	1	3
580.036	1	-3
580.375	1	-8
580.715	1	14
581.055	1	5
581.394	1	-8
581.734	1	2
582.074	1	-6
582.414	1	5
582.753	1	5
583.093	1	-2
583.433	1	-10
583.772	1	1
584.112	1	0
584.452	1	2
584.791	1	4
585.131	1	-10
585.471	1	-2
585.811	1	-10
586.150	1	4
586.490	1	-2
586.830	1	-21
587.169	1	-5
587.509	1	-1
587.849	1	14
588.188	1	-3
588.528	1	4
588.867	1	0
589.207	1	-9
589.547	1	-10
589.886	1	-16
590.226	1	-4
590.566	1	-3
590.905	1	9
591.245	1	-8
591.585	1	-4
591.924	1	-2
592.264	1	-7
592.603	1	0
592.943	1	3
593.283	1	1
593.622	1	-7
593.962	1	2
594.301	1	11
594.641	1	-7
594.981	1	1
595.320	1	5
595.660	1	-6
595.999	1	7
596.339	1	-2
596.678	1	-8
597.018	1	1
597.358	1	9
597.697	1	-12
598.037	1	1
598.376	1	7
598.716	1	-14
599.055	1	0
599.395	1	0
599.734	1	4
600.074	1	-5
600.413	1	-4
600.753	1	9
601.092	1	-12
601.432	1	-3
601.771	1	6
602.111	1	2
602.451	1	1
602.790	1	0
603.130	1	4
603.469	1	3
603.809	1	2
604.148	1	4
604.487	1	1
604.827	1	-13
605.166	1	-3
605.506	1	2
605.845	1	3
606.185	1	1
606.524	1	-7
606.864	1	-5
607.203	1	17
607.543	1	-3
607.882	1	-10
608.222	1	0
608.561	1	9
608.901	1	1
609.240	1	1
609.579	1	4
609.919	1	-13
610.258	1	4
610.598	1	1
610.937	1	0
611.277	1	4
611.616	1	-15
611.955	1	8
612.295	1	-3
612.634	1	-6
612.974	1	6
613.313	1	-3
613.652	1	-5
613.992	1	4
614.331	1	-5
614.671	1	3
615.010	1	5
615.349	1	-1
615.689	1	4
616.028	1	-6
616.368	1	4
616.707	1	0
617.046	1	-2
617.386	1	-7
617.725	1	4
618.064	1	7
618.404	1	6
618.743	1	0
619.082	1	-3
619.422	1	-1
619.761	1	2
620.100	1	3
620.440	1	-1
620.779	1	-2
621.118	1	-2
621.458	1	7
621.797	1	5
622.136	1	7
622.476	1	5
622.815	1	1
623.154	1	1
623.494	1	4
623.833	1	-6
624.172	1	6
624.511	1	1
624.851	1	-10
625.190	1	-4
625.529	1	9
625.869	1	1
626.208	1	-7
626.547	1	4
626.886	1	2
627.226	1	7
627.565	1	10
627.904	1	-4
628.243	1	1
628.583	1	-3
628.922	1	-7
629.261	1	-2
629.600	1	-4
629.940	1	11
630.279	1	-7
630.618	1	-9
630.957	1	-2
631.297	1	-11
631.636	1	-4
631.975	1	-2
632.314	1	7
632.653	1	-22
632.993	1	-1
633.332	1	1
633.671	1	-1
634.010	1	-3
634.349	1	8
634.689	1	6
635.028	1	0
635.367	1	1
635.706	1	-5
636.045	1	0
636.384	1	1
636.724	1	1
637.063	1	1
637.402	1	10
637.741	1	7
638.080	1	-8
638.419	1	-7
638.759	1	-2
639.098	1	-3
639.437	1	-4
639.776	1	0
640.115	1	0
640.454	1	11
640.793	1	-2
641.132	1	3
641.472	1	-8
641.811	1	11
642.150	1	4
642.489	1	10
642.828	1	-2
643.167	1	4
643.506	1	-8
643.845	1	3
644.184	1	7
644.524	1	-12
644.863	1	-12
645.202	1	-1
645.541	1	-6
645.880	1	-2
646.219	1	-3
646.558	1	1
646.897	1	-2
647.236	1	-3
647.575	1	0
647.914	1	-3
648.253	1	2
648.592	1	1
648.931	1	5
649.270	1	5
649.610	1	13
649.949	1	-3
650.288	1	-2
650.627	1	-3
650.966	1	-4
651.305	1	-3
651.644	1	0
651.983	1	0
652.322	1	-7
652.661	1	9
653.000	1	-4
653.339	1	7
653.678	1	-4
654.017	1	5
654.356	1	10
654.695	1	6
655.034	1	-1
655.373	1	-1
655.712	1	-11
656.051	1	-2
656.390	1	-6
656.729	1	0
657.068	1	-9
657.406	1	8
657.745	1	-10
658.084	1	6
658.423	1	-3
658.762	1	-7
659.101	1	-4
659.440	1	5
659.779	1	3
660.118	1	-1
660.457	1	-8
660.796	1	2
661.135	1	3
661.474	1	-9
661.813	1	-2
662.152	1	-1
662.491	1	2
662.829	1	-8
663.168	1	0
663.507	1	-2
663.846	1	7
664.185	1	1
664.524	1	-10
664.863	1	-9
665.202	1	-11
665.541	1	-7
665.879	1	-5
666.218	1	-14
666.557	1	1
666.896	1	-2
667.235	1	-1
667.574	1	-3
667.913	1	2
668.251	1	-5
668.590	1	4
668.929	1	2
669.268	1	-4
669.607	1	-5
669.946	1	3
670.285	1	9
670.623	1	-1
670.962	1	-1
671.301	1	-14
671.640	1	-13
671.979	1	14
672.317	1	-5
672.656	1	5
672.995	1	0
673.334	1	12
673.673	1	11
674.011	1	-1
674.350	1	1
674.689	1	-3
675.028	1	7
675.367	1	-2
675.705	1	-10
676.044	1	-2
676.383	1	-4
676.722	1	2
677.060	1	8
677.399	1	-5
677.738	1	-10
678.077	1	2
678.416	1	-6
678.754	1	-3
679.093	1	8
679.432	1	-12
679.771	1	0
680.109	1	5
680.448	1	-3
680.787	1	-7
681.125	1	11
681.464	1	-9
681.803	1	-8
682.142	1	11
682.480	1	-2
682.819	1	6
683.158	1	-9
683.496	1	-12
683.835	1	-2
684.174	1	6
684.512	1	-7
684.851	1	-6
685.190	1	5
685.529	1	8
685.867	1	3
686.206	1	-1
686.545	1	7
686.883	1	2
687.222	1	-1
687.561	1	0
687.899	1	-8
688.238	1	4
688.577	1	-4
688.746	1	2