File: Analysis/GaN_68K_200ms/GaN_sample E_spot4_UVVIS_68 K_200um_200 ms 2x2mm1_117.txt
340.368	1	26
340.710	1	20
341.052	1	29
341.394	1	23
341.737	1	42
342.079	1	24
342.421	1	33
342.763	1	34
343.105	1	36
343.447	1	34
343.789	1	27
344.131	1	30
344.473	1	32
344.815	1	40
345.157	1	39
345.499	1	40
345.841	1	36
346.183	1	32
346.526	1	40
346.868	1	33
347.210	1	26
347.552	1	39
347.894	1	33
348.236	1	46
348.578	1	38
348.920	1	38
349.262	1	35
349.604	1	55
349.946	1	45
350.288	1	50
350.630	1	35
350.972	1	45
351.314	1	45
351.656	1	43
351.998	1	47
352.340	1	49
352.682	1	43
353.024	1	45
353.366	1	53
353.708	1	52
354.050	1	50
354.392	1	65
354.734	1	41
355.076	1	55
355.418	1	60
355.760	1	65
356.102	1	57
356.444	1	65
356.785	1	79
357.127	1	70
357.469	1	67
357.811	1	90
358.153	1	87
358.495	1	87
358.837	1	94
359.179	1	86
359.521	1	100
359.863	1	106
360.205	1	116
360.547	1	129
360.889	1	145
361.231	1	171
361.572	1	192
361.914	1	218
362.256	1	258
362.598	1	308
362.940	1	379
363.282	1	444
363.624	1	541
363.966	1	668
364.308	1	810
364.649	1	990
364.991	1	1163
365.333	1	1317
365.675	1	1551
366.017	1	1711
366.359	1	1802
366.701	1	1896
367.042	1	1878
367.384	1	1824
367.726	1	1783
368.068	1	1636
368.410	1	1485
368.752	1	1317
369.093	1	1166
369.435	1	1038
369.777	1	934
370.119	1	825
370.461	1	755
370.803	1	696
371.144	1	644
371.486	1	614
371.828	1	582
372.170	1	556
372.512	1	536
372.853	1	525
373.195	1	504
373.537	1	492
373.879	1	498
374.220	1	478
374.562	1	467
374.904	1	448
375.246	1	436
375.588	1	438
375.929	1	440
376.271	1	419
376.613	1	402
376.955	1	412
377.296	1	445
377.638	1	447
377.980	1	463
378.321	1	462
378.663	1	505
379.005	1	528
379.347	1	558
379.688	1	620
380.030	1	640
380.372	1	733
380.714	1	853
381.055	1	968
381.397	1	1105
381.739	1	1296
382.080	1	1551
382.422	1	1843
382.764	1	2182
383.105	1	2600
383.447	1	3137
383.789	1	3675
384.130	1	4306
384.472	1	5001
384.814	1	5753
385.156	1	6469
385.497	1	7115
385.839	1	7762
386.180	1	8472
386.522	1	8763
386.864	1	9124
387.205	1	9301
387.547	1	9457
387.889	1	9445
388.230	1	9357
388.572	1	9259
388.914	1	9186
389.255	1	8957
389.597	1	8735
389.939	1	8597
390.280	1	8422
390.622	1	8211
390.963	1	7976
391.305	1	7793
391.647	1	7601
391.988	1	7415
392.330	1	7206
392.671	1	6978
393.013	1	6634
393.355	1	6557
393.696	1	6450
394.038	1	6416
394.379	1	6421
394.721	1	6486
395.062	1	6579
395.404	1	6809
395.746	1	6975
396.087	1	7209
396.429	1	7463
396.770	1	7760
397.112	1	7931
397.453	1	8147
397.795	1	8358
398.136	1	8404
398.478	1	8410
398.819	1	8331
399.161	1	8165
399.503	1	8007
399.844	1	7720
400.186	1	7489
400.527	1	7209
400.869	1	6884
401.210	1	6608
401.552	1	6374
401.893	1	6126
402.235	1	5989
402.576	1	5772
402.918	1	5556
403.259	1	5418
403.601	1	5298
403.942	1	5177
404.284	1	5145
404.625	1	4991
404.967	1	4949
405.308	1	4935
405.649	1	4857
405.991	1	4827
406.332	1	4876
406.674	1	4787
407.015	1	4765
407.357	1	4713
407.698	1	4606
408.040	1	4653
408.381	1	4579
408.722	1	4614
409.064	1	4510
409.405	1	4477
409.747	1	4445
410.088	1	4361
410.430	1	4293
410.771	1	4222
411.112	1	4147
411.454	1	4060
411.795	1	3922
412.137	1	3814
412.478	1	3707
412.819	1	3588
413.161	1	3497
413.502	1	3419
413.844	1	3294
414.185	1	3151
414.526	1	3056
414.868	1	2969
415.209	1	2905
415.550	1	2816
415.892	1	2782
416.233	1	2759
416.575	1	2710
416.916	1	2668
417.257	1	2690
417.599	1	2660
417.940	1	2599
418.281	1	2611
418.623	1	2556
418.964	1	2583
419.305	1	2508
419.647	1	2507
419.988	1	2442
420.329	1	2398
420.671	1	2370
421.012	1	2316
421.353	1	2285
421.695	1	2172
422.036	1	2119
422.377	1	2043
422.718	1	1973
423.060	1	1950
423.401	1	1921
423.742	1	1811
424.084	1	1777
424.425	1	1719
424.766	1	1687
425.107	1	1664
425.449	1	1622
425.790	1	1612
426.131	1	1582
426.472	1	1554
426.814	1	1559
427.155	1	1534
427.496	1	1520
427.837	1	1467
428.179	1	1450
428.520	1	1393
428.861	1	1378
429.202	1	1401
429.544	1	1366
429.885	1	1322
430.226	1	1286
430.567	1	1267
430.909	1	1236
431.250	1	1171
431.591	1	1146
431.932	1	1177
432.273	1	1100
432.615	1	1081
432.956	1	1055
433.297	1	1045
433.638	1	1002
433.979	1	976
434.320	1	947
434.662	1	922
435.003	1	913
435.344	1	897
435.685	1	877
436.026	1	846
436.368	1	846
436.709	1	808
437.050	1	808
437.391	1	795
437.732	1	782
438.073	1	779
438.414	1	754
438.756	1	734
439.097	1	745
439.438	1	694
439.779	1	680
440.120	1	664
440.461	1	648
440.802	1	643
441.143	1	631
441.485	1	610
441.826	1	604
442.167	1	592
442.508	1	577
442.849	1	575
443.190	1	560
443.531	1	549
443.872	1	541
444.213	1	524
444.554	1	552
444.895	1	543
445.237	1	535
445.578	1	530
445.919	1	509
446.260	1	492
446.601	1	478
446.942	1	475
447.283	1	459
447.624	1	452
447.965	1	435
448.306	1	444
448.647	1	416
448.988	1	414
449.329	1	394
449.670	1	402
450.011	1	388
450.352	1	407
450.693	1	367
451.034	1	391
451.375	1	384
451.716	1	369
452.057	1	371
452.398	1	352
452.739	1	335
453.080	1	346
453.421	1	335
453.762	1	334
454.103	1	321
454.444	1	333
454.785	1	316
455.126	1	307
455.467	1	310
455.808	1	294
456.149	1	302
456.490	1	296
456.831	1	300
457.172	1	295
457.513	1	272
457.854	1	284
458.195	1	277
458.536	1	269
458.877	1	261
459.218	1	261
459.559	1	243
459.899	1	256
460.240	1	248
460.581	1	231
460.922	1	245
461.263	1	244
461.604	1	219
461.945	1	244
462.286	1	231
462.627	1	218
462.968	1	226
463.309	1	200
463.649	1	208
463.990	1	202
464.331	1	203
464.672	1	198
465.013	1	190
465.354	1	211
465.695	1	206
466.036	1	200
466.376	1	187
466.717	1	189
467.058	1	192
467.399	1	194
467.740	1	183
468.081	1	182
468.422	1	192
468.762	1	187
469.103	1	173
469.444	1	172
469.785	1	171
470.126	1	164
470.467	1	163
470.807	1	171
471.148	1	144
471.489	1	168
471.830	1	165
472.171	1	142
472.511	1	155
472.852	1	162
473.193	1	148
473.534	1	150
473.875	1	155
474.215	1	140
474.556	1	144
474.897	1	142
475.238	1	140
475.578	1	154
475.919	1	141
476.260	1	135
476.601	1	131
476.942	1	139
477.282	1	128
477.623	1	138
477.964	1	142
478.305	1	138
478.645	1	129
478.986	1	135
479.327	1	131
479.667	1	138
480.008	1	135
480.349	1	137
480.690	1	122
481.030	1	135
481.371	1	123
481.712	1	129
482.053	1	120
482.393	1	117
482.734	1	117
483.075	1	116
483.415	1	129
483.756	1	122
484.097	1	122
484.437	1	101
484.778	1	120
485.119	1	130
485.459	1	119
485.800	1	116
486.141	1	108
486.481	1	128
486.822	1	112
487.163	1	107
487.503	1	126
487.844	1	139
488.185	1	124
488.525	1	131
488.866	1	129
489.207	1	142
489.547	1	125
489.888	1	126
490.228	1	124
490.569	1	138
490.910	1	124
491.250	1	137
491.591	1	131
491.932	1	145
492.272	1	134
492.613	1	141
492.953	1	142
493.294	1	140
493.635	1	142
493.975	1	140
494.316	1	148
494.656	1	146
494.997	1	136
495.337	1	144
495.678	1	153
496.019	1	134
496.359	1	146
496.700	1	150
497.040	1	143
497.381	1	129
497.721	1	150
498.062	1	154
498.403	1	150
498.743	1	161
499.084	1	156
499.424	1	167
499.765	1	163
500.105	1	180
500.446	1	175
500.786	1	172
501.127	1	179
501.467	1	189
501.808	1	181
502.148	1	187
502.489	1	197
502.829	1	201
503.170	1	203
503.510	1	207
503.851	1	194
504.191	1	202
504.532	1	204
504.872	1	208
505.213	1	220
505.553	1	229
505.894	1	227
506.234	1	228
506.575	1	232
506.915	1	235
507.256	1	226
507.596	1	234
507.936	1	235
508.277	1	269
508.617	1	247
508.958	1	254
509.298	1	269
509.639	1	256
509.979	1	235
510.319	1	248
510.660	1	256
511.000	1	266
511.341	1	260
511.681	1	271
512.022	1	256
512.362	1	268
512.702	1	264
513.043	1	277
513.383	1	275
513.724	1	282
514.064	1	297
514.404	1	291
514.745	1	274
515.085	1	304
515.425	1	299
515.766	1	318
516.106	1	310
516.447	1	322
516.787	1	316
517.127	1	347
517.468	1	328
517.808	1	320
518.148	1	323
518.489	1	343
518.829	1	332
519.169	1	350
519.510	1	363
519.850	1	351
520.190	1	354
520.531	1	375
520.871	1	360
521.211	1	351
521.552	1	367
521.892	1	364
522.232	1	365
522.573	1	369
522.913	1	379
523.253	1	369
523.593	1	373
523.934	1	378
524.274	1	384
524.614	1	384
524.955	1	381
525.295	1	396
525.635	1	393
525.975	1	385
526.316	1	403
526.656	1	406
526.996	1	410
527.337	1	400
527.677	1	416
528.017	1	411
528.357	1	419
528.698	1	421
529.038	1	423
529.378	1	435
529.718	1	424
530.058	1	435
530.399	1	475
530.739	1	435
531.079	1	472
531.419	1	445
531.760	1	462
532.100	1	469
532.440	1	459
532.780	1	469
533.120	1	452
533.461	1	481
533.801	1	459
534.141	1	457
534.481	1	475
534.821	1	453
535.162	1	465
535.502	1	484
535.842	1	472
536.182	1	459
536.522	1	471
536.862	1	460
537.203	1	468
537.543	1	457
537.883	1	461
538.223	1	451
538.563	1	431
538.903	1	447
539.243	1	439
539.584	1	457
539.924	1	451
540.264	1	447
540.604	1	450
540.944	1	453
541.284	1	461
541.624	1	447
541.964	1	452
542.305	1	461
542.645	1	435
542.985	1	453
543.325	1	451
543.665	1	455
544.005	1	452
544.345	1	435
544.685	1	465
545.025	1	435
545.365	1	476
545.705	1	448
546.045	1	453
546.386	1	449
546.726	1	461
547.066	1	451
547.406	1	465
547.746	1	449
548.086	1	471
548.426	1	440
548.766	1	468
549.106	1	482
549.446	1	477
549.786	1	468
550.126	1	484
550.466	1	467
550.806	1	502
551.146	1	477
551.486	1	485
551.826	1	485
552.166	1	480
552.506	1	472
552.846	1	479
553.186	1	499
553.526	1	482
553.866	1	493
554.206	1	473
554.546	1	485
554.886	1	463
555.226	1	451
555.566	1	491
555.906	1	465
556.246	1	467
556.586	1	474
556.926	1	451
557.266	1	472
557.606	1	444
557.946	1	471
558.286	1	465
558.626	1	461
558.966	1	439
559.306	1	431
559.646	1	435
559.986	1	433
560.325	1	446
560.665	1	446
561.005	1	442
561.345	1	429
561.685	1	450
562.025	1	427
562.365	1	431
562.705	1	445
563.045	1	444
563.385	1	424
563.725	1	424
564.064	1	438
564.404	1	439
564.744	1	439
565.084	1	431
565.424	1	440
565.764	1	437
566.104	1	417
566.444	1	461
566.783	1	442
567.123	1	443
567.463	1	440
567.803	1	439
568.143	1	412
568.483	1	428
568.823	1	412
569.162	1	421
569.502	1	419
569.842	1	427
570.182	1	409
570.522	1	422
570.862	1	431
571.201	1	417
571.541	1	417
571.881	1	433
572.221	1	435
572.561	1	408
572.900	1	425
573.240	1	391
573.580	1	421
573.920	1	403
574.260	1	399
574.599	1	404
574.939	1	400
575.279	1	409
575.619	1	395
575.959	1	402
576.298	1	378
576.638	1	384
576.978	1	395
577.318	1	389
577.657	1	360
577.997	1	386
578.337	1	390
578.677	1	402
579.016	1	409
579.356	1	380
579.696	1	392
580.036	1	380
580.375	1	390
580.715	1	408
581.055	1	380
581.394	1	380
581.734	1	402
582.074	1	392
582.414	1	397
582.753	1	394
583.093	1	383
583.433	1	391
583.772	1	370
584.112	1	388
584.452	1	388
584.791	1	381
585.131	1	382
585.471	1	392
585.811	1	386
586.150	1	383
586.490	1	375
586.830	1	364
587.169	1	386
587.509	1	366
587.849	1	382
588.188	1	374
588.528	1	362
588.867	1	375
589.207	1	353
589.547	1	362
589.886	1	362
590.226	1	359
590.566	1	356
590.905	1	357
591.245	1	361
591.585	1	336
591.924	1	346
592.264	1	339
592.603	1	332
592.943	1	331
593.283	1	341
593.622	1	319
593.962	1	344
594.301	1	334
594.641	1	332
594.981	1	321
595.320	1	332
595.660	1	313
595.999	1	325
596.339	1	329
596.678	1	314
597.018	1	314
597.358	1	325
597.697	1	322
598.037	1	315
598.376	1	314
598.716	1	305
599.055	1	334
599.395	1	313
599.734	1	300
600.074	1	298
600.413	1	308
600.753	1	286
601.092	1	295
601.432	1	305
601.771	1	320
602.111	1	297
602.451	1	306
602.790	1	297
603.130	1	305
603.469	1	294
603.809	1	328
604.148	1	306
604.487	1	304
604.827	1	295
605.166	1	300
605.506	1	321
605.845	1	316
606.185	1	311
606.524	1	317
606.864	1	311
607.203	1	303
607.543	1	306
607.882	1	298
608.222	1	303
608.561	1	309
608.901	1	312
609.240	1	310
609.579	1	300
609.919	1	301
610.258	1	298
610.598	1	305
610.937	1	301
611.277	1	301
611.616	1	284
611.955	1	292
612.295	1	273
612.634	1	280
612.974	1	269
613.313	1	268
613.652	1	267
613.992	1	288
614.331	1	259
614.671	1	268
615.010	1	251
615.349	1	258
615.689	1	265
616.028	1	250
616.368	1	250
616.707	1	247
617.046	1	242
617.386	1	257
617.725	1	256
618.064	1	270
618.404	1	258
618.743	1	245
619.082	1	255
619.422	1	229
619.761	1	242
620.100	1	233
620.440	1	227
620.779	1	223
621.118	1	224
621.458	1	235
621.797	1	239
622.136	1	234
622.476	1	242
622.815	1	220
623.154	1	233
623.494	1	213
623.833	1	228
624.172	1	219
624.511	1	224
624.851	1	211
625.190	1	219
625.529	1	219
625.869	1	224
626.208	1	209
626.547	1	203
626.886	1	210
627.226	1	213
627.565	1	208
627.904	1	207
628.243	1	193
628.583	1	198
628.922	1	208
629.261	1	202
629.600	1	199
629.940	1	204
630.279	1	199
630.618	1	200
630.957	1	196
631.297	1	189
631.636	1	198
631.975	1	207
632.314	1	211
632.653	1	203
632.993	1	203
633.332	1	195
633.671	1	191
634.010	1	195
634.349	1	186
634.689	1	193
635.028	1	192
635.367	1	181
635.706	1	178
636.045	1	191
636.384	1	190
636.724	1	183
637.063	1	176
637.402	1	186
637.741	1	173
638.080	1	166
638.419	1	168
638.759	1	177
639.098	1	174
639.437	1	173
639.776	1	173
640.115	1	170
640.454	1	179
640.793	1	185
641.132	1	166
641.472	1	160
641.811	1	171
642.150	1	169
642.489	1	158
642.828	1	165
643.167	1	165
643.506	1	163
643.845	1	159
644.184	1	161
644.524	1	137
644.863	1	136
645.202	1	147
645.541	1	145
645.880	1	157
646.219	1	155
646.558	1	146
646.897	1	154
647.236	1	152
647.575	1	159
647.914	1	139
648.253	1	152
648.592	1	146
648.931	1	168
649.270	1	160
649.610	1	168
649.949	1	146
650.288	1	135
650.627	1	147
650.966	1	144
651.305	1	139
651.644	1	146
651.983	1	146
652.322	1	146
652.661	1	136
653.000	1	146
653.339	1	138
653.678	1	143
654.017	1	145
654.356	1	144
654.695	1	142
655.034	1	143
655.373	1	133
655.712	1	130
656.051	1	140
656.390	1	130
656.729	1	137
657.068	1	129
657.406	1	136
657.745	1	118
658.084	1	135
658.423	1	125
658.762	1	107
659.101	1	120
659.440	1	134
659.779	1	118
660.118	1	125
660.457	1	118
660.796	1	109
661.135	1	121
661.474	1	116
661.813	1	121
662.152	1	110
662.491	1	111
662.829	1	109
663.168	1	109
663.507	1	116
663.846	1	111
664.185	1	112
664.524	1	85
664.863	1	100
665.202	1	96
665.541	1	107
665.879	1	113
666.218	1	115
666.557	1	103
666.896	1	107
667.235	1	101
667.574	1	104
667.913	1	103
668.251	1	105
668.590	1	82
668.929	1	109
669.268	1	96
669.607	1	89
669.946	1	104
670.285	1	105
670.623	1	105
670.962	1	91
671.301	1	101
671.640	1	82
671.979	1	108
672.317	1	88
672.656	1	93
672.995	1	112
673.334	1	105
673.673	1	102
674.011	1	104
674.350	1	95
674.689	1	99
675.028	1	89
675.367	1	90
675.705	1	82
676.044	1	104
676.383	1	95
676.722	1	88
677.060	1	94
677.399	1	86
677.738	1	101
678.077	1	96
678.416	1	87
678.754	1	97
679.093	1	91
679.432	1	94
679.771	1	96
680.109	1	103
680.448	1	95
680.787	1	98
681.125	1	97
681.464	1	94
681.803	1	83
682.142	1	98
682.480	1	91
682.819	1	91
683.158	1	102
683.496	1	86
683.835	1	92
684.174	1	85
684.512	1	83
684.851	1	78
685.190	1	92
685.529	1	88
685.867	1	81
686.206	1	90
686.545	1	108
686.883	1	91
687.222	1	87
687.561	1	100
687.899	1	97
688.238	1	90
688.577	1	95
688.746	1	98