File: Analysis/GaN_68K_200ms/GaN_sample E_spot4_UVVIS_68 K_200um_200 ms 2x2mm1_72.txt
340.368	1	2
340.710	1	-3
341.052	1	1
341.394	1	-5
341.737	1	4
342.079	1	-10
342.421	1	-6
342.763	1	2
343.105	1	13
343.447	1	3
343.789	1	-6
344.131	1	-4
344.473	1	-3
344.815	1	2
345.157	1	1
345.499	1	4
345.841	1	0
346.183	1	0
346.526	1	10
346.868	1	1
347.210	1	0
347.552	1	-4
347.894	1	1
348.236	1	11
348.578	1	7
348.920	1	15
349.262	1	2
349.604	1	10
349.946	1	3
350.288	1	0
350.630	1	5
350.972	1	-8
351.314	1	4
351.656	1	1
351.998	1	-2
352.340	1	-4
352.682	1	-5
353.024	1	-3
353.366	1	8
353.708	1	8
354.050	1	8
354.392	1	14
354.734	1	9
355.076	1	4
355.418	1	-5
355.760	1	-5
356.102	1	-4
356.444	1	12
356.785	1	7
357.127	1	7
357.469	1	6
357.811	1	6
358.153	1	3
358.495	1	10
358.837	1	2
359.179	1	-1
359.521	1	1
359.863	1	-7
360.205	1	-1
360.547	1	5
360.889	1	5
361.231	1	9
361.572	1	-6
361.914	1	-4
362.256	1	11
362.598	1	4
362.940	1	-4
363.282	1	5
363.624	1	-6
363.966	1	12
364.308	1	-2
364.649	1	1
364.991	1	-5
365.333	1	8
365.675	1	3
366.017	1	12
366.359	1	1
366.701	1	-1
367.042	1	3
367.384	1	6
367.726	1	14
368.068	1	-1
368.410	1	-2
368.752	1	-3
369.093	1	-3
369.435	1	-7
369.777	1	-1
370.119	1	3
370.461	1	12
370.803	1	-2
371.144	1	5
371.486	1	11
371.828	1	11
372.170	1	11
372.512	1	4
372.853	1	1
373.195	1	-7
373.537	1	-3
373.879	1	10
374.220	1	-2
374.562	1	-1
374.904	1	3
375.246	1	11
375.588	1	5
375.929	1	1
376.271	1	-6
376.613	1	0
376.955	1	-7
377.296	1	5
377.638	1	0
377.980	1	5
378.321	1	6
378.663	1	-2
379.005	1	12
379.347	1	-3
379.688	1	-9
380.030	1	-11
380.372	1	2
380.714	1	4
381.055	1	1
381.397	1	-5
381.739	1	10
382.080	1	-4
382.422	1	8
382.764	1	-2
383.105	1	3
383.447	1	4
383.789	1	7
384.130	1	-4
384.472	1	-9
384.814	1	1
385.156	1	8
385.497	1	13
385.839	1	4
386.180	1	-1
386.522	1	3
386.864	1	-7
387.205	1	1
387.547	1	-10
387.889	1	12
388.230	1	-5
388.572	1	12
388.914	1	5
389.255	1	5
389.597	1	-10
389.939	1	1
390.280	1	9
390.622	1	-2
390.963	1	7
391.305	1	7
391.647	1	-2
391.988	1	-11
392.330	1	2
392.671	1	11
393.013	1	9
393.355	1	5
393.696	1	5
394.038	1	-10
394.379	1	-9
394.721	1	4
395.062	1	-4
395.404	1	9
395.746	1	-7
396.087	1	-5
396.429	1	8
396.770	1	6
397.112	1	-12
397.453	1	-7
397.795	1	8
398.136	1	4
398.478	1	1
398.819	1	7
399.161	1	0
399.503	1	5
399.844	1	-2
400.186	1	10
400.527	1	2
400.869	1	6
401.210	1	-13
401.552	1	18
401.893	1	-2
402.235	1	11
402.576	1	3
402.918	1	-5
403.259	1	-6
403.601	1	-7
403.942	1	12
404.284	1	-5
404.625	1	-4
404.967	1	3
405.308	1	5
405.649	1	-3
405.991	1	12
406.332	1	-4
406.674	1	-4
407.015	1	-3
407.357	1	2
407.698	1	5
408.040	1	-6
408.381	1	4
408.722	1	-5
409.064	1	5
409.405	1	5
409.747	1	2
410.088	1	-8
410.430	1	1
410.771	1	13
411.112	1	5
411.454	1	9
411.795	1	-1
412.137	1	11
412.478	1	7
412.819	1	-1
413.161	1	-1
413.502	1	-6
413.844	1	-5
414.185	1	3
414.526	1	8
414.868	1	23
415.209	1	-9
415.550	1	-13
415.892	1	-6
416.233	1	-1
416.575	1	-5
416.916	1	3
417.257	1	7
417.599	1	6
417.940	1	5
418.281	1	-1
418.623	1	-6
418.964	1	-2
419.305	1	-2
419.647	1	11
419.988	1	-7
420.329	1	6
420.671	1	-2
421.012	1	8
421.353	1	6
421.695	1	-4
422.036	1	4
422.377	1	3
422.718	1	8
423.060	1	3
423.401	1	-5
423.742	1	2
424.084	1	4
424.425	1	-4
424.766	1	-2
425.107	1	0
425.449	1	15
425.790	1	-9
426.131	1	1
426.472	1	0
426.814	1	10
427.155	1	-7
427.496	1	14
427.837	1	-8
428.179	1	-7
428.520	1	-1
428.861	1	3
429.202	1	7
429.544	1	0
429.885	1	-6
430.226	1	1
430.567	1	16
430.909	1	-11
431.250	1	-15
431.591	1	2
431.932	1	6
432.273	1	-10
432.615	1	0
432.956	1	-1
433.297	1	2
433.638	1	3
433.979	1	-8
434.320	1	9
434.662	1	0
435.003	1	5
435.344	1	8
435.685	1	7
436.026	1	3
436.368	1	-3
436.709	1	-8
437.050	1	7
437.391	1	-3
437.732	1	0
438.073	1	16
438.414	1	10
438.756	1	7
439.097	1	5
439.438	1	13
439.779	1	-3
440.120	1	5
440.461	1	-4
440.802	1	-2
441.143	1	7
441.485	1	-1
441.826	1	-9
442.167	1	-3
442.508	1	2
442.849	1	5
443.190	1	-10
443.531	1	-1
443.872	1	5
444.213	1	0
444.554	1	0
444.895	1	3
445.237	1	-9
445.578	1	14
445.919	1	-5
446.260	1	7
446.601	1	0
446.942	1	8
447.283	1	2
447.624	1	1
447.965	1	-3
448.306	1	6
448.647	1	10
448.988	1	-14
449.329	1	6
449.670	1	7
450.011	1	4
450.352	1	4
450.693	1	14
451.034	1	7
451.375	1	14
451.716	1	2
452.057	1	13
452.398	1	11
452.739	1	-8
453.080	1	10
453.421	1	2
453.762	1	-1
454.103	1	-1
454.444	1	12
454.785	1	-6
455.126	1	-8
455.467	1	10
455.808	1	8
456.149	1	4
456.490	1	0
456.831	1	0
457.172	1	-1
457.513	1	14
457.854	1	1
458.195	1	4
458.536	1	1
458.877	1	5
459.218	1	7
459.559	1	-3
459.899	1	14
460.240	1	1
460.581	1	4
460.922	1	-5
461.263	1	4
461.604	1	1
461.945	1	9
462.286	1	6
462.627	1	-6
462.968	1	-6
463.309	1	-3
463.649	1	6
463.990	1	-5
464.331	1	5
464.672	1	5
465.013	1	-9
465.354	1	11
465.695	1	14
466.036	1	3
466.376	1	6
466.717	1	-11
467.058	1	4
467.399	1	4
467.740	1	-8
468.081	1	2
468.422	1	-6
468.762	1	0
469.103	1	-10
469.444	1	-2
469.785	1	6
470.126	1	4
470.467	1	0
470.807	1	5
471.148	1	-9
471.489	1	6
471.830	1	16
472.171	1	13
472.511	1	5
472.852	1	-1
473.193	1	-8
473.534	1	9
473.875	1	11
474.215	1	3
474.556	1	-1
474.897	1	10
475.238	1	1
475.578	1	3
475.919	1	2
476.260	1	0
476.601	1	0
476.942	1	4
477.282	1	-3
477.623	1	13
477.964	1	8
478.305	1	9
478.645	1	-8
478.986	1	-5
479.327	1	-2
479.667	1	-1
480.008	1	12
480.349	1	3
480.690	1	2
481.030	1	-1
481.371	1	7
481.712	1	2
482.053	1	4
482.393	1	-9
482.734	1	4
483.075	1	5
483.415	1	4
483.756	1	6
484.097	1	-7
484.437	1	-5
484.778	1	0
485.119	1	3
485.459	1	-5
485.800	1	-3
486.141	1	-6
486.481	1	1
486.822	1	11
487.163	1	-2
487.503	1	-9
487.844	1	9
488.185	1	-6
488.525	1	0
488.866	1	6
489.207	1	13
489.547	1	1
489.888	1	7
490.228	1	-3
490.569	1	12
490.910	1	-2
491.250	1	0
491.591	1	-8
491.932	1	5
492.272	1	8
492.613	1	6
492.953	1	13
493.294	1	8
493.635	1	-2
493.975	1	-6
494.316	1	6
494.656	1	9
494.997	1	2
495.337	1	-6
495.678	1	2
496.019	1	-12
496.359	1	0
496.700	1	7
497.040	1	-1
497.381	1	-19
497.721	1	-7
498.062	1	-3
498.403	1	7
498.743	1	10
499.084	1	-8
499.424	1	9
499.765	1	1
500.105	1	4
500.446	1	2
500.786	1	-5
501.127	1	4
501.467	1	2
501.808	1	-15
502.148	1	14
502.489	1	4
502.829	1	-4
503.170	1	7
503.510	1	3
503.851	1	-16
504.191	1	1
504.532	1	-8
504.872	1	-3
505.213	1	-2
505.553	1	6
505.894	1	12
506.234	1	4
506.575	1	-3
506.915	1	10
507.256	1	-5
507.596	1	9
507.936	1	1
508.277	1	-4
508.617	1	8
508.958	1	12
509.298	1	15
509.639	1	7
509.979	1	0
510.319	1	-11
510.660	1	6
511.000	1	17
511.341	1	-5
511.681	1	5
512.022	1	-10
512.362	1	-1
512.702	1	-9
513.043	1	4
513.383	1	-5
513.724	1	16
514.064	1	9
514.404	1	0
514.745	1	-1
515.085	1	6
515.425	1	-6
515.766	1	7
516.106	1	-1
516.447	1	2
516.787	1	-1
517.127	1	3
517.468	1	0
517.808	1	-3
518.148	1	3
518.489	1	-2
518.829	1	-3
519.169	1	9
519.510	1	-3
519.850	1	-6
520.190	1	1
520.531	1	5
520.871	1	-2
521.211	1	8
521.552	1	4
521.892	1	-12
522.232	1	-12
522.573	1	-1
522.913	1	-3
523.253	1	1
523.593	1	-7
523.934	1	13
524.274	1	-5
524.614	1	-4
524.955	1	-2
525.295	1	-3
525.635	1	6
525.975	1	-2
526.316	1	-4
526.656	1	13
526.996	1	10
527.337	1	8
527.677	1	7
528.017	1	-6
528.357	1	5
528.698	1	-7
529.038	1	0
529.378	1	5
529.718	1	4
530.058	1	-2
530.399	1	-1
530.739	1	-4
531.079	1	9
531.419	1	7
531.760	1	6
532.100	1	15
532.440	1	5
532.780	1	0
533.120	1	-13
533.461	1	8
533.801	1	2
534.141	1	3
534.481	1	-8
534.821	1	2
535.162	1	10
535.502	1	-3
535.842	1	-4
536.182	1	-8
536.522	1	8
536.862	1	0
537.203	1	14
537.543	1	1
537.883	1	3
538.223	1	6
538.563	1	-4
538.903	1	3
539.243	1	2
539.584	1	0
539.924	1	2
540.264	1	-2
540.604	1	9
540.944	1	-11
541.284	1	-1
541.624	1	0
541.964	1	5
542.305	1	-11
542.645	1	1
542.985	1	-5
543.325	1	6
543.665	1	14
544.005	1	5
544.345	1	1
544.685	1	0
545.025	1	-7
545.365	1	13
545.705	1	7
546.045	1	11
546.386	1	1
546.726	1	2
547.066	1	-1
547.406	1	7
547.746	1	6
548.086	1	7
548.426	1	-8
548.766	1	0
549.106	1	7
549.446	1	2
549.786	1	2
550.126	1	1
550.466	1	-3
550.806	1	4
551.146	1	-9
551.486	1	-1
551.826	1	9
552.166	1	7
552.506	1	0
552.846	1	7
553.186	1	6
553.526	1	3
553.866	1	5
554.206	1	6
554.546	1	-9
554.886	1	4
555.226	1	-4
555.566	1	1
555.906	1	9
556.246	1	3
556.586	1	0
556.926	1	6
557.266	1	8
557.606	1	-6
557.946	1	12
558.286	1	4
558.626	1	-4
558.966	1	7
559.306	1	-9
559.646	1	-1
559.986	1	-6
560.325	1	-7
560.665	1	5
561.005	1	5
561.345	1	-1
561.685	1	-1
562.025	1	-5
562.365	1	12
562.705	1	10
563.045	1	10
563.385	1	-2
563.725	1	-1
564.064	1	7
564.404	1	-1
564.744	1	5
565.084	1	-5
565.424	1	3
565.764	1	6
566.104	1	2
566.444	1	4
566.783	1	5
567.123	1	13
567.463	1	4
567.803	1	1
568.143	1	-10
568.483	1	-7
568.823	1	7
569.162	1	12
569.502	1	13
569.842	1	2
570.182	1	-4
570.522	1	2
570.862	1	15
571.201	1	5
571.541	1	-2
571.881	1	2
572.221	1	3
572.561	1	0
572.900	1	18
573.240	1	1
573.580	1	13
573.920	1	-5
574.260	1	-5
574.599	1	-2
574.939	1	-1
575.279	1	13
575.619	1	-2
575.959	1	0
576.298	1	-5
576.638	1	-6
576.978	1	-1
577.318	1	3
577.657	1	-15
577.997	1	-6
578.337	1	-3
578.677	1	0
579.016	1	11
579.356	1	-4
579.696	1	10
580.036	1	3
580.375	1	1
580.715	1	2
581.055	1	3
581.394	1	-4
581.734	1	6
582.074	1	-3
582.414	1	-2
582.753	1	-4
583.093	1	-1
583.433	1	-5
583.772	1	0
584.112	1	-3
584.452	1	2
584.791	1	0
585.131	1	-7
585.471	1	3
585.811	1	0
586.150	1	1
586.490	1	-7
586.830	1	-3
587.169	1	-1
587.509	1	7
587.849	1	1
588.188	1	2
588.528	1	4
588.867	1	0
589.207	1	-2
589.547	1	-10
589.886	1	-1
590.226	1	1
590.566	1	7
590.905	1	16
591.245	1	0
591.585	1	4
591.924	1	-1
592.264	1	6
592.603	1	-9
592.943	1	-2
593.283	1	6
593.622	1	1
593.962	1	9
594.301	1	4
594.641	1	-11
594.981	1	-2
595.320	1	15
595.660	1	0
595.999	1	7
596.339	1	4
596.678	1	0
597.018	1	11
597.358	1	0
597.697	1	-4
598.037	1	8
598.376	1	0
598.716	1	-5
599.055	1	-4
599.395	1	12
599.734	1	3
600.074	1	1
600.413	1	1
600.753	1	-3
601.092	1	-10
601.432	1	-2
601.771	1	6
602.111	1	-5
602.451	1	-4
602.790	1	-5
603.130	1	2
603.469	1	4
603.809	1	3
604.148	1	6
604.487	1	7
604.827	1	-11
605.166	1	-2
605.506	1	-3
605.845	1	-3
606.185	1	-4
606.524	1	0
606.864	1	-5
607.203	1	1
607.543	1	-1
607.882	1	-4
608.222	1	5
608.561	1	8
608.901	1	7
609.240	1	12
609.579	1	12
609.919	1	-3
610.258	1	14
610.598	1	5
610.937	1	-6
611.277	1	5
611.616	1	-6
611.955	1	5
612.295	1	-3
612.634	1	0
612.974	1	14
613.313	1	0
613.652	1	-9
613.992	1	8
614.331	1	-3
614.671	1	2
615.010	1	-5
615.349	1	-1
615.689	1	0
616.028	1	-6
616.368	1	-1
616.707	1	1
617.046	1	1
617.386	1	0
617.725	1	-1
618.064	1	5
618.404	1	12
618.743	1	2
619.082	1	-4
619.422	1	-6
619.761	1	11
620.100	1	6
620.440	1	6
620.779	1	-10
621.118	1	3
621.458	1	9
621.797	1	5
622.136	1	6
622.476	1	0
622.815	1	-7
623.154	1	11
623.494	1	9
623.833	1	4
624.172	1	6
624.511	1	11
624.851	1	2
625.190	1	1
625.529	1	1
625.869	1	-3
626.208	1	3
626.547	1	4
626.886	1	2
627.226	1	-2
627.565	1	6
627.904	1	11
628.243	1	-5
628.583	1	-2
628.922	1	-2
629.261	1	5
629.600	1	12
629.940	1	1
630.279	1	-3
630.618	1	7
630.957	1	-1
631.297	1	-3
631.636	1	-4
631.975	1	3
632.314	1	10
632.653	1	-8
632.993	1	4
633.332	1	13
633.671	1	6
634.010	1	0
634.349	1	1
634.689	1	8
635.028	1	7
635.367	1	-4
635.706	1	-5
636.045	1	8
636.384	1	10
636.724	1	1
637.063	1	-1
637.402	1	13
637.741	1	21
638.080	1	-7
638.419	1	3
638.759	1	13
639.098	1	4
639.437	1	1
639.776	1	1
640.115	1	-10
640.454	1	9
640.793	1	10
641.132	1	9
641.472	1	-6
641.811	1	0
642.150	1	0
642.489	1	3
642.828	1	1
643.167	1	6
643.506	1	-1
643.845	1	-1
644.184	1	13
644.524	1	1
644.863	1	-4
645.202	1	11
645.541	1	-3
645.880	1	-9
646.219	1	2
646.558	1	1
646.897	1	-6
647.236	1	3
647.575	1	14
647.914	1	-4
648.253	1	0
648.592	1	0
648.931	1	6
649.270	1	8
649.610	1	1
649.949	1	3
650.288	1	1
650.627	1	6
650.966	1	7
651.305	1	-1
651.644	1	-2
651.983	1	-1
652.322	1	9
652.661	1	1
653.000	1	-8
653.339	1	8
653.678	1	8
654.017	1	7
654.356	1	3
654.695	1	2
655.034	1	5
655.373	1	10
655.712	1	-6
656.051	1	5
656.390	1	-6
656.729	1	1
657.068	1	1
657.406	1	9
657.745	1	2
658.084	1	1
658.423	1	-5
658.762	1	-8
659.101	1	1
659.440	1	2
659.779	1	1
660.118	1	12
660.457	1	-2
660.796	1	-5
661.135	1	0
661.474	1	6
661.813	1	-3
662.152	1	-2
662.491	1	-5
662.829	1	-8
663.168	1	-4
663.507	1	3
663.846	1	5
664.185	1	-6
664.524	1	-6
664.863	1	0
665.202	1	-16
665.541	1	-2
665.879	1	-7
666.218	1	-5
666.557	1	-2
666.896	1	0
667.235	1	6
667.574	1	6
667.913	1	-6
668.251	1	5
668.590	1	0
668.929	1	-2
669.268	1	1
669.607	1	-3
669.946	1	-1
670.285	1	4
670.623	1	14
670.962	1	5
671.301	1	5
671.640	1	-21
671.979	1	13
672.317	1	4
672.656	1	5
672.995	1	2
673.334	1	10
673.673	1	19
674.011	1	9
674.350	1	-4
674.689	1	-5
675.028	1	-4
675.367	1	8
675.705	1	-7
676.044	1	2
676.383	1	-1
676.722	1	0
677.060	1	3
677.399	1	-10
677.738	1	-5
678.077	1	11
678.416	1	2
678.754	1	-2
679.093	1	-5
679.432	1	-1
679.771	1	3
680.109	1	11
680.448	1	8
680.787	1	-5
681.125	1	10
681.464	1	-3
681.803	1	-11
682.142	1	16
682.480	1	8
682.819	1	7
683.158	1	7
683.496	1	6
683.835	1	-4
684.174	1	1
684.512	1	8
684.851	1	0
685.190	1	1
685.529	1	3
685.867	1	-1
686.206	1	5
686.545	1	7
686.883	1	-2
687.222	1	-7
687.561	1	1
687.899	1	1
688.238	1	-11
688.577	1	-8
688.746	1	0