File: Analysis/GaN_68K_200ms/GaN_sample E_spot4_UVVIS_68 K_200um_200 ms 2x2mm1_311.txt
340.368	1	7
340.710	1	-6
341.052	1	-2
341.394	1	-8
341.737	1	6
342.079	1	-7
342.421	1	1
342.763	1	-5
343.105	1	13
343.447	1	5
343.789	1	2
344.131	1	1
344.473	1	2
344.815	1	-2
345.157	1	8
345.499	1	6
345.841	1	5
346.183	1	-4
346.526	1	12
346.868	1	8
347.210	1	-3
347.552	1	2
347.894	1	-4
348.236	1	4
348.578	1	8
348.920	1	3
349.262	1	4
349.604	1	8
349.946	1	7
350.288	1	6
350.630	1	-10
350.972	1	-5
351.314	1	-1
351.656	1	8
351.998	1	-4
352.340	1	7
352.682	1	-5
353.024	1	-6
353.366	1	8
353.708	1	10
354.050	1	7
354.392	1	13
354.734	1	-5
355.076	1	3
355.418	1	6
355.760	1	3
356.102	1	-9
356.444	1	15
356.785	1	12
357.127	1	6
357.469	1	3
357.811	1	19
358.153	1	-2
358.495	1	12
358.837	1	4
359.179	1	2
359.521	1	1
359.863	1	-3
360.205	1	6
360.547	1	4
360.889	1	12
361.231	1	7
361.572	1	1
361.914	1	2
362.256	1	6
362.598	1	16
362.940	1	1
363.282	1	5
363.624	1	3
363.966	1	6
364.308	1	0
364.649	1	8
364.991	1	10
365.333	1	12
365.675	1	8
366.017	1	11
366.359	1	9
366.701	1	-5
367.042	1	11
367.384	1	9
367.726	1	11
368.068	1	8
368.410	1	4
368.752	1	0
369.093	1	6
369.435	1	2
369.777	1	1
370.119	1	16
370.461	1	2
370.803	1	2
371.144	1	11
371.486	1	15
371.828	1	4
372.170	1	15
372.512	1	0
372.853	1	2
373.195	1	-2
373.537	1	3
373.879	1	11
374.220	1	6
374.562	1	-3
374.904	1	5
375.246	1	10
375.588	1	7
375.929	1	5
376.271	1	3
376.613	1	-1
376.955	1	-1
377.296	1	8
377.638	1	8
377.980	1	8
378.321	1	-1
378.663	1	5
379.005	1	11
379.347	1	3
379.688	1	-1
380.030	1	-7
380.372	1	5
380.714	1	12
381.055	1	7
381.397	1	5
381.739	1	11
382.080	1	-6
382.422	1	2
382.764	1	9
383.105	1	0
383.447	1	15
383.789	1	3
384.130	1	0
384.472	1	2
384.814	1	2
385.156	1	18
385.497	1	13
385.839	1	7
386.180	1	11
386.522	1	7
386.864	1	2
387.205	1	2
387.547	1	1
387.889	1	12
388.230	1	5
388.572	1	20
388.914	1	15
389.255	1	15
389.597	1	2
389.939	1	11
390.280	1	11
390.622	1	3
390.963	1	8
391.305	1	15
391.647	1	5
391.988	1	6
392.330	1	17
392.671	1	8
393.013	1	16
393.355	1	19
393.696	1	7
394.038	1	-2
394.379	1	4
394.721	1	2
395.062	1	7
395.404	1	6
395.746	1	7
396.087	1	1
396.429	1	10
396.770	1	12
397.112	1	6
397.453	1	-6
397.795	1	5
398.136	1	12
398.478	1	7
398.819	1	10
399.161	1	10
399.503	1	5
399.844	1	2
400.186	1	19
400.527	1	15
400.869	1	17
401.210	1	4
401.552	1	10
401.893	1	14
402.235	1	13
402.576	1	18
402.918	1	3
403.259	1	-9
403.601	1	-1
403.942	1	8
404.284	1	14
404.625	1	14
404.967	1	10
405.308	1	14
405.649	1	0
405.991	1	8
406.332	1	-6
406.674	1	9
407.015	1	-2
407.357	1	13
407.698	1	1
408.040	1	0
408.381	1	6
408.722	1	3
409.064	1	17
409.405	1	7
409.747	1	-4
410.088	1	4
410.430	1	6
410.771	1	19
411.112	1	4
411.454	1	16
411.795	1	0
412.137	1	12
412.478	1	8
412.819	1	2
413.161	1	-4
413.502	1	4
413.844	1	7
414.185	1	7
414.526	1	5
414.868	1	11
415.209	1	-7
415.550	1	2
415.892	1	3
416.233	1	2
416.575	1	0
416.916	1	0
417.257	1	14
417.599	1	8
417.940	1	0
418.281	1	10
418.623	1	7
418.964	1	7
419.305	1	9
419.647	1	11
419.988	1	4
420.329	1	5
420.671	1	7
421.012	1	15
421.353	1	9
421.695	1	4
422.036	1	8
422.377	1	6
422.718	1	3
423.060	1	-3
423.401	1	8
423.742	1	7
424.084	1	13
424.425	1	2
424.766	1	7
425.107	1	7
425.449	1	10
425.790	1	5
426.131	1	11
426.472	1	0
426.814	1	13
427.155	1	8
427.496	1	6
427.837	1	4
428.179	1	-2
428.520	1	-1
428.861	1	1
429.202	1	8
429.544	1	10
429.885	1	8
430.226	1	-2
430.567	1	15
430.909	1	-7
431.250	1	-3
431.591	1	16
431.932	1	4
432.273	1	-3
432.615	1	4
432.956	1	-1
433.297	1	4
433.638	1	-2
433.979	1	-7
434.320	1	3
434.662	1	-1
435.003	1	10
435.344	1	8
435.685	1	10
436.026	1	8
436.368	1	1
436.709	1	-6
437.050	1	4
437.391	1	7
437.732	1	2
438.073	1	11
438.414	1	6
438.756	1	-8
439.097	1	2
439.438	1	8
439.779	1	-2
440.120	1	1
440.461	1	4
440.802	1	7
441.143	1	3
441.485	1	-1
441.826	1	-12
442.167	1	7
442.508	1	5
442.849	1	14
443.190	1	-11
443.531	1	9
443.872	1	-5
444.213	1	-6
444.554	1	3
444.895	1	1
445.237	1	3
445.578	1	11
445.919	1	5
446.260	1	8
446.601	1	-3
446.942	1	-5
447.283	1	7
447.624	1	1
447.965	1	-3
448.306	1	5
448.647	1	9
448.988	1	-4
449.329	1	0
449.670	1	6
450.011	1	2
450.352	1	11
450.693	1	2
451.034	1	7
451.375	1	7
451.716	1	5
452.057	1	12
452.398	1	4
452.739	1	0
453.080	1	15
453.421	1	-1
453.762	1	7
454.103	1	6
454.444	1	12
454.785	1	-4
455.126	1	6
455.467	1	12
455.808	1	4
456.149	1	3
456.490	1	-2
456.831	1	9
457.172	1	-1
457.513	1	12
457.854	1	5
458.195	1	-4
458.536	1	2
458.877	1	5
459.218	1	9
459.559	1	8
459.899	1	16
460.240	1	2
460.581	1	14
460.922	1	-1
461.263	1	15
461.604	1	3
461.945	1	16
462.286	1	9
462.627	1	2
462.968	1	-9
463.309	1	1
463.649	1	-3
463.990	1	7
464.331	1	7
464.672	1	-2
465.013	1	-7
465.354	1	6
465.695	1	6
466.036	1	16
466.376	1	-3
466.717	1	-10
467.058	1	13
467.399	1	-1
467.740	1	8
468.081	1	-3
468.422	1	0
468.762	1	-2
469.103	1	-2
469.444	1	-5
469.785	1	8
470.126	1	8
470.467	1	0
470.807	1	3
471.148	1	0
471.489	1	4
471.830	1	19
472.171	1	5
472.511	1	12
472.852	1	6
473.193	1	-10
473.534	1	-6
473.875	1	10
474.215	1	4
474.556	1	3
474.897	1	3
475.238	1	6
475.578	1	4
475.919	1	5
476.260	1	3
476.601	1	-1
476.942	1	4
477.282	1	2
477.623	1	5
477.964	1	16
478.305	1	3
478.645	1	-2
478.986	1	0
479.327	1	2
479.667	1	5
480.008	1	11
480.349	1	-1
480.690	1	2
481.030	1	3
481.371	1	9
481.712	1	2
482.053	1	10
482.393	1	-4
482.734	1	8
483.075	1	6
483.415	1	10
483.756	1	4
484.097	1	-5
484.437	1	-12
484.778	1	4
485.119	1	10
485.459	1	8
485.800	1	-8
486.141	1	3
486.481	1	4
486.822	1	2
487.163	1	7
487.503	1	-7
487.844	1	4
488.185	1	-12
488.525	1	-8
488.866	1	10
489.207	1	10
489.547	1	-5
489.888	1	-1
490.228	1	6
490.569	1	14
490.910	1	3
491.250	1	10
491.591	1	-2
491.932	1	10
492.272	1	10
492.613	1	4
492.953	1	7
493.294	1	9
493.635	1	4
493.975	1	3
494.316	1	12
494.656	1	-2
494.997	1	-2
495.337	1	5
495.678	1	8
496.019	1	2
496.359	1	5
496.700	1	6
497.040	1	-2
497.381	1	-24
497.721	1	1
498.062	1	-2
498.403	1	4
498.743	1	0
499.084	1	-7
499.424	1	5
499.765	1	0
500.105	1	4
500.446	1	8
500.786	1	0
501.127	1	6
501.467	1	3
501.808	1	-5
502.148	1	-5
502.489	1	4
502.829	1	6
503.170	1	8
503.510	1	0
503.851	1	-13
504.191	1	5
504.532	1	-10
504.872	1	-2
505.213	1	0
505.553	1	3
505.894	1	21
506.234	1	13
506.575	1	4
506.915	1	0
507.256	1	-5
507.596	1	12
507.936	1	9
508.277	1	2
508.617	1	15
508.958	1	17
509.298	1	14
509.639	1	6
509.979	1	-6
510.319	1	-4
510.660	1	11
511.000	1	12
511.341	1	3
511.681	1	12
512.022	1	5
512.362	1	3
512.702	1	-9
513.043	1	9
513.383	1	-2
513.724	1	12
514.064	1	4
514.404	1	3
514.745	1	4
515.085	1	13
515.425	1	0
515.766	1	3
516.106	1	-7
516.447	1	7
516.787	1	5
517.127	1	4
517.468	1	2
517.808	1	0
518.148	1	1
518.489	1	3
518.829	1	-7
519.169	1	12
519.510	1	2
519.850	1	5
520.190	1	5
520.531	1	11
520.871	1	0
521.211	1	7
521.552	1	2
521.892	1	2
522.232	1	-2
522.573	1	3
522.913	1	4
523.253	1	8
523.593	1	-1
523.934	1	10
524.274	1	3
524.614	1	5
524.955	1	9
525.295	1	-2
525.635	1	16
525.975	1	-1
526.316	1	9
526.656	1	13
526.996	1	11
527.337	1	4
527.677	1	14
528.017	1	-3
528.357	1	8
528.698	1	0
529.038	1	13
529.378	1	6
529.718	1	12
530.058	1	5
530.399	1	19
530.739	1	2
531.079	1	5
531.419	1	13
531.760	1	8
532.100	1	8
532.440	1	1
532.780	1	4
533.120	1	0
533.461	1	20
533.801	1	3
534.141	1	12
534.481	1	4
534.821	1	8
535.162	1	16
535.502	1	4
535.842	1	17
536.182	1	0
536.522	1	1
536.862	1	9
537.203	1	6
537.543	1	6
537.883	1	14
538.223	1	13
538.563	1	8
538.903	1	3
539.243	1	11
539.584	1	6
539.924	1	17
540.264	1	13
540.604	1	11
540.944	1	11
541.284	1	10
541.624	1	1
541.964	1	6
542.305	1	-2
542.645	1	6
542.985	1	0
543.325	1	0
543.665	1	16
544.005	1	5
544.345	1	2
544.685	1	11
545.025	1	5
545.365	1	15
545.705	1	8
546.045	1	12
546.386	1	1
546.726	1	2
547.066	1	-7
547.406	1	1
547.746	1	9
548.086	1	6
548.426	1	2
548.766	1	15
549.106	1	2
549.446	1	1
549.786	1	6
550.126	1	-7
550.466	1	-3
550.806	1	14
551.146	1	5
551.486	1	10
551.826	1	11
552.166	1	9
552.506	1	0
552.846	1	12
553.186	1	10
553.526	1	3
553.866	1	8
554.206	1	5
554.546	1	-2
554.886	1	11
555.226	1	3
555.566	1	-2
555.906	1	12
556.246	1	6
556.586	1	23
556.926	1	10
557.266	1	16
557.606	1	-6
557.946	1	8
558.286	1	5
558.626	1	8
558.966	1	2
559.306	1	7
559.646	1	5
559.986	1	4
560.325	1	-11
560.665	1	3
561.005	1	-2
561.345	1	2
561.685	1	7
562.025	1	-2
562.365	1	5
562.705	1	8
563.045	1	11
563.385	1	-5
563.725	1	-4
564.064	1	15
564.404	1	-2
564.744	1	6
565.084	1	0
565.424	1	-3
565.764	1	7
566.104	1	-1
566.444	1	7
566.783	1	11
567.123	1	19
567.463	1	4
567.803	1	-2
568.143	1	-9
568.483	1	-5
568.823	1	15
569.162	1	2
569.502	1	13
569.842	1	2
570.182	1	-2
570.522	1	1
570.862	1	2
571.201	1	7
571.541	1	1
571.881	1	8
572.221	1	10
572.561	1	0
572.900	1	15
573.240	1	2
573.580	1	0
573.920	1	1
574.260	1	6
574.599	1	4
574.939	1	4
575.279	1	5
575.619	1	-1
575.959	1	-1
576.298	1	-1
576.638	1	14
576.978	1	-4
577.318	1	8
577.657	1	-11
577.997	1	2
578.337	1	5
578.677	1	-1
579.016	1	9
579.356	1	-2
579.696	1	6
580.036	1	4
580.375	1	2
580.715	1	0
581.055	1	5
581.394	1	-4
581.734	1	13
582.074	1	-4
582.414	1	6
582.753	1	5
583.093	1	-3
583.433	1	-11
583.772	1	1
584.112	1	9
584.452	1	4
584.791	1	2
585.131	1	3
585.471	1	3
585.811	1	-3
586.150	1	0
586.490	1	1
586.830	1	0
587.169	1	6
587.509	1	12
587.849	1	15
588.188	1	0
588.528	1	6
588.867	1	-1
589.207	1	-13
589.547	1	-3
589.886	1	-10
590.226	1	4
590.566	1	3
590.905	1	3
591.245	1	5
591.585	1	-2
591.924	1	-5
592.264	1	0
592.603	1	1
592.943	1	1
593.283	1	6
593.622	1	-1
593.962	1	13
594.301	1	6
594.641	1	-2
594.981	1	-1
595.320	1	13
595.660	1	5
595.999	1	-5
596.339	1	7
596.678	1	-5
597.018	1	6
597.358	1	9
597.697	1	5
598.037	1	7
598.376	1	9
598.716	1	-12
599.055	1	9
599.395	1	5
599.734	1	1
600.074	1	3
600.413	1	16
600.753	1	6
601.092	1	-7
601.432	1	-2
601.771	1	9
602.111	1	2
602.451	1	-4
602.790	1	6
603.130	1	4
603.469	1	0
603.809	1	10
604.148	1	-2
604.487	1	5
604.827	1	-7
605.166	1	0
605.506	1	8
605.845	1	6
606.185	1	10
606.524	1	-5
606.864	1	-3
607.203	1	18
607.543	1	-5
607.882	1	1
608.222	1	9
608.561	1	6
608.901	1	10
609.240	1	-3
609.579	1	3
609.919	1	-3
610.258	1	15
610.598	1	5
610.937	1	0
611.277	1	5
611.616	1	-7
611.955	1	14
612.295	1	-5
612.634	1	8
612.974	1	5
613.313	1	3
613.652	1	2
613.992	1	9
614.331	1	-1
614.671	1	-3
615.010	1	-2
615.349	1	7
615.689	1	1
616.028	1	-3
616.368	1	5
616.707	1	-6
617.046	1	8
617.386	1	2
617.725	1	8
618.064	1	8
618.404	1	9
618.743	1	1
619.082	1	5
619.422	1	-2
619.761	1	6
620.100	1	1
620.440	1	2
620.779	1	1
621.118	1	3
621.458	1	-2
621.797	1	6
622.136	1	-2
622.476	1	6
622.815	1	0
623.154	1	2
623.494	1	3
623.833	1	1
624.172	1	13
624.511	1	-3
624.851	1	-9
625.190	1	0
625.529	1	8
625.869	1	10
626.208	1	1
626.547	1	-2
626.886	1	-3
627.226	1	0
627.565	1	11
627.904	1	4
628.243	1	-5
628.583	1	4
628.922	1	5
629.261	1	10
629.600	1	8
629.940	1	6
630.279	1	0
630.618	1	-2
630.957	1	-7
631.297	1	-3
631.636	1	-3
631.975	1	-1
632.314	1	8
632.653	1	-10
632.993	1	10
633.332	1	11
633.671	1	7
634.010	1	10
634.349	1	-2
634.689	1	24
635.028	1	12
635.367	1	8
635.706	1	-14
636.045	1	6
636.384	1	-1
636.724	1	6
637.063	1	8
637.402	1	6
637.741	1	7
638.080	1	1
638.419	1	12
638.759	1	2
639.098	1	4
639.437	1	-2
639.776	1	3
640.115	1	1
640.454	1	9
640.793	1	6
641.132	1	17
641.472	1	-3
641.811	1	-1
642.150	1	3
642.489	1	-7
642.828	1	8
643.167	1	8
643.506	1	-9
643.845	1	7
644.184	1	12
644.524	1	-9
644.863	1	-8
645.202	1	3
645.541	1	-4
645.880	1	2
646.219	1	5
646.558	1	8
646.897	1	-6
647.236	1	9
647.575	1	6
647.914	1	6
648.253	1	5
648.592	1	3
648.931	1	15
649.270	1	14
649.610	1	19
649.949	1	-6
650.288	1	-1
650.627	1	-1
650.966	1	-6
651.305	1	-1
651.644	1	2
651.983	1	15
652.322	1	14
652.661	1	3
653.000	1	5
653.339	1	8
653.678	1	7
654.017	1	5
654.356	1	6
654.695	1	5
655.034	1	11
655.373	1	9
655.712	1	2
656.051	1	7
656.390	1	4
656.729	1	5
657.068	1	8
657.406	1	5
657.745	1	-4
658.084	1	9
658.423	1	-11
658.762	1	1
659.101	1	-1
659.440	1	17
659.779	1	-5
660.118	1	12
660.457	1	1
660.796	1	-2
661.135	1	0
661.474	1	3
661.813	1	3
662.152	1	-7
662.491	1	8
662.829	1	4
663.168	1	-4
663.507	1	3
663.846	1	4
664.185	1	-3
664.524	1	-7
664.863	1	9
665.202	1	-4
665.541	1	-3
665.879	1	-2
666.218	1	-4
666.557	1	-2
666.896	1	-3
667.235	1	2
667.574	1	9
667.913	1	4
668.251	1	1
668.590	1	-2
668.929	1	0
669.268	1	-4
669.607	1	-8
669.946	1	10
670.285	1	-1
670.623	1	5
670.962	1	-1
671.301	1	-2
671.640	1	-17
671.979	1	21
672.317	1	5
672.656	1	-1
672.995	1	9
673.334	1	9
673.673	1	14
674.011	1	9
674.350	1	3
674.689	1	-2
675.028	1	7
675.367	1	11
675.705	1	0
676.044	1	-4
676.383	1	-2
676.722	1	-2
677.060	1	4
677.399	1	-1
677.738	1	-4
678.077	1	3
678.416	1	3
678.754	1	-6
679.093	1	-1
679.432	1	-2
679.771	1	2
680.109	1	13
680.448	1	0
680.787	1	4
681.125	1	3
681.464	1	9
681.803	1	-3
682.142	1	17
682.480	1	-6
682.819	1	-5
683.158	1	13
683.496	1	-8
683.835	1	11
684.174	1	-2
684.512	1	-3
684.851	1	6
685.190	1	5
685.529	1	2
685.867	1	3
686.206	1	-2
686.545	1	7
686.883	1	-3
687.222	1	0
687.561	1	11
687.899	1	-5
688.238	1	-3
688.577	1	-6
688.746	1	6