File: Analysis/GaN_68K_200ms/GaN_sample E_spot4_UVVIS_68 K_200um_200 ms 2x2mm1_797.txt
340.368	1	4
340.710	1	-8
341.052	1	-1
341.394	1	-9
341.737	1	14
342.079	1	-4
342.421	1	-8
342.763	1	2
343.105	1	-3
343.447	1	6
343.789	1	-11
344.131	1	1
344.473	1	-1
344.815	1	4
345.157	1	-1
345.499	1	2
345.841	1	6
346.183	1	-6
346.526	1	5
346.868	1	2
347.210	1	1
347.552	1	-1
347.894	1	-7
348.236	1	-2
348.578	1	6
348.920	1	13
349.262	1	-5
349.604	1	2
349.946	1	3
350.288	1	-2
350.630	1	-10
350.972	1	5
351.314	1	-1
351.656	1	-8
351.998	1	6
352.340	1	1
352.682	1	-2
353.024	1	-15
353.366	1	7
353.708	1	3
354.050	1	6
354.392	1	10
354.734	1	-8
355.076	1	2
355.418	1	-5
355.760	1	-1
356.102	1	-4
356.444	1	0
356.785	1	8
357.127	1	2
357.469	1	-2
357.811	1	13
358.153	1	1
358.495	1	4
358.837	1	-6
359.179	1	2
359.521	1	-3
359.863	1	-14
360.205	1	-1
360.547	1	-8
360.889	1	-4
361.231	1	4
361.572	1	-4
361.914	1	-4
362.256	1	6
362.598	1	-1
362.940	1	1
363.282	1	2
363.624	1	-2
363.966	1	-4
364.308	1	-7
364.649	1	-11
364.991	1	2
365.333	1	12
365.675	1	-3
366.017	1	3
366.359	1	-2
366.701	1	-5
367.042	1	12
367.384	1	6
367.726	1	11
368.068	1	-5
368.410	1	6
368.752	1	-10
369.093	1	-1
369.435	1	-1
369.777	1	2
370.119	1	12
370.461	1	-9
370.803	1	-5
371.144	1	-2
371.486	1	7
371.828	1	7
372.170	1	10
372.512	1	2
372.853	1	-5
373.195	1	-15
373.537	1	10
373.879	1	10
374.220	1	1
374.562	1	3
374.904	1	2
375.246	1	1
375.588	1	-3
375.929	1	6
376.271	1	-3
376.613	1	1
376.955	1	0
377.296	1	2
377.638	1	-2
377.980	1	4
378.321	1	0
378.663	1	-9
379.005	1	7
379.347	1	-3
379.688	1	7
380.030	1	-2
380.372	1	-2
380.714	1	5
381.055	1	-7
381.397	1	-10
381.739	1	3
382.080	1	-12
382.422	1	6
382.764	1	-4
383.105	1	1
383.447	1	-2
383.789	1	-2
384.130	1	-1
384.472	1	0
384.814	1	2
385.156	1	16
385.497	1	10
385.839	1	4
386.180	1	-1
386.522	1	9
386.864	1	4
387.205	1	-1
387.547	1	-11
387.889	1	11
388.230	1	-4
388.572	1	4
388.914	1	9
389.255	1	15
389.597	1	-10
389.939	1	10
390.280	1	5
390.622	1	0
390.963	1	16
391.305	1	13
391.647	1	6
391.988	1	3
392.330	1	4
392.671	1	4
393.013	1	7
393.355	1	10
393.696	1	1
394.038	1	0
394.379	1	-6
394.721	1	5
395.062	1	-15
395.404	1	3
395.746	1	3
396.087	1	2
396.429	1	2
396.770	1	2
397.112	1	-12
397.453	1	0
397.795	1	12
398.136	1	-1
398.478	1	-2
398.819	1	9
399.161	1	1
399.503	1	6
399.844	1	-4
400.186	1	12
400.527	1	4
400.869	1	10
401.210	1	-10
401.552	1	18
401.893	1	4
402.235	1	13
402.576	1	8
402.918	1	-18
403.259	1	-6
403.601	1	-8
403.942	1	-1
404.284	1	-4
404.625	1	11
404.967	1	1
405.308	1	0
405.649	1	-4
405.991	1	0
406.332	1	-1
406.674	1	6
407.015	1	-8
407.357	1	-1
407.698	1	-5
408.040	1	-4
408.381	1	-3
408.722	1	-4
409.064	1	-5
409.405	1	5
409.747	1	-2
410.088	1	3
410.430	1	8
410.771	1	9
411.112	1	14
411.454	1	9
411.795	1	6
412.137	1	-9
412.478	1	0
412.819	1	2
413.161	1	-8
413.502	1	2
413.844	1	-4
414.185	1	7
414.526	1	3
414.868	1	0
415.209	1	-3
415.550	1	-2
415.892	1	-5
416.233	1	-1
416.575	1	-6
416.916	1	3
417.257	1	8
417.599	1	-2
417.940	1	-2
418.281	1	-7
418.623	1	2
418.964	1	0
419.305	1	-1
419.647	1	-1
419.988	1	2
420.329	1	0
420.671	1	-6
421.012	1	6
421.353	1	-3
421.695	1	3
422.036	1	0
422.377	1	-3
422.718	1	4
423.060	1	4
423.401	1	0
423.742	1	-3
424.084	1	1
424.425	1	5
424.766	1	3
425.107	1	3
425.449	1	2
425.790	1	-1
426.131	1	7
426.472	1	-8
426.814	1	3
427.155	1	-9
427.496	1	0
427.837	1	-4
428.179	1	-8
428.520	1	-8
428.861	1	6
429.202	1	6
429.544	1	1
429.885	1	-6
430.226	1	-2
430.567	1	6
430.909	1	-18
431.250	1	-6
431.591	1	5
431.932	1	6
432.273	1	-13
432.615	1	2
432.956	1	1
433.297	1	7
433.638	1	-5
433.979	1	-5
434.320	1	-4
434.662	1	-10
435.003	1	-1
435.344	1	-3
435.685	1	3
436.026	1	2
436.368	1	4
436.709	1	2
437.050	1	10
437.391	1	4
437.732	1	-6
438.073	1	5
438.414	1	8
438.756	1	-1
439.097	1	11
439.438	1	8
439.779	1	-18
440.120	1	-2
440.461	1	-5
440.802	1	5
441.143	1	-2
441.485	1	-9
441.826	1	-3
442.167	1	8
442.508	1	-4
442.849	1	7
443.190	1	0
443.531	1	-1
443.872	1	6
444.213	1	-5
444.554	1	3
444.895	1	1
445.237	1	-3
445.578	1	4
445.919	1	-3
446.260	1	9
446.601	1	2
446.942	1	0
447.283	1	-1
447.624	1	-3
447.965	1	-4
448.306	1	2
448.647	1	13
448.988	1	-13
449.329	1	4
449.670	1	0
450.011	1	3
450.352	1	8
450.693	1	2
451.034	1	7
451.375	1	0
451.716	1	3
452.057	1	13
452.398	1	5
452.739	1	-4
453.080	1	15
453.421	1	-5
453.762	1	0
454.103	1	4
454.444	1	16
454.785	1	-6
455.126	1	0
455.467	1	4
455.808	1	3
456.149	1	-5
456.490	1	-4
456.831	1	4
457.172	1	-4
457.513	1	8
457.854	1	-1
458.195	1	-9
458.536	1	3
458.877	1	-2
459.218	1	9
459.559	1	5
459.899	1	8
460.240	1	-3
460.581	1	4
460.922	1	-8
461.263	1	8
461.604	1	0
461.945	1	6
462.286	1	7
462.627	1	2
462.968	1	-2
463.309	1	3
463.649	1	-5
463.990	1	-2
464.331	1	-8
464.672	1	-5
465.013	1	-6
465.354	1	5
465.695	1	9
466.036	1	8
466.376	1	-10
466.717	1	-1
467.058	1	6
467.399	1	6
467.740	1	-2
468.081	1	-2
468.422	1	10
468.762	1	-2
469.103	1	-16
469.444	1	6
469.785	1	12
470.126	1	-6
470.467	1	-2
470.807	1	3
471.148	1	-1
471.489	1	-6
471.830	1	17
472.171	1	-9
472.511	1	10
472.852	1	-4
473.193	1	1
473.534	1	-3
473.875	1	4
474.215	1	1
474.556	1	-3
474.897	1	-7
475.238	1	0
475.578	1	2
475.919	1	-3
476.260	1	-1
476.601	1	0
476.942	1	1
477.282	1	-9
477.623	1	4
477.964	1	10
478.305	1	-2
478.645	1	-9
478.986	1	1
479.327	1	2
479.667	1	-14
480.008	1	3
480.349	1	-4
480.690	1	-4
481.030	1	7
481.371	1	11
481.712	1	-1
482.053	1	2
482.393	1	-10
482.734	1	4
483.075	1	3
483.415	1	3
483.756	1	11
484.097	1	-4
484.437	1	-19
484.778	1	-6
485.119	1	-4
485.459	1	11
485.800	1	-7
486.141	1	-11
486.481	1	2
486.822	1	0
487.163	1	-4
487.503	1	-12
487.844	1	0
488.185	1	-8
488.525	1	0
488.866	1	3
489.207	1	4
489.547	1	-2
489.888	1	-5
490.228	1	-4
490.569	1	6
490.910	1	0
491.250	1	4
491.591	1	-2
491.932	1	8
492.272	1	12
492.613	1	-1
492.953	1	5
493.294	1	7
493.635	1	-2
493.975	1	3
494.316	1	2
494.656	1	8
494.997	1	-5
495.337	1	1
495.678	1	5
496.019	1	-4
496.359	1	1
496.700	1	-6
497.040	1	1
497.381	1	-19
497.721	1	-8
498.062	1	-5
498.403	1	0
498.743	1	8
499.084	1	-11
499.424	1	6
499.765	1	1
500.105	1	9
500.446	1	0
500.786	1	10
501.127	1	17
501.467	1	2
501.808	1	-10
502.148	1	-4
502.489	1	11
502.829	1	-3
503.170	1	1
503.510	1	-6
503.851	1	-10
504.191	1	3
504.532	1	-11
504.872	1	0
505.213	1	-3
505.553	1	11
505.894	1	4
506.234	1	5
506.575	1	2
506.915	1	1
507.256	1	-3
507.596	1	-2
507.936	1	1
508.277	1	-3
508.617	1	8
508.958	1	14
509.298	1	6
509.639	1	12
509.979	1	0
510.319	1	-8
510.660	1	6
511.000	1	9
511.341	1	-7
511.681	1	5
512.022	1	-8
512.362	1	-4
512.702	1	-5
513.043	1	4
513.383	1	-5
513.724	1	5
514.064	1	-10
514.404	1	6
514.745	1	-2
515.085	1	-2
515.425	1	5
515.766	1	1
516.106	1	-5
516.447	1	-2
516.787	1	-4
517.127	1	0
517.468	1	5
517.808	1	6
518.148	1	4
518.489	1	3
518.829	1	-7
519.169	1	7
519.510	1	-1
519.850	1	-2
520.190	1	15
520.531	1	-8
520.871	1	-7
521.211	1	3
521.552	1	1
521.892	1	-15
522.232	1	-6
522.573	1	2
522.913	1	8
523.253	1	7
523.593	1	-12
523.934	1	3
524.274	1	-4
524.614	1	5
524.955	1	0
525.295	1	-8
525.635	1	9
525.975	1	-6
526.316	1	-1
526.656	1	18
526.996	1	18
527.337	1	4
527.677	1	12
528.017	1	-1
528.357	1	3
528.698	1	-2
529.038	1	11
529.378	1	-2
529.718	1	6
530.058	1	3
530.399	1	11
530.739	1	-9
531.079	1	2
531.419	1	1
531.760	1	3
532.100	1	9
532.440	1	-1
532.780	1	-5
533.120	1	-6
533.461	1	11
533.801	1	2
534.141	1	7
534.481	1	0
534.821	1	3
535.162	1	9
535.502	1	6
535.842	1	-1
536.182	1	3
536.522	1	7
536.862	1	7
537.203	1	2
537.543	1	10
537.883	1	10
538.223	1	-7
538.563	1	7
538.903	1	-7
539.243	1	-8
539.584	1	-14
539.924	1	11
540.264	1	6
540.604	1	1
540.944	1	-18
541.284	1	2
541.624	1	1
541.964	1	6
542.305	1	-1
542.645	1	-3
542.985	1	2
543.325	1	-14
543.665	1	9
544.005	1	-4
544.345	1	-10
544.685	1	1
545.025	1	0
545.365	1	9
545.705	1	4
546.045	1	6
546.386	1	2
546.726	1	4
547.066	1	-11
547.406	1	16
547.746	1	11
548.086	1	0
548.426	1	-1
548.766	1	-3
549.106	1	3
549.446	1	1
549.786	1	-2
550.126	1	-1
550.466	1	0
550.806	1	6
551.146	1	-2
551.486	1	1
551.826	1	7
552.166	1	1
552.506	1	-1
552.846	1	-9
553.186	1	2
553.526	1	-13
553.866	1	-6
554.206	1	10
554.546	1	-9
554.886	1	-1
555.226	1	-9
555.566	1	9
555.906	1	-1
556.246	1	0
556.586	1	5
556.926	1	0
557.266	1	7
557.606	1	-11
557.946	1	6
558.286	1	7
558.626	1	11
558.966	1	3
559.306	1	-6
559.646	1	-6
559.986	1	-4
560.325	1	-2
560.665	1	10
561.005	1	4
561.345	1	-2
561.685	1	1
562.025	1	-6
562.365	1	14
562.705	1	9
563.045	1	2
563.385	1	-6
563.725	1	-3
564.064	1	7
564.404	1	2
564.744	1	2
565.084	1	-12
565.424	1	-6
565.764	1	13
566.104	1	-4
566.444	1	7
566.783	1	5
567.123	1	12
567.463	1	-5
567.803	1	-5
568.143	1	-1
568.483	1	-4
568.823	1	10
569.162	1	0
569.502	1	5
569.842	1	2
570.182	1	-3
570.522	1	8
570.862	1	-2
571.201	1	4
571.541	1	-5
571.881	1	4
572.221	1	6
572.561	1	-13
572.900	1	6
573.240	1	-12
573.580	1	3
573.920	1	-2
574.260	1	0
574.599	1	-5
574.939	1	-9
575.279	1	5
575.619	1	-1
575.959	1	-4
576.298	1	-6
576.638	1	-4
576.978	1	1
577.318	1	0
577.657	1	-14
577.997	1	-11
578.337	1	-4
578.677	1	-3
579.016	1	3
579.356	1	-7
579.696	1	2
580.036	1	-4
580.375	1	2
580.715	1	12
581.055	1	7
581.394	1	-1
581.734	1	-1
582.074	1	-15
582.414	1	0
582.753	1	0
583.093	1	-4
583.433	1	-11
583.772	1	5
584.112	1	3
584.452	1	-1
584.791	1	-1
585.131	1	-5
585.471	1	-2
585.811	1	0
586.150	1	-2
586.490	1	-5
586.830	1	5
587.169	1	-1
587.509	1	-2
587.849	1	4
588.188	1	0
588.528	1	5
588.867	1	-5
589.207	1	-6
589.547	1	-6
589.886	1	2
590.226	1	3
590.566	1	2
590.905	1	6
591.245	1	-3
591.585	1	-7
591.924	1	9
592.264	1	-1
592.603	1	-12
592.943	1	-7
593.283	1	7
593.622	1	-1
593.962	1	-1
594.301	1	12
594.641	1	-8
594.981	1	11
595.320	1	6
595.660	1	0
595.999	1	6
596.339	1	-3
596.678	1	-2
597.018	1	10
597.358	1	8
597.697	1	1
598.037	1	2
598.376	1	6
598.716	1	-12
599.055	1	1
599.395	1	-1
599.734	1	-3
600.074	1	-1
600.413	1	-9
600.753	1	8
601.092	1	-12
601.432	1	-4
601.771	1	5
602.111	1	0
602.451	1	-2
602.790	1	-5
603.130	1	-1
603.469	1	1
603.809	1	10
604.148	1	3
604.487	1	0
604.827	1	1
605.166	1	-6
605.506	1	4
605.845	1	1
606.185	1	-5
606.524	1	5
606.864	1	-2
607.203	1	13
607.543	1	-3
607.882	1	-6
608.222	1	2
608.561	1	0
608.901	1	9
609.240	1	-1
609.579	1	-8
609.919	1	-2
610.258	1	10
610.598	1	0
610.937	1	-1
611.277	1	0
611.616	1	-14
611.955	1	3
612.295	1	-3
612.634	1	2
612.974	1	10
613.313	1	8
613.652	1	-3
613.992	1	2
614.331	1	11
614.671	1	8
615.010	1	3
615.349	1	-2
615.689	1	2
616.028	1	-4
616.368	1	-6
616.707	1	-3
617.046	1	8
617.386	1	-5
617.725	1	9
618.064	1	13
618.404	1	9
618.743	1	-6
619.082	1	-4
619.422	1	6
619.761	1	2
620.100	1	1
620.440	1	-6
620.779	1	6
621.118	1	-2
621.458	1	4
621.797	1	-3
622.136	1	1
622.476	1	-4
622.815	1	-5
623.154	1	0
623.494	1	-2
623.833	1	2
624.172	1	13
624.511	1	-1
624.851	1	-1
625.190	1	10
625.529	1	-3
625.869	1	6
626.208	1	0
626.547	1	-1
626.886	1	-2
627.226	1	3
627.565	1	9
627.904	1	5
628.243	1	-15
628.583	1	0
628.922	1	0
629.261	1	6
629.600	1	8
629.940	1	2
630.279	1	-9
630.618	1	-1
630.957	1	-13
631.297	1	-5
631.636	1	-1
631.975	1	9
632.314	1	7
632.653	1	-6
632.993	1	4
633.332	1	5
633.671	1	-1
634.010	1	-5
634.349	1	-4
634.689	1	-1
635.028	1	4
635.367	1	5
635.706	1	-1
636.045	1	-4
636.384	1	0
636.724	1	-3
637.063	1	1
637.402	1	5
637.741	1	13
638.080	1	2
638.419	1	7
638.759	1	-4
639.098	1	2
639.437	1	-9
639.776	1	2
640.115	1	-5
640.454	1	16
640.793	1	9
641.132	1	5
641.472	1	-8
641.811	1	0
642.150	1	0
642.489	1	-6
642.828	1	1
643.167	1	-3
643.506	1	2
643.845	1	7
644.184	1	11
644.524	1	-1
644.863	1	-3
645.202	1	-5
645.541	1	-4
645.880	1	3
646.219	1	1
646.558	1	-1
646.897	1	-5
647.236	1	4
647.575	1	-2
647.914	1	-7
648.253	1	6
648.592	1	-4
648.931	1	10
649.270	1	9
649.610	1	10
649.949	1	2
650.288	1	-1
650.627	1	-8
650.966	1	-8
651.305	1	1
651.644	1	-9
651.983	1	9
652.322	1	-3
652.661	1	0
653.000	1	-4
653.339	1	-1
653.678	1	-1
654.017	1	5
654.356	1	-1
654.695	1	6
655.034	1	-1
655.373	1	-1
655.712	1	-9
656.051	1	5
656.390	1	-2
656.729	1	8
657.068	1	-1
657.406	1	4
657.745	1	2
658.084	1	6
658.423	1	-5
658.762	1	-1
659.101	1	-1
659.440	1	9
659.779	1	-7
660.118	1	4
660.457	1	-11
660.796	1	1
661.135	1	8
661.474	1	1
661.813	1	3
662.152	1	-2
662.491	1	0
662.829	1	0
663.168	1	-3
663.507	1	6
663.846	1	3
664.185	1	-6
664.524	1	-8
664.863	1	4
665.202	1	-11
665.541	1	5
665.879	1	-11
666.218	1	-12
666.557	1	5
666.896	1	1
667.235	1	-3
667.574	1	3
667.913	1	-10
668.251	1	-7
668.590	1	-11
668.929	1	1
669.268	1	8
669.607	1	-10
669.946	1	2
670.285	1	9
670.623	1	9
670.962	1	0
671.301	1	-14
671.640	1	-11
671.979	1	18
672.317	1	-9
672.656	1	-1
672.995	1	2
673.334	1	3
673.673	1	18
674.011	1	9
674.350	1	-2
674.689	1	-2
675.028	1	4
675.367	1	-1
675.705	1	1
676.044	1	1
676.383	1	-3
676.722	1	-6
677.060	1	5
677.399	1	-3
677.738	1	-4
678.077	1	8
678.416	1	2
678.754	1	-2
679.093	1	6
679.432	1	-13
679.771	1	4
680.109	1	1
680.448	1	-3
680.787	1	2
681.125	1	10
681.464	1	-4
681.803	1	-9
682.142	1	14
682.480	1	0
682.819	1	-1
683.158	1	0
683.496	1	1
683.835	1	7
684.174	1	2
684.512	1	7
684.851	1	-4
685.190	1	12
685.529	1	1
685.867	1	-3
686.206	1	2
686.545	1	6
686.883	1	2
687.222	1	-9
687.561	1	2
687.899	1	2
688.238	1	2
688.577	1	-3
688.746	1	-3