File: Analysis/GaN_68K_200ms/GaN_sample E_spot4_UVVIS_68 K_200um_200 ms 2x2mm1_168.txt
340.368	1	13
340.710	1	2
341.052	1	10
341.394	1	-2
341.737	1	13
342.079	1	5
342.421	1	-2
342.763	1	3
343.105	1	20
343.447	1	14
343.789	1	1
344.131	1	1
344.473	1	10
344.815	1	11
345.157	1	4
345.499	1	9
345.841	1	5
346.183	1	5
346.526	1	9
346.868	1	2
347.210	1	1
347.552	1	6
347.894	1	5
348.236	1	7
348.578	1	3
348.920	1	20
349.262	1	9
349.604	1	16
349.946	1	13
350.288	1	4
350.630	1	-9
350.972	1	7
351.314	1	-2
351.656	1	7
351.998	1	-3
352.340	1	-1
352.682	1	1
353.024	1	1
353.366	1	9
353.708	1	7
354.050	1	12
354.392	1	10
354.734	1	12
355.076	1	1
355.418	1	8
355.760	1	13
356.102	1	7
356.444	1	9
356.785	1	20
357.127	1	10
357.469	1	6
357.811	1	20
358.153	1	12
358.495	1	16
358.837	1	13
359.179	1	8
359.521	1	4
359.863	1	2
360.205	1	3
360.547	1	5
360.889	1	23
361.231	1	11
361.572	1	15
361.914	1	10
362.256	1	16
362.598	1	19
362.940	1	21
363.282	1	14
363.624	1	29
363.966	1	33
364.308	1	32
364.649	1	24
364.991	1	31
365.333	1	38
365.675	1	34
366.017	1	31
366.359	1	42
366.701	1	39
367.042	1	45
367.384	1	50
367.726	1	49
368.068	1	29
368.410	1	35
368.752	1	24
369.093	1	41
369.435	1	33
369.777	1	19
370.119	1	37
370.461	1	31
370.803	1	22
371.144	1	37
371.486	1	17
371.828	1	16
372.170	1	30
372.512	1	15
372.853	1	26
373.195	1	6
373.537	1	24
373.879	1	30
374.220	1	25
374.562	1	15
374.904	1	25
375.246	1	17
375.588	1	25
375.929	1	23
376.271	1	7
376.613	1	16
376.955	1	11
377.296	1	22
377.638	1	13
377.980	1	22
378.321	1	14
378.663	1	4
379.005	1	26
379.347	1	15
379.688	1	6
380.030	1	9
380.372	1	11
380.714	1	11
381.055	1	14
381.397	1	14
381.739	1	26
382.080	1	7
382.422	1	22
382.764	1	16
383.105	1	27
383.447	1	32
383.789	1	26
384.130	1	26
384.472	1	20
384.814	1	38
385.156	1	38
385.497	1	52
385.839	1	42
386.180	1	41
386.522	1	53
386.864	1	46
387.205	1	43
387.547	1	43
387.889	1	51
388.230	1	47
388.572	1	34
388.914	1	47
389.255	1	47
389.597	1	32
389.939	1	43
390.280	1	50
390.622	1	26
390.963	1	43
391.305	1	47
391.647	1	43
391.988	1	29
392.330	1	44
392.671	1	43
393.013	1	40
393.355	1	54
393.696	1	37
394.038	1	34
394.379	1	25
394.721	1	42
395.062	1	28
395.404	1	36
395.746	1	35
396.087	1	41
396.429	1	42
396.770	1	37
397.112	1	34
397.453	1	33
397.795	1	31
398.136	1	43
398.478	1	42
398.819	1	54
399.161	1	34
399.503	1	29
399.844	1	40
400.186	1	37
400.527	1	31
400.869	1	42
401.210	1	17
401.552	1	46
401.893	1	36
402.235	1	35
402.576	1	32
402.918	1	21
403.259	1	20
403.601	1	24
403.942	1	27
404.284	1	24
404.625	1	37
404.967	1	34
405.308	1	23
405.649	1	25
405.991	1	24
406.332	1	25
406.674	1	19
407.015	1	17
407.357	1	17
407.698	1	14
408.040	1	26
408.381	1	33
408.722	1	24
409.064	1	17
409.405	1	17
409.747	1	25
410.088	1	22
410.430	1	30
410.771	1	32
411.112	1	30
411.454	1	38
411.795	1	30
412.137	1	25
412.478	1	21
412.819	1	24
413.161	1	14
413.502	1	8
413.844	1	23
414.185	1	31
414.526	1	19
414.868	1	24
415.209	1	23
415.550	1	12
415.892	1	14
416.233	1	12
416.575	1	18
416.916	1	21
417.257	1	28
417.599	1	25
417.940	1	4
418.281	1	17
418.623	1	24
418.964	1	16
419.305	1	15
419.647	1	21
419.988	1	16
420.329	1	22
420.671	1	15
421.012	1	26
421.353	1	19
421.695	1	16
422.036	1	19
422.377	1	17
422.718	1	8
423.060	1	12
423.401	1	5
423.742	1	8
424.084	1	18
424.425	1	9
424.766	1	21
425.107	1	13
425.449	1	11
425.790	1	15
426.131	1	13
426.472	1	6
426.814	1	22
427.155	1	13
427.496	1	21
427.837	1	10
428.179	1	11
428.520	1	7
428.861	1	17
429.202	1	14
429.544	1	16
429.885	1	9
430.226	1	14
430.567	1	16
430.909	1	11
431.250	1	5
431.591	1	10
431.932	1	18
432.273	1	6
432.615	1	19
432.956	1	3
433.297	1	18
433.638	1	7
433.979	1	9
434.320	1	10
434.662	1	3
435.003	1	17
435.344	1	22
435.685	1	26
436.026	1	4
436.368	1	2
436.709	1	16
437.050	1	12
437.391	1	12
437.732	1	8
438.073	1	10
438.414	1	14
438.756	1	15
439.097	1	15
439.438	1	14
439.779	1	8
440.120	1	11
440.461	1	1
440.802	1	14
441.143	1	23
441.485	1	5
441.826	1	11
442.167	1	12
442.508	1	17
442.849	1	25
443.190	1	2
443.531	1	11
443.872	1	3
444.213	1	8
444.554	1	1
444.895	1	2
445.237	1	4
445.578	1	17
445.919	1	6
446.260	1	13
446.601	1	-2
446.942	1	16
447.283	1	9
447.624	1	22
447.965	1	8
448.306	1	14
448.647	1	16
448.988	1	-7
449.329	1	9
449.670	1	15
450.011	1	13
450.352	1	17
450.693	1	14
451.034	1	16
451.375	1	11
451.716	1	13
452.057	1	19
452.398	1	12
452.739	1	7
453.080	1	18
453.421	1	0
453.762	1	10
454.103	1	-1
454.444	1	13
454.785	1	5
455.126	1	8
455.467	1	0
455.808	1	7
456.149	1	6
456.490	1	14
456.831	1	18
457.172	1	11
457.513	1	8
457.854	1	13
458.195	1	1
458.536	1	6
458.877	1	6
459.218	1	14
459.559	1	8
459.899	1	15
460.240	1	4
460.581	1	5
460.922	1	2
461.263	1	13
461.604	1	10
461.945	1	24
462.286	1	15
462.627	1	0
462.968	1	10
463.309	1	11
463.649	1	5
463.990	1	12
464.331	1	11
464.672	1	9
465.013	1	5
465.354	1	3
465.695	1	11
466.036	1	12
466.376	1	0
466.717	1	-6
467.058	1	10
467.399	1	7
467.740	1	0
468.081	1	14
468.422	1	11
468.762	1	3
469.103	1	6
469.444	1	1
469.785	1	8
470.126	1	1
470.467	1	2
470.807	1	5
471.148	1	10
471.489	1	1
471.830	1	16
472.171	1	1
472.511	1	16
472.852	1	5
473.193	1	-1
473.534	1	10
473.875	1	13
474.215	1	0
474.556	1	5
474.897	1	13
475.238	1	-3
475.578	1	12
475.919	1	8
476.260	1	5
476.601	1	6
476.942	1	7
477.282	1	0
477.623	1	15
477.964	1	21
478.305	1	8
478.645	1	6
478.986	1	3
479.327	1	2
479.667	1	10
480.008	1	15
480.349	1	16
480.690	1	12
481.030	1	-6
481.371	1	8
481.712	1	19
482.053	1	17
482.393	1	-5
482.734	1	11
483.075	1	13
483.415	1	13
483.756	1	14
484.097	1	2
484.437	1	-4
484.778	1	7
485.119	1	12
485.459	1	11
485.800	1	1
486.141	1	5
486.481	1	7
486.822	1	3
487.163	1	5
487.503	1	7
487.844	1	-1
488.185	1	2
488.525	1	8
488.866	1	16
489.207	1	14
489.547	1	1
489.888	1	5
490.228	1	6
490.569	1	19
490.910	1	6
491.250	1	9
491.591	1	-7
491.932	1	22
492.272	1	12
492.613	1	10
492.953	1	8
493.294	1	17
493.635	1	4
493.975	1	7
494.316	1	22
494.656	1	7
494.997	1	8
495.337	1	16
495.678	1	18
496.019	1	-3
496.359	1	6
496.700	1	18
497.040	1	4
497.381	1	-5
497.721	1	9
498.062	1	6
498.403	1	14
498.743	1	17
499.084	1	1
499.424	1	16
499.765	1	7
500.105	1	10
500.446	1	25
500.786	1	11
501.127	1	20
501.467	1	11
501.808	1	10
502.148	1	27
502.489	1	16
502.829	1	12
503.170	1	10
503.510	1	11
503.851	1	3
504.191	1	16
504.532	1	-5
504.872	1	5
505.213	1	17
505.553	1	14
505.894	1	17
506.234	1	23
506.575	1	12
506.915	1	10
507.256	1	14
507.596	1	24
507.936	1	19
508.277	1	22
508.617	1	21
508.958	1	25
509.298	1	26
509.639	1	19
509.979	1	12
510.319	1	17
510.660	1	15
511.000	1	25
511.341	1	14
511.681	1	17
512.022	1	14
512.362	1	22
512.702	1	11
513.043	1	15
513.383	1	14
513.724	1	27
514.064	1	26
514.404	1	22
514.745	1	23
515.085	1	25
515.425	1	20
515.766	1	24
516.106	1	25
516.447	1	25
516.787	1	15
517.127	1	22
517.468	1	24
517.808	1	17
518.148	1	27
518.489	1	36
518.829	1	19
519.169	1	25
519.510	1	33
519.850	1	16
520.190	1	42
520.531	1	18
520.871	1	22
521.211	1	27
521.552	1	32
521.892	1	23
522.232	1	15
522.573	1	26
522.913	1	34
523.253	1	24
523.593	1	18
523.934	1	24
524.274	1	22
524.614	1	36
524.955	1	22
525.295	1	21
525.635	1	26
525.975	1	22
526.316	1	26
526.656	1	41
526.996	1	34
527.337	1	30
527.677	1	40
528.017	1	21
528.357	1	34
528.698	1	20
529.038	1	32
529.378	1	32
529.718	1	43
530.058	1	36
530.399	1	23
530.739	1	31
531.079	1	43
531.419	1	34
531.760	1	44
532.100	1	37
532.440	1	22
532.780	1	27
533.120	1	22
533.461	1	42
533.801	1	32
534.141	1	39
534.481	1	23
534.821	1	29
535.162	1	28
535.502	1	31
535.842	1	31
536.182	1	37
536.522	1	35
536.862	1	30
537.203	1	31
537.543	1	21
537.883	1	30
538.223	1	35
538.563	1	29
538.903	1	23
539.243	1	27
539.584	1	27
539.924	1	40
540.264	1	33
540.604	1	27
540.944	1	31
541.284	1	17
541.624	1	29
541.964	1	40
542.305	1	17
542.645	1	30
542.985	1	18
543.325	1	25
543.665	1	30
544.005	1	25
544.345	1	13
544.685	1	31
545.025	1	14
545.365	1	39
545.705	1	35
546.045	1	37
546.386	1	27
546.726	1	27
547.066	1	13
547.406	1	33
547.746	1	28
548.086	1	26
548.426	1	27
548.766	1	27
549.106	1	37
549.446	1	20
549.786	1	35
550.126	1	25
550.466	1	8
550.806	1	35
551.146	1	14
551.486	1	30
551.826	1	29
552.166	1	31
552.506	1	15
552.846	1	28
553.186	1	23
553.526	1	20
553.866	1	27
554.206	1	20
554.546	1	18
554.886	1	25
555.226	1	17
555.566	1	25
555.906	1	28
556.246	1	29
556.586	1	26
556.926	1	23
557.266	1	29
557.606	1	0
557.946	1	20
558.286	1	31
558.626	1	26
558.966	1	21
559.306	1	9
559.646	1	15
559.986	1	14
560.325	1	8
560.665	1	19
561.005	1	21
561.345	1	15
561.685	1	13
562.025	1	12
562.365	1	10
562.705	1	20
563.045	1	27
563.385	1	7
563.725	1	18
564.064	1	19
564.404	1	16
564.744	1	21
565.084	1	11
565.424	1	12
565.764	1	30
566.104	1	10
566.444	1	15
566.783	1	10
567.123	1	21
567.463	1	16
567.803	1	15
568.143	1	16
568.483	1	14
568.823	1	20
569.162	1	18
569.502	1	16
569.842	1	10
570.182	1	17
570.522	1	25
570.862	1	21
571.201	1	15
571.541	1	6
571.881	1	26
572.221	1	17
572.561	1	1
572.900	1	27
573.240	1	8
573.580	1	15
573.920	1	8
574.260	1	16
574.599	1	3
574.939	1	12
575.279	1	22
575.619	1	25
575.959	1	3
576.298	1	7
576.638	1	7
576.978	1	11
577.318	1	12
577.657	1	-7
577.997	1	1
578.337	1	9
578.677	1	4
579.016	1	18
579.356	1	1
579.696	1	7
580.036	1	10
580.375	1	7
580.715	1	13
581.055	1	16
581.394	1	8
581.734	1	11
582.074	1	21
582.414	1	13
582.753	1	10
583.093	1	7
583.433	1	3
583.772	1	14
584.112	1	11
584.452	1	8
584.791	1	10
585.131	1	5
585.471	1	10
585.811	1	10
586.150	1	12
586.490	1	4
586.830	1	0
587.169	1	11
587.509	1	10
587.849	1	12
588.188	1	16
588.528	1	16
588.867	1	12
589.207	1	-7
589.547	1	4
589.886	1	2
590.226	1	8
590.566	1	7
590.905	1	8
591.245	1	7
591.585	1	12
591.924	1	8
592.264	1	7
592.603	1	9
592.943	1	8
593.283	1	9
593.622	1	-1
593.962	1	12
594.301	1	27
594.641	1	-2
594.981	1	2
595.320	1	12
595.660	1	-2
595.999	1	4
596.339	1	9
596.678	1	15
597.018	1	6
597.358	1	11
597.697	1	-1
598.037	1	13
598.376	1	13
598.716	1	-7
599.055	1	6
599.395	1	18
599.734	1	1
600.074	1	1
600.413	1	8
600.753	1	8
601.092	1	-1
601.432	1	9
601.771	1	10
602.111	1	2
602.451	1	4
602.790	1	14
603.130	1	7
603.469	1	5
603.809	1	15
604.148	1	12
604.487	1	13
604.827	1	-11
605.166	1	3
605.506	1	4
605.845	1	6
606.185	1	2
606.524	1	4
606.864	1	3
607.203	1	11
607.543	1	4
607.882	1	5
608.222	1	7
608.561	1	13
608.901	1	11
609.240	1	11
609.579	1	10
609.919	1	3
610.258	1	15
610.598	1	20
610.937	1	10
611.277	1	8
611.616	1	-12
611.955	1	8
612.295	1	6
612.634	1	8
612.974	1	2
613.313	1	9
613.652	1	0
613.992	1	15
614.331	1	3
614.671	1	6
615.010	1	10
615.349	1	11
615.689	1	12
616.028	1	-8
616.368	1	-1
616.707	1	1
617.046	1	5
617.386	1	2
617.725	1	14
618.064	1	6
618.404	1	12
618.743	1	8
619.082	1	9
619.422	1	7
619.761	1	14
620.100	1	8
620.440	1	9
620.779	1	2
621.118	1	7
621.458	1	4
621.797	1	0
622.136	1	7
622.476	1	7
622.815	1	4
623.154	1	11
623.494	1	-1
623.833	1	7
624.172	1	16
624.511	1	6
624.851	1	-4
625.190	1	15
625.529	1	22
625.869	1	6
626.208	1	2
626.547	1	4
626.886	1	1
627.226	1	8
627.565	1	14
627.904	1	7
628.243	1	-5
628.583	1	6
628.922	1	2
629.261	1	5
629.600	1	11
629.940	1	4
630.279	1	-5
630.618	1	3
630.957	1	4
631.297	1	-3
631.636	1	6
631.975	1	11
632.314	1	18
632.653	1	1
632.993	1	12
633.332	1	4
633.671	1	4
634.010	1	8
634.349	1	3
634.689	1	17
635.028	1	-1
635.367	1	-2
635.706	1	8
636.045	1	9
636.384	1	11
636.724	1	6
637.063	1	7
637.402	1	13
637.741	1	17
638.080	1	0
638.419	1	13
638.759	1	8
639.098	1	3
639.437	1	-6
639.776	1	-1
640.115	1	3
640.454	1	11
640.793	1	8
641.132	1	9
641.472	1	1
641.811	1	2
642.150	1	15
642.489	1	6
642.828	1	5
643.167	1	19
643.506	1	0
643.845	1	5
644.184	1	10
644.524	1	-8
644.863	1	6
645.202	1	8
645.541	1	7
645.880	1	4
646.219	1	0
646.558	1	4
646.897	1	-1
647.236	1	6
647.575	1	9
647.914	1	2
648.253	1	5
648.592	1	10
648.931	1	9
649.270	1	18
649.610	1	19
649.949	1	7
650.288	1	-2
650.627	1	7
650.966	1	4
651.305	1	4
651.644	1	4
651.983	1	6
652.322	1	12
652.661	1	3
653.000	1	4
653.339	1	16
653.678	1	5
654.017	1	5
654.356	1	8
654.695	1	7
655.034	1	6
655.373	1	1
655.712	1	-4
656.051	1	9
656.390	1	8
656.729	1	4
657.068	1	6
657.406	1	18
657.745	1	-3
658.084	1	8
658.423	1	-4
658.762	1	4
659.101	1	0
659.440	1	16
659.779	1	2
660.118	1	5
660.457	1	1
660.796	1	2
661.135	1	8
661.474	1	8
661.813	1	-6
662.152	1	6
662.491	1	4
662.829	1	-8
663.168	1	-1
663.507	1	-5
663.846	1	10
664.185	1	0
664.524	1	-4
664.863	1	8
665.202	1	-2
665.541	1	-4
665.879	1	6
666.218	1	4
666.557	1	8
666.896	1	-1
667.235	1	0
667.574	1	11
667.913	1	7
668.251	1	1
668.590	1	0
668.929	1	8
669.268	1	0
669.607	1	-12
669.946	1	8
670.285	1	7
670.623	1	13
670.962	1	4
671.301	1	4
671.640	1	-8
671.979	1	11
672.317	1	-1
672.656	1	8
672.995	1	9
673.334	1	15
673.673	1	13
674.011	1	3
674.350	1	8
674.689	1	8
675.028	1	-3
675.367	1	1
675.705	1	-4
676.044	1	-5
676.383	1	6
676.722	1	6
677.060	1	7
677.399	1	9
677.738	1	3
678.077	1	17
678.416	1	15
678.754	1	3
679.093	1	1
679.432	1	3
679.771	1	9
680.109	1	15
680.448	1	7
680.787	1	2
681.125	1	8
681.464	1	4
681.803	1	-6
682.142	1	8
682.480	1	-7
682.819	1	13
683.158	1	6
683.496	1	9
683.835	1	3
684.174	1	-3
684.512	1	7
684.851	1	0
685.190	1	9
685.529	1	3
685.867	1	1
686.206	1	10
686.545	1	8
686.883	1	1
687.222	1	7
687.561	1	1
687.899	1	7
688.238	1	3
688.577	1	6
688.746	1	4