File: Analysis/GaN_68K_200ms/GaN_sample E_spot4_UVVIS_68 K_200um_200 ms 2x2mm1_811.txt
340.368	1	-6
340.710	1	-11
341.052	1	2
341.394	1	1
341.737	1	7
342.079	1	-12
342.421	1	-5
342.763	1	2
343.105	1	11
343.447	1	7
343.789	1	-2
344.131	1	-2
344.473	1	-16
344.815	1	2
345.157	1	6
345.499	1	10
345.841	1	-4
346.183	1	4
346.526	1	1
346.868	1	-8
347.210	1	4
347.552	1	0
347.894	1	-1
348.236	1	3
348.578	1	-2
348.920	1	6
349.262	1	-8
349.604	1	9
349.946	1	4
350.288	1	2
350.630	1	-6
350.972	1	-5
351.314	1	-1
351.656	1	0
351.998	1	-4
352.340	1	0
352.682	1	4
353.024	1	-6
353.366	1	5
353.708	1	5
354.050	1	-2
354.392	1	-1
354.734	1	2
355.076	1	12
355.418	1	-14
355.760	1	-4
356.102	1	-6
356.444	1	13
356.785	1	10
357.127	1	-14
357.469	1	-4
357.811	1	17
358.153	1	6
358.495	1	-1
358.837	1	-5
359.179	1	-3
359.521	1	-2
359.863	1	-14
360.205	1	0
360.547	1	-5
360.889	1	-1
361.231	1	2
361.572	1	-1
361.914	1	8
362.256	1	0
362.598	1	4
362.940	1	-4
363.282	1	2
363.624	1	-3
363.966	1	8
364.308	1	-3
364.649	1	-3
364.991	1	7
365.333	1	8
365.675	1	-3
366.017	1	9
366.359	1	2
366.701	1	-10
367.042	1	4
367.384	1	8
367.726	1	13
368.068	1	-3
368.410	1	-4
368.752	1	-7
369.093	1	-3
369.435	1	6
369.777	1	-2
370.119	1	9
370.461	1	1
370.803	1	-5
371.144	1	10
371.486	1	6
371.828	1	-4
372.170	1	8
372.512	1	1
372.853	1	-11
373.195	1	-9
373.537	1	-1
373.879	1	4
374.220	1	1
374.562	1	-2
374.904	1	3
375.246	1	-8
375.588	1	-2
375.929	1	7
376.271	1	-2
376.613	1	-3
376.955	1	-5
377.296	1	5
377.638	1	1
377.980	1	1
378.321	1	13
378.663	1	-4
379.005	1	9
379.347	1	0
379.688	1	-4
380.030	1	3
380.372	1	1
380.714	1	2
381.055	1	-4
381.397	1	-4
381.739	1	8
382.080	1	-4
382.422	1	11
382.764	1	-11
383.105	1	-1
383.447	1	11
383.789	1	9
384.130	1	0
384.472	1	-13
384.814	1	6
385.156	1	11
385.497	1	14
385.839	1	0
386.180	1	-5
386.522	1	1
386.864	1	-2
387.205	1	-1
387.547	1	0
387.889	1	10
388.230	1	-3
388.572	1	11
388.914	1	4
389.255	1	0
389.597	1	0
389.939	1	8
390.280	1	14
390.622	1	-4
390.963	1	8
391.305	1	11
391.647	1	-3
391.988	1	3
392.330	1	3
392.671	1	11
393.013	1	7
393.355	1	10
393.696	1	2
394.038	1	2
394.379	1	-4
394.721	1	6
395.062	1	-2
395.404	1	15
395.746	1	2
396.087	1	-7
396.429	1	0
396.770	1	3
397.112	1	-7
397.453	1	-9
397.795	1	8
398.136	1	4
398.478	1	-1
398.819	1	14
399.161	1	8
399.503	1	4
399.844	1	0
400.186	1	8
400.527	1	0
400.869	1	10
401.210	1	-4
401.552	1	14
401.893	1	2
402.235	1	10
402.576	1	15
402.918	1	0
403.259	1	-8
403.601	1	-10
403.942	1	2
404.284	1	-4
404.625	1	16
404.967	1	-3
405.308	1	3
405.649	1	2
405.991	1	9
406.332	1	-12
406.674	1	7
407.015	1	-4
407.357	1	16
407.698	1	-12
408.040	1	-9
408.381	1	-3
408.722	1	0
409.064	1	-4
409.405	1	9
409.747	1	-4
410.088	1	-1
410.430	1	6
410.771	1	0
411.112	1	1
411.454	1	13
411.795	1	7
412.137	1	6
412.478	1	10
412.819	1	-12
413.161	1	-2
413.502	1	0
413.844	1	1
414.185	1	-5
414.526	1	7
414.868	1	8
415.209	1	-1
415.550	1	-7
415.892	1	-2
416.233	1	5
416.575	1	-3
416.916	1	4
417.257	1	4
417.599	1	2
417.940	1	-2
418.281	1	5
418.623	1	-7
418.964	1	7
419.305	1	1
419.647	1	3
419.988	1	1
420.329	1	3
420.671	1	3
421.012	1	10
421.353	1	0
421.695	1	7
422.036	1	-9
422.377	1	10
422.718	1	-1
423.060	1	2
423.401	1	2
423.742	1	3
424.084	1	6
424.425	1	5
424.766	1	2
425.107	1	1
425.449	1	2
425.790	1	0
426.131	1	-3
426.472	1	-9
426.814	1	6
427.155	1	2
427.496	1	4
427.837	1	-10
428.179	1	-8
428.520	1	-2
428.861	1	4
429.202	1	11
429.544	1	-5
429.885	1	-7
430.226	1	3
430.567	1	11
430.909	1	-6
431.250	1	-8
431.591	1	-2
431.932	1	1
432.273	1	-6
432.615	1	-4
432.956	1	-1
433.297	1	9
433.638	1	-1
433.979	1	-3
434.320	1	0
434.662	1	-2
435.003	1	9
435.344	1	3
435.685	1	6
436.026	1	9
436.368	1	5
436.709	1	-8
437.050	1	-1
437.391	1	2
437.732	1	2
438.073	1	1
438.414	1	3
438.756	1	9
439.097	1	8
439.438	1	5
439.779	1	-3
440.120	1	5
440.461	1	-3
440.802	1	-2
441.143	1	9
441.485	1	-4
441.826	1	-10
442.167	1	1
442.508	1	-3
442.849	1	12
443.190	1	-7
443.531	1	5
443.872	1	-3
444.213	1	-10
444.554	1	-1
444.895	1	2
445.237	1	-5
445.578	1	7
445.919	1	0
446.260	1	1
446.601	1	-2
446.942	1	2
447.283	1	-2
447.624	1	4
447.965	1	-5
448.306	1	-3
448.647	1	20
448.988	1	-19
449.329	1	8
449.670	1	9
450.011	1	6
450.352	1	8
450.693	1	-1
451.034	1	0
451.375	1	11
451.716	1	1
452.057	1	13
452.398	1	3
452.739	1	-1
453.080	1	15
453.421	1	5
453.762	1	-1
454.103	1	-6
454.444	1	4
454.785	1	-5
455.126	1	3
455.467	1	10
455.808	1	11
456.149	1	-4
456.490	1	2
456.831	1	4
457.172	1	2
457.513	1	0
457.854	1	-1
458.195	1	-2
458.536	1	2
458.877	1	-2
459.218	1	-1
459.559	1	4
459.899	1	9
460.240	1	-1
460.581	1	-1
460.922	1	-8
461.263	1	1
461.604	1	5
461.945	1	6
462.286	1	3
462.627	1	-1
462.968	1	-8
463.309	1	2
463.649	1	8
463.990	1	-2
464.331	1	1
464.672	1	-6
465.013	1	-13
465.354	1	7
465.695	1	7
466.036	1	4
466.376	1	-6
466.717	1	-12
467.058	1	8
467.399	1	3
467.740	1	-1
468.081	1	-2
468.422	1	5
468.762	1	-6
469.103	1	-4
469.444	1	-9
469.785	1	15
470.126	1	5
470.467	1	5
470.807	1	7
471.148	1	-1
471.489	1	-5
471.830	1	10
472.171	1	1
472.511	1	7
472.852	1	1
473.193	1	-5
473.534	1	-6
473.875	1	2
474.215	1	-9
474.556	1	-8
474.897	1	-1
475.238	1	-3
475.578	1	0
475.919	1	0
476.260	1	-5
476.601	1	4
476.942	1	-5
477.282	1	-13
477.623	1	10
477.964	1	10
478.305	1	7
478.645	1	-11
478.986	1	3
479.327	1	-10
479.667	1	-2
480.008	1	6
480.349	1	4
480.690	1	7
481.030	1	-6
481.371	1	-3
481.712	1	15
482.053	1	5
482.393	1	-7
482.734	1	-2
483.075	1	0
483.415	1	10
483.756	1	8
484.097	1	-10
484.437	1	-13
484.778	1	-3
485.119	1	1
485.459	1	6
485.800	1	-1
486.141	1	-11
486.481	1	3
486.822	1	3
487.163	1	-2
487.503	1	-8
487.844	1	10
488.185	1	-9
488.525	1	-7
488.866	1	7
489.207	1	9
489.547	1	-6
489.888	1	-1
490.228	1	-11
490.569	1	6
490.910	1	-1
491.250	1	2
491.591	1	-17
491.932	1	1
492.272	1	7
492.613	1	10
492.953	1	6
493.294	1	2
493.635	1	0
493.975	1	-2
494.316	1	7
494.656	1	-7
494.997	1	-2
495.337	1	5
495.678	1	8
496.019	1	-5
496.359	1	-2
496.700	1	2
497.040	1	2
497.381	1	-17
497.721	1	-5
498.062	1	-7
498.403	1	2
498.743	1	-1
499.084	1	-12
499.424	1	12
499.765	1	-6
500.105	1	8
500.446	1	0
500.786	1	14
501.127	1	7
501.467	1	7
501.808	1	-10
502.148	1	-1
502.489	1	1
502.829	1	1
503.170	1	5
503.510	1	-1
503.851	1	-18
504.191	1	8
504.532	1	-12
504.872	1	-5
505.213	1	-8
505.553	1	10
505.894	1	6
506.234	1	11
506.575	1	-3
506.915	1	3
507.256	1	0
507.596	1	-3
507.936	1	14
508.277	1	-5
508.617	1	5
508.958	1	10
509.298	1	11
509.639	1	6
509.979	1	3
510.319	1	-1
510.660	1	6
511.000	1	5
511.341	1	-2
511.681	1	1
512.022	1	-3
512.362	1	1
512.702	1	-11
513.043	1	5
513.383	1	-5
513.724	1	21
514.064	1	10
514.404	1	-3
514.745	1	-12
515.085	1	0
515.425	1	-8
515.766	1	6
516.106	1	1
516.447	1	-2
516.787	1	-8
517.127	1	-7
517.468	1	3
517.808	1	-11
518.148	1	-7
518.489	1	-1
518.829	1	-7
519.169	1	2
519.510	1	0
519.850	1	-10
520.190	1	-4
520.531	1	4
520.871	1	0
521.211	1	-1
521.552	1	2
521.892	1	-2
522.232	1	-9
522.573	1	-2
522.913	1	2
523.253	1	4
523.593	1	-5
523.934	1	2
524.274	1	-4
524.614	1	-7
524.955	1	3
525.295	1	-4
525.635	1	7
525.975	1	-8
526.316	1	1
526.656	1	20
526.996	1	6
527.337	1	-6
527.677	1	19
528.017	1	-9
528.357	1	9
528.698	1	1
529.038	1	3
529.378	1	-3
529.718	1	10
530.058	1	-3
530.399	1	1
530.739	1	3
531.079	1	6
531.419	1	11
531.760	1	13
532.100	1	4
532.440	1	3
532.780	1	-4
533.120	1	4
533.461	1	10
533.801	1	-3
534.141	1	3
534.481	1	-2
534.821	1	4
535.162	1	5
535.502	1	0
535.842	1	7
536.182	1	0
536.522	1	7
536.862	1	-1
537.203	1	12
537.543	1	9
537.883	1	10
538.223	1	14
538.563	1	-4
538.903	1	0
539.243	1	-7
539.584	1	-2
539.924	1	0
540.264	1	5
540.604	1	9
540.944	1	-1
541.284	1	4
541.624	1	0
541.964	1	-4
542.305	1	-7
542.645	1	4
542.985	1	-6
543.325	1	0
543.665	1	7
544.005	1	4
544.345	1	-4
544.685	1	3
545.025	1	2
545.365	1	3
545.705	1	4
546.045	1	9
546.386	1	4
546.726	1	-5
547.066	1	-3
547.406	1	3
547.746	1	2
548.086	1	6
548.426	1	-2
548.766	1	12
549.106	1	-4
549.446	1	-2
549.786	1	5
550.126	1	1
550.466	1	-8
550.806	1	6
551.146	1	-1
551.486	1	7
551.826	1	-1
552.166	1	-5
552.506	1	-6
552.846	1	-4
553.186	1	-2
553.526	1	-3
553.866	1	7
554.206	1	-1
554.546	1	-13
554.886	1	2
555.226	1	0
555.566	1	1
555.906	1	-3
556.246	1	-1
556.586	1	5
556.926	1	8
557.266	1	7
557.606	1	-11
557.946	1	7
558.286	1	4
558.626	1	-2
558.966	1	8
559.306	1	-6
559.646	1	0
559.986	1	-1
560.325	1	-15
560.665	1	0
561.005	1	5
561.345	1	-5
561.685	1	4
562.025	1	-10
562.365	1	-5
562.705	1	9
563.045	1	13
563.385	1	0
563.725	1	0
564.064	1	2
564.404	1	-7
564.744	1	6
565.084	1	-12
565.424	1	3
565.764	1	9
566.104	1	-1
566.444	1	2
566.783	1	5
567.123	1	13
567.463	1	3
567.803	1	-2
568.143	1	-9
568.483	1	-4
568.823	1	9
569.162	1	0
569.502	1	4
569.842	1	3
570.182	1	-5
570.522	1	3
570.862	1	2
571.201	1	-1
571.541	1	-4
571.881	1	3
572.221	1	0
572.561	1	3
572.900	1	14
573.240	1	-11
573.580	1	-4
573.920	1	2
574.260	1	1
574.599	1	3
574.939	1	-7
575.279	1	5
575.619	1	15
575.959	1	-7
576.298	1	-11
576.638	1	-8
576.978	1	1
577.318	1	6
577.657	1	-6
577.997	1	-1
578.337	1	0
578.677	1	-5
579.016	1	5
579.356	1	-14
579.696	1	-1
580.036	1	-4
580.375	1	0
580.715	1	-3
581.055	1	5
581.394	1	3
581.734	1	0
582.074	1	-5
582.414	1	3
582.753	1	1
583.093	1	-9
583.433	1	-3
583.772	1	2
584.112	1	2
584.452	1	6
584.791	1	0
585.131	1	-1
585.471	1	0
585.811	1	-5
586.150	1	0
586.490	1	-3
586.830	1	-18
587.169	1	6
587.509	1	4
587.849	1	8
588.188	1	-11
588.528	1	1
588.867	1	-2
589.207	1	-10
589.547	1	-3
589.886	1	-9
590.226	1	1
590.566	1	-8
590.905	1	8
591.245	1	2
591.585	1	-7
591.924	1	5
592.264	1	-12
592.603	1	-4
592.943	1	0
593.283	1	7
593.622	1	2
593.962	1	9
594.301	1	11
594.641	1	3
594.981	1	-4
595.320	1	10
595.660	1	-11
595.999	1	-2
596.339	1	3
596.678	1	-2
597.018	1	9
597.358	1	4
597.697	1	-6
598.037	1	1
598.376	1	5
598.716	1	-7
599.055	1	-1
599.395	1	10
599.734	1	-10
600.074	1	-5
600.413	1	-5
600.753	1	-3
601.092	1	-10
601.432	1	-4
601.771	1	8
602.111	1	-9
602.451	1	5
602.790	1	5
603.130	1	7
603.469	1	-5
603.809	1	8
604.148	1	0
604.487	1	-6
604.827	1	-5
605.166	1	-9
605.506	1	3
605.845	1	-1
606.185	1	1
606.524	1	-11
606.864	1	3
607.203	1	13
607.543	1	-14
607.882	1	-10
608.222	1	-3
608.561	1	1
608.901	1	5
609.240	1	0
609.579	1	-2
609.919	1	-6
610.258	1	3
610.598	1	3
610.937	1	-1
611.277	1	6
611.616	1	-3
611.955	1	2
612.295	1	9
612.634	1	-3
612.974	1	3
613.313	1	-1
613.652	1	-3
613.992	1	5
614.331	1	1
614.671	1	6
615.010	1	2
615.349	1	5
615.689	1	1
616.028	1	-2
616.368	1	3
616.707	1	-5
617.046	1	-1
617.386	1	5
617.725	1	-1
618.064	1	7
618.404	1	9
618.743	1	-1
619.082	1	2
619.422	1	5
619.761	1	5
620.100	1	4
620.440	1	-5
620.779	1	-2
621.118	1	3
621.458	1	3
621.797	1	3
622.136	1	6
622.476	1	0
622.815	1	-3
623.154	1	4
623.494	1	4
623.833	1	-3
624.172	1	9
624.511	1	1
624.851	1	-6
625.190	1	8
625.529	1	9
625.869	1	5
626.208	1	-7
626.547	1	5
626.886	1	-4
627.226	1	4
627.565	1	1
627.904	1	-6
628.243	1	-10
628.583	1	-6
628.922	1	3
629.261	1	9
629.600	1	7
629.940	1	0
630.279	1	-8
630.618	1	1
630.957	1	-6
631.297	1	0
631.636	1	-11
631.975	1	0
632.314	1	8
632.653	1	-8
632.993	1	5
633.332	1	9
633.671	1	-5
634.010	1	3
634.349	1	6
634.689	1	10
635.028	1	-2
635.367	1	4
635.706	1	-11
636.045	1	0
636.384	1	8
636.724	1	1
637.063	1	-3
637.402	1	7
637.741	1	0
638.080	1	0
638.419	1	1
638.759	1	7
639.098	1	-3
639.437	1	-4
639.776	1	12
640.115	1	-2
640.454	1	9
640.793	1	-2
641.132	1	9
641.472	1	-10
641.811	1	-6
642.150	1	-7
642.489	1	-2
642.828	1	5
643.167	1	4
643.506	1	-7
643.845	1	-1
644.184	1	9
644.524	1	0
644.863	1	-11
645.202	1	-2
645.541	1	-10
645.880	1	3
646.219	1	7
646.558	1	-6
646.897	1	-3
647.236	1	-2
647.575	1	3
647.914	1	-2
648.253	1	-1
648.592	1	1
648.931	1	6
649.270	1	10
649.610	1	7
649.949	1	-1
650.288	1	-12
650.627	1	-7
650.966	1	-1
651.305	1	-5
651.644	1	-1
651.983	1	-6
652.322	1	-1
652.661	1	-6
653.000	1	-1
653.339	1	0
653.678	1	1
654.017	1	-4
654.356	1	8
654.695	1	-1
655.034	1	-1
655.373	1	7
655.712	1	0
656.051	1	4
656.390	1	-2
656.729	1	3
657.068	1	-11
657.406	1	-1
657.745	1	-4
658.084	1	5
658.423	1	3
658.762	1	-7
659.101	1	-1
659.440	1	4
659.779	1	-1
660.118	1	-6
660.457	1	4
660.796	1	-8
661.135	1	9
661.474	1	5
661.813	1	4
662.152	1	4
662.491	1	-7
662.829	1	-3
663.168	1	-5
663.507	1	7
663.846	1	2
664.185	1	-2
664.524	1	-4
664.863	1	-10
665.202	1	-8
665.541	1	-5
665.879	1	5
666.218	1	-9
666.557	1	4
666.896	1	-3
667.235	1	1
667.574	1	5
667.913	1	6
668.251	1	-3
668.590	1	-9
668.929	1	0
669.268	1	0
669.607	1	-14
669.946	1	6
670.285	1	0
670.623	1	3
670.962	1	0
671.301	1	-5
671.640	1	-7
671.979	1	7
672.317	1	-12
672.656	1	6
672.995	1	4
673.334	1	-1
673.673	1	7
674.011	1	3
674.350	1	-8
674.689	1	-7
675.028	1	1
675.367	1	5
675.705	1	-11
676.044	1	-6
676.383	1	-1
676.722	1	6
677.060	1	-4
677.399	1	-6
677.738	1	-2
678.077	1	-6
678.416	1	-2
678.754	1	-2
679.093	1	-1
679.432	1	-9
679.771	1	4
680.109	1	11
680.448	1	-10
680.787	1	3
681.125	1	6
681.464	1	-7
681.803	1	-20
682.142	1	13
682.480	1	0
682.819	1	4
683.158	1	0
683.496	1	-2
683.835	1	1
684.174	1	0
684.512	1	4
684.851	1	2
685.190	1	9
685.529	1	1
685.867	1	3
686.206	1	5
686.545	1	1
686.883	1	-9
687.222	1	0
687.561	1	0
687.899	1	1
688.238	1	-3
688.577	1	2
688.746	1	1