File: Analysis/GaN_68K_200ms/GaN_sample E_spot4_UVVIS_68 K_200um_200 ms 2x2mm1_31.txt
340.368	1	-3
340.710	1	-11
341.052	1	-2
341.394	1	-1
341.737	1	7
342.079	1	-1
342.421	1	0
342.763	1	-1
343.105	1	11
343.447	1	1
343.789	1	-4
344.131	1	0
344.473	1	-6
344.815	1	4
345.157	1	-5
345.499	1	11
345.841	1	-2
346.183	1	4
346.526	1	4
346.868	1	9
347.210	1	0
347.552	1	4
347.894	1	5
348.236	1	10
348.578	1	-2
348.920	1	4
349.262	1	-3
349.604	1	7
349.946	1	8
350.288	1	3
350.630	1	-3
350.972	1	0
351.314	1	2
351.656	1	13
351.998	1	-1
352.340	1	9
352.682	1	-10
353.024	1	-5
353.366	1	4
353.708	1	8
354.050	1	2
354.392	1	15
354.734	1	1
355.076	1	11
355.418	1	-1
355.760	1	6
356.102	1	-4
356.444	1	5
356.785	1	11
357.127	1	-4
357.469	1	-5
357.811	1	11
358.153	1	6
358.495	1	12
358.837	1	7
359.179	1	-5
359.521	1	0
359.863	1	-11
360.205	1	2
360.547	1	-2
360.889	1	7
361.231	1	-1
361.572	1	0
361.914	1	4
362.256	1	9
362.598	1	-6
362.940	1	-2
363.282	1	8
363.624	1	-1
363.966	1	10
364.308	1	2
364.649	1	3
364.991	1	-5
365.333	1	13
365.675	1	-2
366.017	1	-6
366.359	1	4
366.701	1	-2
367.042	1	9
367.384	1	5
367.726	1	8
368.068	1	-6
368.410	1	1
368.752	1	-7
369.093	1	0
369.435	1	5
369.777	1	-4
370.119	1	1
370.461	1	3
370.803	1	-1
371.144	1	8
371.486	1	5
371.828	1	2
372.170	1	5
372.512	1	-1
372.853	1	9
373.195	1	-8
373.537	1	1
373.879	1	9
374.220	1	0
374.562	1	4
374.904	1	-1
375.246	1	3
375.588	1	2
375.929	1	7
376.271	1	2
376.613	1	-2
376.955	1	-5
377.296	1	7
377.638	1	2
377.980	1	-3
378.321	1	2
378.663	1	-3
379.005	1	11
379.347	1	-2
379.688	1	1
380.030	1	-2
380.372	1	0
380.714	1	5
381.055	1	-1
381.397	1	3
381.739	1	7
382.080	1	-14
382.422	1	11
382.764	1	-5
383.105	1	-3
383.447	1	11
383.789	1	7
384.130	1	-5
384.472	1	-13
384.814	1	10
385.156	1	3
385.497	1	14
385.839	1	-2
386.180	1	2
386.522	1	2
386.864	1	-3
387.205	1	-5
387.547	1	-8
387.889	1	15
388.230	1	1
388.572	1	7
388.914	1	12
389.255	1	6
389.597	1	2
389.939	1	10
390.280	1	4
390.622	1	-11
390.963	1	9
391.305	1	7
391.647	1	4
391.988	1	3
392.330	1	1
392.671	1	7
393.013	1	7
393.355	1	12
393.696	1	5
394.038	1	-4
394.379	1	-3
394.721	1	4
395.062	1	-11
395.404	1	7
395.746	1	-3
396.087	1	0
396.429	1	1
396.770	1	3
397.112	1	0
397.453	1	3
397.795	1	5
398.136	1	6
398.478	1	-8
398.819	1	7
399.161	1	4
399.503	1	3
399.844	1	-3
400.186	1	11
400.527	1	-7
400.869	1	11
401.210	1	-7
401.552	1	10
401.893	1	5
402.235	1	5
402.576	1	11
402.918	1	5
403.259	1	0
403.601	1	-7
403.942	1	10
404.284	1	-2
404.625	1	7
404.967	1	5
405.308	1	-3
405.649	1	-3
405.991	1	17
406.332	1	-14
406.674	1	2
407.015	1	-11
407.357	1	2
407.698	1	-4
408.040	1	-6
408.381	1	5
408.722	1	0
409.064	1	-2
409.405	1	9
409.747	1	5
410.088	1	11
410.430	1	5
410.771	1	0
411.112	1	3
411.454	1	4
411.795	1	11
412.137	1	8
412.478	1	6
412.819	1	-5
413.161	1	-3
413.502	1	-5
413.844	1	2
414.185	1	1
414.526	1	-1
414.868	1	6
415.209	1	1
415.550	1	-6
415.892	1	-2
416.233	1	0
416.575	1	-1
416.916	1	-2
417.257	1	0
417.599	1	2
417.940	1	-1
418.281	1	5
418.623	1	-4
418.964	1	7
419.305	1	1
419.647	1	12
419.988	1	-2
420.329	1	13
420.671	1	0
421.012	1	8
421.353	1	5
421.695	1	7
422.036	1	-5
422.377	1	5
422.718	1	3
423.060	1	-2
423.401	1	5
423.742	1	4
424.084	1	-1
424.425	1	4
424.766	1	8
425.107	1	-6
425.449	1	-3
425.790	1	-5
426.131	1	8
426.472	1	-7
426.814	1	10
427.155	1	-2
427.496	1	7
427.837	1	1
428.179	1	-3
428.520	1	-4
428.861	1	0
429.202	1	3
429.544	1	-3
429.885	1	-3
430.226	1	-6
430.567	1	9
430.909	1	-2
431.250	1	-9
431.591	1	5
431.932	1	5
432.273	1	-4
432.615	1	5
432.956	1	-6
433.297	1	7
433.638	1	2
433.979	1	-4
434.320	1	3
434.662	1	-14
435.003	1	-2
435.344	1	14
435.685	1	6
436.026	1	12
436.368	1	-4
436.709	1	-10
437.050	1	11
437.391	1	2
437.732	1	1
438.073	1	1
438.414	1	-6
438.756	1	11
439.097	1	3
439.438	1	4
439.779	1	-1
440.120	1	-5
440.461	1	-4
440.802	1	14
441.143	1	2
441.485	1	-5
441.826	1	-1
442.167	1	5
442.508	1	-4
442.849	1	17
443.190	1	-14
443.531	1	4
443.872	1	0
444.213	1	-13
444.554	1	6
444.895	1	-3
445.237	1	-9
445.578	1	11
445.919	1	6
446.260	1	8
446.601	1	2
446.942	1	9
447.283	1	-1
447.624	1	15
447.965	1	-1
448.306	1	2
448.647	1	8
448.988	1	-14
449.329	1	3
449.670	1	11
450.011	1	-1
450.352	1	11
450.693	1	5
451.034	1	1
451.375	1	9
451.716	1	6
452.057	1	5
452.398	1	5
452.739	1	6
453.080	1	19
453.421	1	-3
453.762	1	4
454.103	1	5
454.444	1	15
454.785	1	-9
455.126	1	-3
455.467	1	6
455.808	1	-3
456.149	1	-4
456.490	1	2
456.831	1	14
457.172	1	-1
457.513	1	9
457.854	1	3
458.195	1	-5
458.536	1	1
458.877	1	7
459.218	1	0
459.559	1	6
459.899	1	8
460.240	1	10
460.581	1	7
460.922	1	7
461.263	1	4
461.604	1	2
461.945	1	1
462.286	1	11
462.627	1	4
462.968	1	6
463.309	1	7
463.649	1	-6
463.990	1	0
464.331	1	3
464.672	1	-2
465.013	1	-3
465.354	1	6
465.695	1	4
466.036	1	7
466.376	1	10
466.717	1	-5
467.058	1	8
467.399	1	2
467.740	1	-5
468.081	1	7
468.422	1	-1
468.762	1	1
469.103	1	-7
469.444	1	-4
469.785	1	12
470.126	1	6
470.467	1	0
470.807	1	-3
471.148	1	0
471.489	1	0
471.830	1	16
472.171	1	6
472.511	1	7
472.852	1	-2
473.193	1	-7
473.534	1	-1
473.875	1	14
474.215	1	-5
474.556	1	-13
474.897	1	7
475.238	1	-6
475.578	1	2
475.919	1	8
476.260	1	2
476.601	1	-6
476.942	1	3
477.282	1	-8
477.623	1	3
477.964	1	7
478.305	1	4
478.645	1	-4
478.986	1	7
479.327	1	-7
479.667	1	-5
480.008	1	1
480.349	1	8
480.690	1	8
481.030	1	0
481.371	1	6
481.712	1	3
482.053	1	8
482.393	1	0
482.734	1	-4
483.075	1	9
483.415	1	2
483.756	1	6
484.097	1	-2
484.437	1	-2
484.778	1	-1
485.119	1	8
485.459	1	14
485.800	1	-9
486.141	1	-7
486.481	1	6
486.822	1	6
487.163	1	-6
487.503	1	-13
487.844	1	5
488.185	1	-4
488.525	1	6
488.866	1	11
489.207	1	6
489.547	1	-4
489.888	1	3
490.228	1	-8
490.569	1	7
490.910	1	-3
491.250	1	7
491.591	1	-2
491.932	1	11
492.272	1	8
492.613	1	7
492.953	1	8
493.294	1	11
493.635	1	-3
493.975	1	4
494.316	1	4
494.656	1	7
494.997	1	-4
495.337	1	12
495.678	1	15
496.019	1	-4
496.359	1	0
496.700	1	-3
497.040	1	-2
497.381	1	-14
497.721	1	0
498.062	1	-3
498.403	1	6
498.743	1	-1
499.084	1	-4
499.424	1	4
499.765	1	5
500.105	1	9
500.446	1	2
500.786	1	-1
501.127	1	6
501.467	1	1
501.808	1	1
502.148	1	3
502.489	1	10
502.829	1	12
503.170	1	-1
503.510	1	5
503.851	1	-18
504.191	1	0
504.532	1	-11
504.872	1	-1
505.213	1	-6
505.553	1	10
505.894	1	8
506.234	1	6
506.575	1	-12
506.915	1	0
507.256	1	-12
507.596	1	6
507.936	1	-2
508.277	1	-9
508.617	1	14
508.958	1	7
509.298	1	7
509.639	1	13
509.979	1	1
510.319	1	-8
510.660	1	6
511.000	1	6
511.341	1	1
511.681	1	5
512.022	1	-3
512.362	1	0
512.702	1	4
513.043	1	3
513.383	1	-7
513.724	1	1
514.064	1	6
514.404	1	-5
514.745	1	-5
515.085	1	-3
515.425	1	-2
515.766	1	-2
516.106	1	-2
516.447	1	0
516.787	1	0
517.127	1	-5
517.468	1	4
517.808	1	-2
518.148	1	-1
518.489	1	2
518.829	1	-11
519.169	1	19
519.510	1	-1
519.850	1	2
520.190	1	2
520.531	1	1
520.871	1	6
521.211	1	-5
521.552	1	-1
521.892	1	-8
522.232	1	-13
522.573	1	3
522.913	1	0
523.253	1	0
523.593	1	-12
523.934	1	10
524.274	1	-8
524.614	1	-3
524.955	1	10
525.295	1	-3
525.635	1	3
525.975	1	-5
526.316	1	-9
526.656	1	9
526.996	1	13
527.337	1	4
527.677	1	13
528.017	1	-2
528.357	1	6
528.698	1	1
529.038	1	2
529.378	1	9
529.718	1	2
530.058	1	-4
530.399	1	10
530.739	1	-1
531.079	1	10
531.419	1	15
531.760	1	6
532.100	1	13
532.440	1	4
532.780	1	5
533.120	1	-7
533.461	1	10
533.801	1	7
534.141	1	11
534.481	1	-3
534.821	1	13
535.162	1	8
535.502	1	5
535.842	1	5
536.182	1	4
536.522	1	2
536.862	1	11
537.203	1	11
537.543	1	7
537.883	1	9
538.223	1	4
538.563	1	9
538.903	1	-4
539.243	1	8
539.584	1	3
539.924	1	4
540.264	1	7
540.604	1	-5
540.944	1	-1
541.284	1	-6
541.624	1	2
541.964	1	2
542.305	1	-5
542.645	1	1
542.985	1	2
543.325	1	-9
543.665	1	10
544.005	1	2
544.345	1	-5
544.685	1	5
545.025	1	-7
545.365	1	6
545.705	1	8
546.045	1	11
546.386	1	8
546.726	1	-3
547.066	1	-14
547.406	1	9
547.746	1	13
548.086	1	11
548.426	1	-3
548.766	1	0
549.106	1	0
549.446	1	-1
549.786	1	6
550.126	1	1
550.466	1	5
550.806	1	3
551.146	1	-5
551.486	1	11
551.826	1	11
552.166	1	3
552.506	1	0
552.846	1	8
553.186	1	-1
553.526	1	5
553.866	1	5
554.206	1	2
554.546	1	-8
554.886	1	5
555.226	1	-2
555.566	1	9
555.906	1	2
556.246	1	0
556.586	1	11
556.926	1	3
557.266	1	5
557.606	1	-8
557.946	1	6
558.286	1	9
558.626	1	3
558.966	1	1
559.306	1	-2
559.646	1	-9
559.986	1	-4
560.325	1	-4
560.665	1	11
561.005	1	10
561.345	1	-1
561.685	1	-3
562.025	1	-2
562.365	1	5
562.705	1	9
563.045	1	13
563.385	1	-1
563.725	1	-2
564.064	1	2
564.404	1	2
564.744	1	1
565.084	1	-4
565.424	1	-1
565.764	1	8
566.104	1	0
566.444	1	0
566.783	1	0
567.123	1	13
567.463	1	2
567.803	1	3
568.143	1	-12
568.483	1	-5
568.823	1	4
569.162	1	2
569.502	1	-2
569.842	1	0
570.182	1	-5
570.522	1	10
570.862	1	7
571.201	1	7
571.541	1	-4
571.881	1	7
572.221	1	14
572.561	1	-3
572.900	1	13
573.240	1	-13
573.580	1	3
573.920	1	-5
574.260	1	2
574.599	1	-4
574.939	1	3
575.279	1	9
575.619	1	7
575.959	1	-3
576.298	1	-8
576.638	1	5
576.978	1	4
577.318	1	7
577.657	1	-9
577.997	1	-17
578.337	1	-9
578.677	1	-6
579.016	1	19
579.356	1	1
579.696	1	9
580.036	1	-6
580.375	1	-1
580.715	1	5
581.055	1	8
581.394	1	-3
581.734	1	4
582.074	1	-2
582.414	1	5
582.753	1	-3
583.093	1	1
583.433	1	-12
583.772	1	-6
584.112	1	4
584.452	1	2
584.791	1	0
585.131	1	-7
585.471	1	-3
585.811	1	-5
586.150	1	13
586.490	1	-9
586.830	1	-7
587.169	1	1
587.509	1	5
587.849	1	-1
588.188	1	-1
588.528	1	5
588.867	1	-1
589.207	1	-16
589.547	1	1
589.886	1	-9
590.226	1	1
590.566	1	-3
590.905	1	5
591.245	1	2
591.585	1	4
591.924	1	-2
592.264	1	2
592.603	1	-4
592.943	1	-1
593.283	1	13
593.622	1	0
593.962	1	10
594.301	1	7
594.641	1	2
594.981	1	5
595.320	1	5
595.660	1	0
595.999	1	6
596.339	1	1
596.678	1	1
597.018	1	2
597.358	1	2
597.697	1	-12
598.037	1	-5
598.376	1	13
598.716	1	-12
599.055	1	8
599.395	1	10
599.734	1	-3
600.074	1	4
600.413	1	3
600.753	1	11
601.092	1	-11
601.432	1	-2
601.771	1	5
602.111	1	-8
602.451	1	-2
602.790	1	5
603.130	1	4
603.469	1	-1
603.809	1	6
604.148	1	7
604.487	1	4
604.827	1	-13
605.166	1	-1
605.506	1	6
605.845	1	0
606.185	1	7
606.524	1	-3
606.864	1	3
607.203	1	12
607.543	1	2
607.882	1	-3
608.222	1	9
608.561	1	11
608.901	1	6
609.240	1	0
609.579	1	4
609.919	1	2
610.258	1	4
610.598	1	4
610.937	1	2
611.277	1	-4
611.616	1	-6
611.955	1	7
612.295	1	1
612.634	1	3
612.974	1	4
613.313	1	4
613.652	1	-2
613.992	1	2
614.331	1	11
614.671	1	4
615.010	1	0
615.349	1	1
615.689	1	6
616.028	1	1
616.368	1	-5
616.707	1	1
617.046	1	3
617.386	1	1
617.725	1	11
618.064	1	-3
618.404	1	9
618.743	1	2
619.082	1	3
619.422	1	3
619.761	1	2
620.100	1	10
620.440	1	-2
620.779	1	-6
621.118	1	-1
621.458	1	10
621.797	1	5
622.136	1	4
622.476	1	11
622.815	1	5
623.154	1	-2
623.494	1	1
623.833	1	-3
624.172	1	13
624.511	1	5
624.851	1	-5
625.190	1	4
625.529	1	14
625.869	1	-2
626.208	1	-8
626.547	1	-1
626.886	1	-8
627.226	1	3
627.565	1	13
627.904	1	-3
628.243	1	-13
628.583	1	0
628.922	1	6
629.261	1	15
629.600	1	7
629.940	1	6
630.279	1	-9
630.618	1	4
630.957	1	0
631.297	1	-2
631.636	1	1
631.975	1	5
632.314	1	7
632.653	1	-10
632.993	1	6
633.332	1	2
633.671	1	1
634.010	1	-1
634.349	1	3
634.689	1	11
635.028	1	8
635.367	1	-2
635.706	1	0
636.045	1	5
636.384	1	11
636.724	1	3
637.063	1	3
637.402	1	3
637.741	1	15
638.080	1	6
638.419	1	14
638.759	1	16
639.098	1	-5
639.437	1	-2
639.776	1	-1
640.115	1	1
640.454	1	10
640.793	1	-1
641.132	1	-3
641.472	1	-2
641.811	1	1
642.150	1	-2
642.489	1	-5
642.828	1	9
643.167	1	2
643.506	1	1
643.845	1	3
644.184	1	10
644.524	1	3
644.863	1	-1
645.202	1	-4
645.541	1	-16
645.880	1	2
646.219	1	6
646.558	1	0
646.897	1	-8
647.236	1	1
647.575	1	4
647.914	1	-6
648.253	1	-3
648.592	1	4
648.931	1	2
649.270	1	3
649.610	1	14
649.949	1	4
650.288	1	-5
650.627	1	1
650.966	1	-4
651.305	1	-10
651.644	1	-3
651.983	1	-5
652.322	1	3
652.661	1	-4
653.000	1	-5
653.339	1	2
653.678	1	10
654.017	1	5
654.356	1	6
654.695	1	7
655.034	1	3
655.373	1	-2
655.712	1	2
656.051	1	11
656.390	1	-1
656.729	1	-3
657.068	1	-3
657.406	1	15
657.745	1	-2
658.084	1	1
658.423	1	-9
658.762	1	-3
659.101	1	6
659.440	1	0
659.779	1	1
660.118	1	-1
660.457	1	3
660.796	1	5
661.135	1	2
661.474	1	6
661.813	1	0
662.152	1	3
662.491	1	3
662.829	1	-1
663.168	1	-7
663.507	1	-5
663.846	1	6
664.185	1	3
664.524	1	-10
664.863	1	5
665.202	1	-8
665.541	1	3
665.879	1	-2
666.218	1	-3
666.557	1	5
666.896	1	1
667.235	1	7
667.574	1	-2
667.913	1	3
668.251	1	-3
668.590	1	-1
668.929	1	3
669.268	1	6
669.607	1	-8
669.946	1	6
670.285	1	13
670.623	1	1
670.962	1	6
671.301	1	-2
671.640	1	-16
671.979	1	12
672.317	1	-2
672.656	1	1
672.995	1	9
673.334	1	7
673.673	1	17
674.011	1	7
674.350	1	-4
674.689	1	-6
675.028	1	6
675.367	1	3
675.705	1	-9
676.044	1	4
676.383	1	1
676.722	1	3
677.060	1	-5
677.399	1	-3
677.738	1	-5
678.077	1	2
678.416	1	-4
678.754	1	7
679.093	1	6
679.432	1	-4
679.771	1	-5
680.109	1	1
680.448	1	0
680.787	1	4
681.125	1	10
681.464	1	1
681.803	1	-12
682.142	1	9
682.480	1	5
682.819	1	9
683.158	1	9
683.496	1	-8
683.835	1	2
684.174	1	3
684.512	1	3
684.851	1	3
685.190	1	4
685.529	1	0
685.867	1	-8
686.206	1	6
686.545	1	-6
686.883	1	-13
687.222	1	0
687.561	1	-6
687.899	1	1
688.238	1	-6
688.577	1	-7
688.746	1	-3