File: Analysis/GaN_68K_200ms/GaN_sample E_spot4_UVVIS_68 K_200um_200 ms 2x2mm1_175.txt
340.368	1	3
340.710	1	-5
341.052	1	6
341.394	1	1
341.737	1	14
342.079	1	-4
342.421	1	-12
342.763	1	-10
343.105	1	12
343.447	1	6
343.789	1	3
344.131	1	0
344.473	1	-7
344.815	1	1
345.157	1	7
345.499	1	8
345.841	1	10
346.183	1	9
346.526	1	10
346.868	1	6
347.210	1	-8
347.552	1	1
347.894	1	6
348.236	1	4
348.578	1	5
348.920	1	8
349.262	1	0
349.604	1	21
349.946	1	10
350.288	1	1
350.630	1	1
350.972	1	4
351.314	1	-9
351.656	1	13
351.998	1	-3
352.340	1	-1
352.682	1	2
353.024	1	-2
353.366	1	5
353.708	1	6
354.050	1	10
354.392	1	18
354.734	1	3
355.076	1	8
355.418	1	11
355.760	1	6
356.102	1	6
356.444	1	22
356.785	1	4
357.127	1	12
357.469	1	0
357.811	1	23
358.153	1	7
358.495	1	20
358.837	1	7
359.179	1	10
359.521	1	11
359.863	1	4
360.205	1	14
360.547	1	9
360.889	1	21
361.231	1	13
361.572	1	16
361.914	1	14
362.256	1	14
362.598	1	19
362.940	1	12
363.282	1	21
363.624	1	27
363.966	1	19
364.308	1	20
364.649	1	17
364.991	1	35
365.333	1	39
365.675	1	29
366.017	1	29
366.359	1	46
366.701	1	40
367.042	1	42
367.384	1	31
367.726	1	42
368.068	1	41
368.410	1	35
368.752	1	27
369.093	1	35
369.435	1	38
369.777	1	27
370.119	1	32
370.461	1	35
370.803	1	25
371.144	1	30
371.486	1	31
371.828	1	23
372.170	1	33
372.512	1	15
372.853	1	22
373.195	1	5
373.537	1	23
373.879	1	28
374.220	1	22
374.562	1	20
374.904	1	12
375.246	1	23
375.588	1	16
375.929	1	17
376.271	1	13
376.613	1	16
376.955	1	9
377.296	1	18
377.638	1	20
377.980	1	15
378.321	1	8
378.663	1	19
379.005	1	15
379.347	1	15
379.688	1	7
380.030	1	17
380.372	1	21
380.714	1	22
381.055	1	19
381.397	1	14
381.739	1	17
382.080	1	15
382.422	1	29
382.764	1	23
383.105	1	24
383.447	1	40
383.789	1	32
384.130	1	19
384.472	1	26
384.814	1	42
385.156	1	47
385.497	1	47
385.839	1	52
386.180	1	45
386.522	1	59
386.864	1	46
387.205	1	39
387.547	1	48
387.889	1	56
388.230	1	46
388.572	1	39
388.914	1	50
389.255	1	44
389.597	1	50
389.939	1	53
390.280	1	51
390.622	1	36
390.963	1	54
391.305	1	48
391.647	1	43
391.988	1	38
392.330	1	40
392.671	1	47
393.013	1	57
393.355	1	38
393.696	1	44
394.038	1	38
394.379	1	23
394.721	1	41
395.062	1	29
395.404	1	49
395.746	1	29
396.087	1	43
396.429	1	39
396.770	1	44
397.112	1	42
397.453	1	37
397.795	1	50
398.136	1	40
398.478	1	44
398.819	1	55
399.161	1	43
399.503	1	41
399.844	1	40
400.186	1	57
400.527	1	40
400.869	1	46
401.210	1	31
401.552	1	51
401.893	1	33
402.235	1	44
402.576	1	39
402.918	1	27
403.259	1	29
403.601	1	27
403.942	1	28
404.284	1	15
404.625	1	32
404.967	1	38
405.308	1	29
405.649	1	27
405.991	1	33
406.332	1	27
406.674	1	27
407.015	1	23
407.357	1	30
407.698	1	22
408.040	1	19
408.381	1	27
408.722	1	14
409.064	1	21
409.405	1	22
409.747	1	20
410.088	1	24
410.430	1	25
410.771	1	30
411.112	1	28
411.454	1	34
411.795	1	24
412.137	1	36
412.478	1	18
412.819	1	20
413.161	1	12
413.502	1	11
413.844	1	15
414.185	1	28
414.526	1	24
414.868	1	34
415.209	1	15
415.550	1	17
415.892	1	12
416.233	1	25
416.575	1	18
416.916	1	12
417.257	1	15
417.599	1	22
417.940	1	19
418.281	1	21
418.623	1	19
418.964	1	27
419.305	1	21
419.647	1	19
419.988	1	16
420.329	1	12
420.671	1	15
421.012	1	27
421.353	1	28
421.695	1	18
422.036	1	13
422.377	1	19
422.718	1	15
423.060	1	15
423.401	1	22
423.742	1	15
424.084	1	24
424.425	1	9
424.766	1	21
425.107	1	14
425.449	1	14
425.790	1	13
426.131	1	12
426.472	1	16
426.814	1	27
427.155	1	19
427.496	1	18
427.837	1	17
428.179	1	-1
428.520	1	9
428.861	1	15
429.202	1	20
429.544	1	14
429.885	1	12
430.226	1	12
430.567	1	22
430.909	1	8
431.250	1	7
431.591	1	18
431.932	1	19
432.273	1	4
432.615	1	18
432.956	1	13
433.297	1	19
433.638	1	5
433.979	1	11
434.320	1	5
434.662	1	5
435.003	1	20
435.344	1	7
435.685	1	16
436.026	1	8
436.368	1	15
436.709	1	3
437.050	1	11
437.391	1	16
437.732	1	12
438.073	1	14
438.414	1	18
438.756	1	20
439.097	1	19
439.438	1	13
439.779	1	4
440.120	1	12
440.461	1	2
440.802	1	13
441.143	1	13
441.485	1	3
441.826	1	3
442.167	1	8
442.508	1	12
442.849	1	22
443.190	1	4
443.531	1	10
443.872	1	7
444.213	1	0
444.554	1	8
444.895	1	6
445.237	1	3
445.578	1	22
445.919	1	9
446.260	1	10
446.601	1	2
446.942	1	11
447.283	1	10
447.624	1	14
447.965	1	5
448.306	1	7
448.647	1	20
448.988	1	-6
449.329	1	5
449.670	1	20
450.011	1	6
450.352	1	13
450.693	1	9
451.034	1	13
451.375	1	13
451.716	1	14
452.057	1	10
452.398	1	8
452.739	1	13
453.080	1	12
453.421	1	12
453.762	1	13
454.103	1	9
454.444	1	15
454.785	1	5
455.126	1	11
455.467	1	14
455.808	1	6
456.149	1	1
456.490	1	4
456.831	1	23
457.172	1	7
457.513	1	12
457.854	1	3
458.195	1	-1
458.536	1	6
458.877	1	4
459.218	1	8
459.559	1	5
459.899	1	9
460.240	1	5
460.581	1	14
460.922	1	5
461.263	1	21
461.604	1	-1
461.945	1	17
462.286	1	18
462.627	1	13
462.968	1	7
463.309	1	0
463.649	1	8
463.990	1	7
464.331	1	10
464.672	1	4
465.013	1	11
465.354	1	6
465.695	1	3
466.036	1	13
466.376	1	6
466.717	1	-3
467.058	1	23
467.399	1	9
467.740	1	13
468.081	1	1
468.422	1	15
468.762	1	1
469.103	1	1
469.444	1	11
469.785	1	3
470.126	1	14
470.467	1	1
470.807	1	2
471.148	1	4
471.489	1	4
471.830	1	18
472.171	1	6
472.511	1	15
472.852	1	-5
473.193	1	-6
473.534	1	10
473.875	1	3
474.215	1	7
474.556	1	-4
474.897	1	7
475.238	1	12
475.578	1	8
475.919	1	13
476.260	1	3
476.601	1	7
476.942	1	11
477.282	1	-7
477.623	1	10
477.964	1	6
478.305	1	10
478.645	1	7
478.986	1	-3
479.327	1	4
479.667	1	14
480.008	1	7
480.349	1	-1
480.690	1	-7
481.030	1	5
481.371	1	8
481.712	1	5
482.053	1	13
482.393	1	-6
482.734	1	13
483.075	1	12
483.415	1	13
483.756	1	15
484.097	1	2
484.437	1	-3
484.778	1	11
485.119	1	15
485.459	1	17
485.800	1	3
486.141	1	6
486.481	1	6
486.822	1	12
487.163	1	6
487.503	1	-6
487.844	1	11
488.185	1	-2
488.525	1	14
488.866	1	12
489.207	1	17
489.547	1	7
489.888	1	6
490.228	1	7
490.569	1	25
490.910	1	11
491.250	1	7
491.591	1	-3
491.932	1	7
492.272	1	10
492.613	1	13
492.953	1	16
493.294	1	15
493.635	1	8
493.975	1	10
494.316	1	15
494.656	1	11
494.997	1	11
495.337	1	11
495.678	1	15
496.019	1	8
496.359	1	16
496.700	1	9
497.040	1	14
497.381	1	-13
497.721	1	12
498.062	1	10
498.403	1	15
498.743	1	6
499.084	1	2
499.424	1	21
499.765	1	14
500.105	1	20
500.446	1	17
500.786	1	26
501.127	1	22
501.467	1	13
501.808	1	0
502.148	1	16
502.489	1	17
502.829	1	17
503.170	1	25
503.510	1	12
503.851	1	12
504.191	1	17
504.532	1	10
504.872	1	2
505.213	1	19
505.553	1	18
505.894	1	19
506.234	1	24
506.575	1	9
506.915	1	12
507.256	1	9
507.596	1	30
507.936	1	19
508.277	1	12
508.617	1	36
508.958	1	28
509.298	1	25
509.639	1	26
509.979	1	16
510.319	1	10
510.660	1	29
511.000	1	21
511.341	1	17
511.681	1	25
512.022	1	13
512.362	1	12
512.702	1	15
513.043	1	29
513.383	1	19
513.724	1	28
514.064	1	23
514.404	1	18
514.745	1	14
515.085	1	16
515.425	1	17
515.766	1	18
516.106	1	15
516.447	1	22
516.787	1	16
517.127	1	20
517.468	1	27
517.808	1	19
518.148	1	19
518.489	1	22
518.829	1	19
519.169	1	40
519.510	1	16
519.850	1	12
520.190	1	27
520.531	1	36
520.871	1	14
521.211	1	39
521.552	1	37
521.892	1	12
522.232	1	19
522.573	1	30
522.913	1	28
523.253	1	30
523.593	1	10
523.934	1	35
524.274	1	17
524.614	1	25
524.955	1	24
525.295	1	19
525.635	1	41
525.975	1	23
526.316	1	27
526.656	1	43
526.996	1	28
527.337	1	21
527.677	1	36
528.017	1	18
528.357	1	31
528.698	1	23
529.038	1	36
529.378	1	33
529.718	1	27
530.058	1	29
530.399	1	37
530.739	1	23
531.079	1	30
531.419	1	27
531.760	1	31
532.100	1	46
532.440	1	28
532.780	1	26
533.120	1	26
533.461	1	40
533.801	1	23
534.141	1	36
534.481	1	33
534.821	1	29
535.162	1	26
535.502	1	39
535.842	1	32
536.182	1	25
536.522	1	49
536.862	1	36
537.203	1	38
537.543	1	30
537.883	1	36
538.223	1	32
538.563	1	28
538.903	1	31
539.243	1	14
539.584	1	31
539.924	1	34
540.264	1	26
540.604	1	30
540.944	1	27
541.284	1	33
541.624	1	30
541.964	1	27
542.305	1	19
542.645	1	26
542.985	1	24
543.325	1	22
543.665	1	42
544.005	1	22
544.345	1	17
544.685	1	26
545.025	1	14
545.365	1	25
545.705	1	30
546.045	1	23
546.386	1	22
546.726	1	29
547.066	1	13
547.406	1	28
547.746	1	31
548.086	1	26
548.426	1	24
548.766	1	34
549.106	1	31
549.446	1	21
549.786	1	24
550.126	1	24
550.466	1	26
550.806	1	25
551.146	1	21
551.486	1	25
551.826	1	37
552.166	1	19
552.506	1	9
552.846	1	28
553.186	1	18
553.526	1	27
553.866	1	26
554.206	1	22
554.546	1	11
554.886	1	26
555.226	1	13
555.566	1	27
555.906	1	19
556.246	1	21
556.586	1	29
556.926	1	28
557.266	1	30
557.606	1	10
557.946	1	29
558.286	1	24
558.626	1	23
558.966	1	21
559.306	1	10
559.646	1	18
559.986	1	15
560.325	1	2
560.665	1	17
561.005	1	29
561.345	1	25
561.685	1	22
562.025	1	15
562.365	1	20
562.705	1	26
563.045	1	27
563.385	1	19
563.725	1	13
564.064	1	24
564.404	1	21
564.744	1	13
565.084	1	11
565.424	1	16
565.764	1	18
566.104	1	10
566.444	1	28
566.783	1	19
567.123	1	31
567.463	1	13
567.803	1	7
568.143	1	10
568.483	1	10
568.823	1	23
569.162	1	22
569.502	1	15
569.842	1	11
570.182	1	18
570.522	1	17
570.862	1	17
571.201	1	20
571.541	1	2
571.881	1	17
572.221	1	14
572.561	1	8
572.900	1	20
573.240	1	4
573.580	1	18
573.920	1	4
574.260	1	11
574.599	1	11
574.939	1	12
575.279	1	16
575.619	1	17
575.959	1	3
576.298	1	9
576.638	1	13
576.978	1	9
577.318	1	9
577.657	1	-2
577.997	1	0
578.337	1	3
578.677	1	12
579.016	1	17
579.356	1	9
579.696	1	15
580.036	1	8
580.375	1	7
580.715	1	9
581.055	1	20
581.394	1	10
581.734	1	9
582.074	1	8
582.414	1	11
582.753	1	19
583.093	1	3
583.433	1	1
583.772	1	11
584.112	1	14
584.452	1	4
584.791	1	4
585.131	1	-2
585.471	1	5
585.811	1	8
586.150	1	14
586.490	1	4
586.830	1	-1
587.169	1	10
587.509	1	6
587.849	1	17
588.188	1	13
588.528	1	16
588.867	1	13
589.207	1	-3
589.547	1	1
589.886	1	0
590.226	1	7
590.566	1	12
590.905	1	10
591.245	1	9
591.585	1	-5
591.924	1	6
592.264	1	5
592.603	1	2
592.943	1	10
593.283	1	4
593.622	1	9
593.962	1	15
594.301	1	14
594.641	1	5
594.981	1	10
595.320	1	18
595.660	1	2
595.999	1	11
596.339	1	11
596.678	1	3
597.018	1	9
597.358	1	10
597.697	1	8
598.037	1	8
598.376	1	9
598.716	1	4
599.055	1	6
599.395	1	4
599.734	1	4
600.074	1	11
600.413	1	13
600.753	1	5
601.092	1	-2
601.432	1	1
601.771	1	14
602.111	1	1
602.451	1	5
602.790	1	6
603.130	1	14
603.469	1	7
603.809	1	11
604.148	1	8
604.487	1	11
604.827	1	-2
605.166	1	0
605.506	1	14
605.845	1	12
606.185	1	8
606.524	1	9
606.864	1	12
607.203	1	17
607.543	1	-4
607.882	1	-7
608.222	1	6
608.561	1	4
608.901	1	8
609.240	1	1
609.579	1	14
609.919	1	3
610.258	1	10
610.598	1	11
610.937	1	8
611.277	1	12
611.616	1	2
611.955	1	6
612.295	1	11
612.634	1	15
612.974	1	12
613.313	1	12
613.652	1	-3
613.992	1	10
614.331	1	3
614.671	1	8
615.010	1	12
615.349	1	4
615.689	1	15
616.028	1	1
616.368	1	4
616.707	1	-3
617.046	1	6
617.386	1	11
617.725	1	17
618.064	1	14
618.404	1	7
618.743	1	5
619.082	1	13
619.422	1	2
619.761	1	7
620.100	1	10
620.440	1	12
620.779	1	-1
621.118	1	4
621.458	1	8
621.797	1	5
622.136	1	14
622.476	1	5
622.815	1	3
623.154	1	10
623.494	1	10
623.833	1	-2
624.172	1	19
624.511	1	7
624.851	1	-8
625.190	1	7
625.529	1	20
625.869	1	9
626.208	1	-7
626.547	1	3
626.886	1	1
627.226	1	13
627.565	1	8
627.904	1	13
628.243	1	-3
628.583	1	-2
628.922	1	13
629.261	1	12
629.600	1	13
629.940	1	6
630.279	1	-1
630.618	1	7
630.957	1	1
631.297	1	-4
631.636	1	3
631.975	1	5
632.314	1	7
632.653	1	-10
632.993	1	2
633.332	1	13
633.671	1	9
634.010	1	3
634.349	1	5
634.689	1	14
635.028	1	-3
635.367	1	0
635.706	1	6
636.045	1	0
636.384	1	14
636.724	1	6
637.063	1	16
637.402	1	15
637.741	1	13
638.080	1	10
638.419	1	14
638.759	1	9
639.098	1	12
639.437	1	-1
639.776	1	5
640.115	1	0
640.454	1	13
640.793	1	11
641.132	1	15
641.472	1	6
641.811	1	12
642.150	1	5
642.489	1	2
642.828	1	7
643.167	1	12
643.506	1	5
643.845	1	8
644.184	1	13
644.524	1	-3
644.863	1	-8
645.202	1	9
645.541	1	-1
645.880	1	16
646.219	1	7
646.558	1	5
646.897	1	2
647.236	1	9
647.575	1	-1
647.914	1	8
648.253	1	9
648.592	1	4
648.931	1	4
649.270	1	12
649.610	1	20
649.949	1	4
650.288	1	1
650.627	1	8
650.966	1	-1
651.305	1	1
651.644	1	2
651.983	1	14
652.322	1	-1
652.661	1	14
653.000	1	-6
653.339	1	18
653.678	1	3
654.017	1	8
654.356	1	9
654.695	1	15
655.034	1	3
655.373	1	2
655.712	1	-1
656.051	1	15
656.390	1	3
656.729	1	7
657.068	1	2
657.406	1	13
657.745	1	1
658.084	1	4
658.423	1	-3
658.762	1	-7
659.101	1	-1
659.440	1	18
659.779	1	-5
660.118	1	3
660.457	1	3
660.796	1	5
661.135	1	5
661.474	1	8
661.813	1	7
662.152	1	5
662.491	1	2
662.829	1	-2
663.168	1	-4
663.507	1	3
663.846	1	15
664.185	1	5
664.524	1	-9
664.863	1	10
665.202	1	0
665.541	1	2
665.879	1	9
666.218	1	-3
666.557	1	17
666.896	1	-1
667.235	1	3
667.574	1	4
667.913	1	6
668.251	1	1
668.590	1	2
668.929	1	10
669.268	1	6
669.607	1	-6
669.946	1	2
670.285	1	6
670.623	1	9
670.962	1	-1
671.301	1	5
671.640	1	-11
671.979	1	16
672.317	1	11
672.656	1	9
672.995	1	2
673.334	1	8
673.673	1	21
674.011	1	14
674.350	1	-2
674.689	1	1
675.028	1	6
675.367	1	4
675.705	1	3
676.044	1	8
676.383	1	0
676.722	1	3
677.060	1	9
677.399	1	2
677.738	1	2
678.077	1	9
678.416	1	10
678.754	1	1
679.093	1	7
679.432	1	1
679.771	1	3
680.109	1	7
680.448	1	2
680.787	1	4
681.125	1	6
681.464	1	0
681.803	1	1
682.142	1	11
682.480	1	5
682.819	1	10
683.158	1	5
683.496	1	-3
683.835	1	7
684.174	1	1
684.512	1	-2
684.851	1	3
685.190	1	8
685.529	1	3
685.867	1	5
686.206	1	2
686.545	1	6
686.883	1	-4
687.222	1	3
687.561	1	11
687.899	1	8
688.238	1	3
688.577	1	-2
688.746	1	9