File: Analysis/GaN_68K_200ms/GaN_sample E_spot4_UVVIS_68 K_200um_200 ms 2x2mm1_171.txt
340.368	1	0
340.710	1	4
341.052	1	6
341.394	1	11
341.737	1	12
342.079	1	-1
342.421	1	3
342.763	1	4
343.105	1	6
343.447	1	5
343.789	1	-3
344.131	1	10
344.473	1	7
344.815	1	9
345.157	1	14
345.499	1	8
345.841	1	0
346.183	1	-3
346.526	1	7
346.868	1	3
347.210	1	-3
347.552	1	1
347.894	1	0
348.236	1	-2
348.578	1	9
348.920	1	10
349.262	1	-1
349.604	1	19
349.946	1	7
350.288	1	9
350.630	1	2
350.972	1	5
351.314	1	3
351.656	1	11
351.998	1	5
352.340	1	9
352.682	1	1
353.024	1	3
353.366	1	11
353.708	1	9
354.050	1	8
354.392	1	9
354.734	1	3
355.076	1	1
355.418	1	3
355.760	1	6
356.102	1	13
356.444	1	4
356.785	1	14
357.127	1	10
357.469	1	4
357.811	1	22
358.153	1	0
358.495	1	17
358.837	1	2
359.179	1	12
359.521	1	10
359.863	1	13
360.205	1	5
360.547	1	12
360.889	1	7
361.231	1	12
361.572	1	10
361.914	1	15
362.256	1	13
362.598	1	17
362.940	1	22
363.282	1	19
363.624	1	31
363.966	1	23
364.308	1	10
364.649	1	23
364.991	1	39
365.333	1	44
365.675	1	28
366.017	1	44
366.359	1	30
366.701	1	29
367.042	1	42
367.384	1	37
367.726	1	56
368.068	1	28
368.410	1	41
368.752	1	29
369.093	1	31
369.435	1	37
369.777	1	26
370.119	1	28
370.461	1	32
370.803	1	21
371.144	1	30
371.486	1	31
371.828	1	23
372.170	1	23
372.512	1	19
372.853	1	22
373.195	1	16
373.537	1	24
373.879	1	29
374.220	1	19
374.562	1	16
374.904	1	27
375.246	1	15
375.588	1	23
375.929	1	20
376.271	1	14
376.613	1	12
376.955	1	5
377.296	1	18
377.638	1	8
377.980	1	14
378.321	1	16
378.663	1	7
379.005	1	22
379.347	1	11
379.688	1	10
380.030	1	11
380.372	1	10
380.714	1	11
381.055	1	16
381.397	1	6
381.739	1	20
382.080	1	17
382.422	1	27
382.764	1	30
383.105	1	17
383.447	1	24
383.789	1	25
384.130	1	30
384.472	1	15
384.814	1	33
385.156	1	43
385.497	1	47
385.839	1	40
386.180	1	42
386.522	1	61
386.864	1	34
387.205	1	43
387.547	1	34
387.889	1	53
388.230	1	47
388.572	1	50
388.914	1	42
389.255	1	48
389.597	1	34
389.939	1	51
390.280	1	46
390.622	1	38
390.963	1	48
391.305	1	44
391.647	1	40
391.988	1	34
392.330	1	44
392.671	1	41
393.013	1	46
393.355	1	48
393.696	1	31
394.038	1	25
394.379	1	24
394.721	1	32
395.062	1	28
395.404	1	54
395.746	1	23
396.087	1	39
396.429	1	47
396.770	1	45
397.112	1	35
397.453	1	33
397.795	1	42
398.136	1	49
398.478	1	36
398.819	1	39
399.161	1	42
399.503	1	44
399.844	1	40
400.186	1	47
400.527	1	41
400.869	1	45
401.210	1	28
401.552	1	44
401.893	1	35
402.235	1	37
402.576	1	30
402.918	1	19
403.259	1	29
403.601	1	17
403.942	1	33
404.284	1	26
404.625	1	26
404.967	1	22
405.308	1	29
405.649	1	32
405.991	1	35
406.332	1	32
406.674	1	30
407.015	1	22
407.357	1	32
407.698	1	17
408.040	1	17
408.381	1	23
408.722	1	19
409.064	1	21
409.405	1	32
409.747	1	17
410.088	1	28
410.430	1	25
410.771	1	13
411.112	1	30
411.454	1	26
411.795	1	15
412.137	1	23
412.478	1	25
412.819	1	18
413.161	1	15
413.502	1	12
413.844	1	23
414.185	1	21
414.526	1	23
414.868	1	18
415.209	1	11
415.550	1	14
415.892	1	8
416.233	1	18
416.575	1	21
416.916	1	16
417.257	1	24
417.599	1	19
417.940	1	13
418.281	1	17
418.623	1	11
418.964	1	16
419.305	1	20
419.647	1	26
419.988	1	16
420.329	1	24
420.671	1	18
421.012	1	28
421.353	1	32
421.695	1	11
422.036	1	9
422.377	1	12
422.718	1	20
423.060	1	21
423.401	1	16
423.742	1	19
424.084	1	11
424.425	1	15
424.766	1	19
425.107	1	29
425.449	1	10
425.790	1	8
426.131	1	22
426.472	1	20
426.814	1	22
427.155	1	15
427.496	1	18
427.837	1	10
428.179	1	8
428.520	1	6
428.861	1	15
429.202	1	21
429.544	1	17
429.885	1	11
430.226	1	16
430.567	1	20
430.909	1	15
431.250	1	3
431.591	1	13
431.932	1	15
432.273	1	7
432.615	1	3
432.956	1	8
433.297	1	9
433.638	1	9
433.979	1	14
434.320	1	15
434.662	1	9
435.003	1	28
435.344	1	13
435.685	1	19
436.026	1	19
436.368	1	7
436.709	1	2
437.050	1	14
437.391	1	9
437.732	1	8
438.073	1	12
438.414	1	9
438.756	1	23
439.097	1	16
439.438	1	22
439.779	1	11
440.120	1	9
440.461	1	-4
440.802	1	13
441.143	1	8
441.485	1	7
441.826	1	4
442.167	1	4
442.508	1	6
442.849	1	22
443.190	1	6
443.531	1	0
443.872	1	8
444.213	1	3
444.554	1	5
444.895	1	3
445.237	1	3
445.578	1	15
445.919	1	5
446.260	1	16
446.601	1	9
446.942	1	10
447.283	1	11
447.624	1	5
447.965	1	5
448.306	1	3
448.647	1	18
448.988	1	-4
449.329	1	10
449.670	1	13
450.011	1	11
450.352	1	15
450.693	1	7
451.034	1	10
451.375	1	11
451.716	1	16
452.057	1	16
452.398	1	15
452.739	1	-1
453.080	1	15
453.421	1	4
453.762	1	14
454.103	1	14
454.444	1	22
454.785	1	1
455.126	1	0
455.467	1	13
455.808	1	9
456.149	1	7
456.490	1	3
456.831	1	17
457.172	1	4
457.513	1	16
457.854	1	3
458.195	1	1
458.536	1	13
458.877	1	3
459.218	1	11
459.559	1	17
459.899	1	14
460.240	1	13
460.581	1	9
460.922	1	2
461.263	1	13
461.604	1	6
461.945	1	13
462.286	1	14
462.627	1	9
462.968	1	-3
463.309	1	5
463.649	1	6
463.990	1	15
464.331	1	8
464.672	1	13
465.013	1	-1
465.354	1	9
465.695	1	20
466.036	1	10
466.376	1	14
466.717	1	-7
467.058	1	14
467.399	1	5
467.740	1	1
468.081	1	10
468.422	1	7
468.762	1	-1
469.103	1	-2
469.444	1	11
469.785	1	16
470.126	1	7
470.467	1	-2
470.807	1	2
471.148	1	5
471.489	1	1
471.830	1	19
472.171	1	13
472.511	1	16
472.852	1	-2
473.193	1	0
473.534	1	7
473.875	1	8
474.215	1	-3
474.556	1	-9
474.897	1	8
475.238	1	0
475.578	1	11
475.919	1	4
476.260	1	0
476.601	1	9
476.942	1	0
477.282	1	-9
477.623	1	16
477.964	1	14
478.305	1	-1
478.645	1	5
478.986	1	6
479.327	1	3
479.667	1	7
480.008	1	11
480.349	1	-3
480.690	1	4
481.030	1	5
481.371	1	4
481.712	1	4
482.053	1	14
482.393	1	0
482.734	1	3
483.075	1	10
483.415	1	6
483.756	1	17
484.097	1	9
484.437	1	-7
484.778	1	11
485.119	1	10
485.459	1	15
485.800	1	2
486.141	1	5
486.481	1	2
486.822	1	23
487.163	1	2
487.503	1	-4
487.844	1	1
488.185	1	6
488.525	1	4
488.866	1	14
489.207	1	20
489.547	1	1
489.888	1	15
490.228	1	0
490.569	1	21
490.910	1	-3
491.250	1	7
491.591	1	4
491.932	1	13
492.272	1	17
492.613	1	7
492.953	1	12
493.294	1	15
493.635	1	7
493.975	1	9
494.316	1	18
494.656	1	9
494.997	1	10
495.337	1	12
495.678	1	8
496.019	1	9
496.359	1	14
496.700	1	10
497.040	1	14
497.381	1	-6
497.721	1	10
498.062	1	7
498.403	1	16
498.743	1	16
499.084	1	-9
499.424	1	20
499.765	1	9
500.105	1	15
500.446	1	27
500.786	1	16
501.127	1	14
501.467	1	7
501.808	1	-2
502.148	1	16
502.489	1	20
502.829	1	16
503.170	1	20
503.510	1	16
503.851	1	3
504.191	1	19
504.532	1	13
504.872	1	13
505.213	1	12
505.553	1	22
505.894	1	11
506.234	1	32
506.575	1	19
506.915	1	20
507.256	1	13
507.596	1	18
507.936	1	13
508.277	1	13
508.617	1	27
508.958	1	25
509.298	1	28
509.639	1	28
509.979	1	17
510.319	1	11
510.660	1	20
511.000	1	21
511.341	1	15
511.681	1	28
512.022	1	17
512.362	1	19
512.702	1	14
513.043	1	16
513.383	1	16
513.724	1	25
514.064	1	23
514.404	1	21
514.745	1	22
515.085	1	26
515.425	1	22
515.766	1	31
516.106	1	15
516.447	1	24
516.787	1	23
517.127	1	27
517.468	1	29
517.808	1	22
518.148	1	23
518.489	1	29
518.829	1	25
519.169	1	39
519.510	1	26
519.850	1	21
520.190	1	33
520.531	1	26
520.871	1	15
521.211	1	24
521.552	1	31
521.892	1	17
522.232	1	19
522.573	1	29
522.913	1	30
523.253	1	16
523.593	1	16
523.934	1	35
524.274	1	28
524.614	1	33
524.955	1	27
525.295	1	14
525.635	1	39
525.975	1	18
526.316	1	15
526.656	1	45
526.996	1	37
527.337	1	27
527.677	1	34
528.017	1	23
528.357	1	32
528.698	1	30
529.038	1	34
529.378	1	22
529.718	1	27
530.058	1	27
530.399	1	30
530.739	1	32
531.079	1	36
531.419	1	41
531.760	1	46
532.100	1	32
532.440	1	15
532.780	1	39
533.120	1	26
533.461	1	45
533.801	1	30
534.141	1	36
534.481	1	36
534.821	1	36
535.162	1	32
535.502	1	32
535.842	1	31
536.182	1	26
536.522	1	28
536.862	1	28
537.203	1	31
537.543	1	35
537.883	1	28
538.223	1	32
538.563	1	43
538.903	1	27
539.243	1	24
539.584	1	34
539.924	1	35
540.264	1	32
540.604	1	28
540.944	1	22
541.284	1	28
541.624	1	27
541.964	1	19
542.305	1	18
542.645	1	24
542.985	1	22
543.325	1	17
543.665	1	32
544.005	1	26
544.345	1	18
544.685	1	21
545.025	1	29
545.365	1	22
545.705	1	25
546.045	1	27
546.386	1	25
546.726	1	23
547.066	1	15
547.406	1	32
547.746	1	35
548.086	1	25
548.426	1	24
548.766	1	27
549.106	1	35
549.446	1	22
549.786	1	18
550.126	1	23
550.466	1	15
550.806	1	23
551.146	1	21
551.486	1	18
551.826	1	29
552.166	1	24
552.506	1	20
552.846	1	19
553.186	1	16
553.526	1	21
553.866	1	30
554.206	1	24
554.546	1	12
554.886	1	24
555.226	1	16
555.566	1	25
555.906	1	22
556.246	1	22
556.586	1	26
556.926	1	24
557.266	1	25
557.606	1	7
557.946	1	27
558.286	1	22
558.626	1	22
558.966	1	15
559.306	1	13
559.646	1	14
559.986	1	18
560.325	1	12
560.665	1	19
561.005	1	21
561.345	1	26
561.685	1	14
562.025	1	11
562.365	1	18
562.705	1	23
563.045	1	14
563.385	1	15
563.725	1	9
564.064	1	23
564.404	1	18
564.744	1	17
565.084	1	13
565.424	1	18
565.764	1	25
566.104	1	13
566.444	1	26
566.783	1	14
567.123	1	29
567.463	1	10
567.803	1	7
568.143	1	8
568.483	1	10
568.823	1	25
569.162	1	19
569.502	1	21
569.842	1	14
570.182	1	6
570.522	1	13
570.862	1	26
571.201	1	15
571.541	1	9
571.881	1	13
572.221	1	20
572.561	1	-3
572.900	1	15
573.240	1	8
573.580	1	11
573.920	1	9
574.260	1	10
574.599	1	-3
574.939	1	16
575.279	1	17
575.619	1	17
575.959	1	-3
576.298	1	1
576.638	1	11
576.978	1	11
577.318	1	13
577.657	1	-1
577.997	1	0
578.337	1	14
578.677	1	16
579.016	1	29
579.356	1	9
579.696	1	18
580.036	1	2
580.375	1	5
580.715	1	19
581.055	1	8
581.394	1	7
581.734	1	11
582.074	1	8
582.414	1	10
582.753	1	10
583.093	1	9
583.433	1	3
583.772	1	9
584.112	1	12
584.452	1	10
584.791	1	6
585.131	1	9
585.471	1	0
585.811	1	3
586.150	1	8
586.490	1	0
586.830	1	4
587.169	1	2
587.509	1	8
587.849	1	7
588.188	1	4
588.528	1	10
588.867	1	8
589.207	1	-3
589.547	1	10
589.886	1	4
590.226	1	9
590.566	1	7
590.905	1	15
591.245	1	16
591.585	1	8
591.924	1	16
592.264	1	10
592.603	1	6
592.943	1	6
593.283	1	18
593.622	1	3
593.962	1	13
594.301	1	17
594.641	1	13
594.981	1	7
595.320	1	14
595.660	1	2
595.999	1	12
596.339	1	14
596.678	1	10
597.018	1	7
597.358	1	14
597.697	1	6
598.037	1	7
598.376	1	13
598.716	1	-3
599.055	1	0
599.395	1	18
599.734	1	14
600.074	1	11
600.413	1	10
600.753	1	11
601.092	1	1
601.432	1	1
601.771	1	13
602.111	1	6
602.451	1	2
602.790	1	10
603.130	1	10
603.469	1	4
603.809	1	19
604.148	1	12
604.487	1	4
604.827	1	-4
605.166	1	7
605.506	1	1
605.845	1	11
606.185	1	11
606.524	1	3
606.864	1	0
607.203	1	16
607.543	1	-9
607.882	1	0
608.222	1	6
608.561	1	11
608.901	1	9
609.240	1	5
609.579	1	7
609.919	1	4
610.258	1	7
610.598	1	9
610.937	1	6
611.277	1	9
611.616	1	-4
611.955	1	8
612.295	1	13
612.634	1	-1
612.974	1	13
613.313	1	9
613.652	1	5
613.992	1	4
614.331	1	10
614.671	1	5
615.010	1	13
615.349	1	3
615.689	1	8
616.028	1	11
616.368	1	-1
616.707	1	12
617.046	1	12
617.386	1	2
617.725	1	12
618.064	1	10
618.404	1	15
618.743	1	8
619.082	1	-2
619.422	1	-4
619.761	1	2
620.100	1	9
620.440	1	9
620.779	1	9
621.118	1	7
621.458	1	1
621.797	1	9
622.136	1	8
622.476	1	9
622.815	1	7
623.154	1	10
623.494	1	-2
623.833	1	6
624.172	1	22
624.511	1	4
624.851	1	2
625.190	1	9
625.529	1	14
625.869	1	4
626.208	1	-1
626.547	1	10
626.886	1	0
627.226	1	9
627.565	1	15
627.904	1	8
628.243	1	0
628.583	1	8
628.922	1	-3
629.261	1	17
629.600	1	15
629.940	1	9
630.279	1	0
630.618	1	3
630.957	1	0
631.297	1	1
631.636	1	-1
631.975	1	0
632.314	1	17
632.653	1	-1
632.993	1	9
633.332	1	18
633.671	1	4
634.010	1	1
634.349	1	1
634.689	1	10
635.028	1	3
635.367	1	3
635.706	1	-4
636.045	1	11
636.384	1	10
636.724	1	1
637.063	1	12
637.402	1	17
637.741	1	15
638.080	1	6
638.419	1	9
638.759	1	-2
639.098	1	2
639.437	1	-4
639.776	1	0
640.115	1	-3
640.454	1	18
640.793	1	9
641.132	1	7
641.472	1	-6
641.811	1	-5
642.150	1	6
642.489	1	15
642.828	1	10
643.167	1	10
643.506	1	-4
643.845	1	1
644.184	1	8
644.524	1	-3
644.863	1	2
645.202	1	12
645.541	1	5
645.880	1	-1
646.219	1	10
646.558	1	8
646.897	1	-4
647.236	1	10
647.575	1	7
647.914	1	-7
648.253	1	4
648.592	1	8
648.931	1	4
649.270	1	10
649.610	1	20
649.949	1	9
650.288	1	-4
650.627	1	2
650.966	1	-3
651.305	1	8
651.644	1	-4
651.983	1	10
652.322	1	15
652.661	1	4
653.000	1	4
653.339	1	13
653.678	1	10
654.017	1	3
654.356	1	18
654.695	1	14
655.034	1	10
655.373	1	10
655.712	1	2
656.051	1	1
656.390	1	7
656.729	1	11
657.068	1	3
657.406	1	12
657.745	1	3
658.084	1	11
658.423	1	4
658.762	1	1
659.101	1	6
659.440	1	10
659.779	1	-3
660.118	1	7
660.457	1	0
660.796	1	-1
661.135	1	5
661.474	1	8
661.813	1	1
662.152	1	4
662.491	1	0
662.829	1	0
663.168	1	-2
663.507	1	12
663.846	1	12
664.185	1	9
664.524	1	1
664.863	1	-2
665.202	1	-4
665.541	1	3
665.879	1	-4
666.218	1	-3
666.557	1	11
666.896	1	-3
667.235	1	2
667.574	1	6
667.913	1	2
668.251	1	3
668.590	1	2
668.929	1	5
669.268	1	-4
669.607	1	1
669.946	1	5
670.285	1	10
670.623	1	5
670.962	1	-2
671.301	1	1
671.640	1	-6
671.979	1	9
672.317	1	3
672.656	1	7
672.995	1	5
673.334	1	7
673.673	1	21
674.011	1	8
674.350	1	3
674.689	1	-2
675.028	1	3
675.367	1	11
675.705	1	-6
676.044	1	14
676.383	1	-2
676.722	1	9
677.060	1	2
677.399	1	11
677.738	1	1
678.077	1	7
678.416	1	-2
678.754	1	1
679.093	1	4
679.432	1	-7
679.771	1	-5
680.109	1	7
680.448	1	9
680.787	1	-1
681.125	1	6
681.464	1	4
681.803	1	-4
682.142	1	15
682.480	1	4
682.819	1	14
683.158	1	10
683.496	1	3
683.835	1	0
684.174	1	3
684.512	1	4
684.851	1	-2
685.190	1	16
685.529	1	4
685.867	1	9
686.206	1	0
686.545	1	10
686.883	1	-2
687.222	1	2
687.561	1	11
687.899	1	12
688.238	1	6
688.577	1	0
688.746	1	11