File: Analysis/GaN_68K_200ms/GaN_sample E_spot4_UVVIS_68 K_200um_200 ms 2x2mm1_512.txt
340.368	1	4
340.710	1	-3
341.052	1	5
341.394	1	-3
341.737	1	14
342.079	1	-9
342.421	1	-13
342.763	1	-9
343.105	1	12
343.447	1	0
343.789	1	2
344.131	1	-3
344.473	1	4
344.815	1	3
345.157	1	6
345.499	1	3
345.841	1	5
346.183	1	-5
346.526	1	0
346.868	1	4
347.210	1	-1
347.552	1	-5
347.894	1	3
348.236	1	3
348.578	1	7
348.920	1	2
349.262	1	0
349.604	1	16
349.946	1	6
350.288	1	2
350.630	1	-8
350.972	1	-6
351.314	1	2
351.656	1	7
351.998	1	5
352.340	1	6
352.682	1	-3
353.024	1	-10
353.366	1	0
353.708	1	6
354.050	1	1
354.392	1	0
354.734	1	2
355.076	1	1
355.418	1	-1
355.760	1	9
356.102	1	-6
356.444	1	-2
356.785	1	6
357.127	1	-7
357.469	1	7
357.811	1	12
358.153	1	2
358.495	1	3
358.837	1	4
359.179	1	9
359.521	1	-6
359.863	1	-9
360.205	1	-4
360.547	1	10
360.889	1	10
361.231	1	11
361.572	1	-3
361.914	1	-10
362.256	1	2
362.598	1	-1
362.940	1	1
363.282	1	10
363.624	1	2
363.966	1	6
364.308	1	0
364.649	1	3
364.991	1	0
365.333	1	9
365.675	1	-6
366.017	1	11
366.359	1	7
366.701	1	-11
367.042	1	7
367.384	1	2
367.726	1	14
368.068	1	-8
368.410	1	1
368.752	1	6
369.093	1	3
369.435	1	1
369.777	1	3
370.119	1	5
370.461	1	3
370.803	1	-1
371.144	1	5
371.486	1	7
371.828	1	4
372.170	1	10
372.512	1	-2
372.853	1	2
373.195	1	0
373.537	1	0
373.879	1	10
374.220	1	2
374.562	1	6
374.904	1	4
375.246	1	0
375.588	1	7
375.929	1	2
376.271	1	6
376.613	1	-2
376.955	1	3
377.296	1	-3
377.638	1	-1
377.980	1	6
378.321	1	6
378.663	1	2
379.005	1	8
379.347	1	7
379.688	1	-4
380.030	1	-2
380.372	1	-1
380.714	1	8
381.055	1	5
381.397	1	0
381.739	1	11
382.080	1	-5
382.422	1	11
382.764	1	2
383.105	1	-8
383.447	1	12
383.789	1	4
384.130	1	-1
384.472	1	-7
384.814	1	13
385.156	1	12
385.497	1	10
385.839	1	-1
386.180	1	2
386.522	1	8
386.864	1	8
387.205	1	0
387.547	1	-4
387.889	1	17
388.230	1	2
388.572	1	4
388.914	1	9
389.255	1	4
389.597	1	-6
389.939	1	12
390.280	1	3
390.622	1	4
390.963	1	12
391.305	1	7
391.647	1	1
391.988	1	-4
392.330	1	12
392.671	1	12
393.013	1	5
393.355	1	13
393.696	1	4
394.038	1	3
394.379	1	1
394.721	1	12
395.062	1	0
395.404	1	4
395.746	1	1
396.087	1	0
396.429	1	9
396.770	1	4
397.112	1	7
397.453	1	-4
397.795	1	2
398.136	1	6
398.478	1	-4
398.819	1	7
399.161	1	5
399.503	1	8
399.844	1	-6
400.186	1	0
400.527	1	-1
400.869	1	8
401.210	1	-5
401.552	1	10
401.893	1	10
402.235	1	4
402.576	1	7
402.918	1	-1
403.259	1	0
403.601	1	-4
403.942	1	10
404.284	1	1
404.625	1	5
404.967	1	3
405.308	1	-5
405.649	1	0
405.991	1	6
406.332	1	-1
406.674	1	5
407.015	1	-9
407.357	1	3
407.698	1	-11
408.040	1	1
408.381	1	0
408.722	1	8
409.064	1	3
409.405	1	6
409.747	1	-12
410.088	1	3
410.430	1	13
410.771	1	2
411.112	1	5
411.454	1	16
411.795	1	5
412.137	1	12
412.478	1	3
412.819	1	0
413.161	1	0
413.502	1	3
413.844	1	-1
414.185	1	-2
414.526	1	-9
414.868	1	8
415.209	1	-2
415.550	1	-4
415.892	1	-1
416.233	1	2
416.575	1	-6
416.916	1	0
417.257	1	12
417.599	1	7
417.940	1	6
418.281	1	-1
418.623	1	-3
418.964	1	5
419.305	1	10
419.647	1	14
419.988	1	-1
420.329	1	-3
420.671	1	7
421.012	1	13
421.353	1	7
421.695	1	0
422.036	1	-5
422.377	1	9
422.718	1	-1
423.060	1	5
423.401	1	-6
423.742	1	-1
424.084	1	1
424.425	1	2
424.766	1	5
425.107	1	3
425.449	1	-1
425.790	1	2
426.131	1	-1
426.472	1	0
426.814	1	10
427.155	1	1
427.496	1	8
427.837	1	-3
428.179	1	-12
428.520	1	-2
428.861	1	13
429.202	1	6
429.544	1	2
429.885	1	3
430.226	1	8
430.567	1	11
430.909	1	-5
431.250	1	-11
431.591	1	5
431.932	1	6
432.273	1	1
432.615	1	-2
432.956	1	-1
433.297	1	8
433.638	1	-5
433.979	1	-4
434.320	1	0
434.662	1	-9
435.003	1	4
435.344	1	9
435.685	1	2
436.026	1	8
436.368	1	-5
436.709	1	-5
437.050	1	0
437.391	1	6
437.732	1	1
438.073	1	4
438.414	1	3
438.756	1	7
439.097	1	-3
439.438	1	12
439.779	1	-10
440.120	1	-3
440.461	1	-7
440.802	1	17
441.143	1	11
441.485	1	-12
441.826	1	-5
442.167	1	0
442.508	1	6
442.849	1	3
443.190	1	-13
443.531	1	-4
443.872	1	5
444.213	1	-1
444.554	1	4
444.895	1	-13
445.237	1	-8
445.578	1	14
445.919	1	1
446.260	1	3
446.601	1	-9
446.942	1	3
447.283	1	-2
447.624	1	2
447.965	1	-14
448.306	1	3
448.647	1	5
448.988	1	-18
449.329	1	-3
449.670	1	8
450.011	1	0
450.352	1	6
450.693	1	1
451.034	1	-1
451.375	1	7
451.716	1	5
452.057	1	8
452.398	1	12
452.739	1	1
453.080	1	18
453.421	1	-5
453.762	1	3
454.103	1	-1
454.444	1	13
454.785	1	2
455.126	1	1
455.467	1	17
455.808	1	3
456.149	1	0
456.490	1	3
456.831	1	9
457.172	1	1
457.513	1	6
457.854	1	-3
458.195	1	7
458.536	1	12
458.877	1	8
459.218	1	8
459.559	1	1
459.899	1	16
460.240	1	-7
460.581	1	5
460.922	1	-1
461.263	1	5
461.604	1	-7
461.945	1	10
462.286	1	6
462.627	1	10
462.968	1	-7
463.309	1	1
463.649	1	8
463.990	1	1
464.331	1	7
464.672	1	-9
465.013	1	-11
465.354	1	8
465.695	1	10
466.036	1	-5
466.376	1	-12
466.717	1	2
467.058	1	10
467.399	1	1
467.740	1	-3
468.081	1	1
468.422	1	1
468.762	1	-3
469.103	1	-12
469.444	1	-1
469.785	1	3
470.126	1	1
470.467	1	-13
470.807	1	-6
471.148	1	-1
471.489	1	3
471.830	1	16
472.171	1	-3
472.511	1	6
472.852	1	-5
473.193	1	-11
473.534	1	-2
473.875	1	11
474.215	1	-2
474.556	1	-2
474.897	1	6
475.238	1	-7
475.578	1	7
475.919	1	1
476.260	1	1
476.601	1	-4
476.942	1	8
477.282	1	-13
477.623	1	5
477.964	1	10
478.305	1	5
478.645	1	-1
478.986	1	-1
479.327	1	-3
479.667	1	0
480.008	1	1
480.349	1	10
480.690	1	12
481.030	1	2
481.371	1	-5
481.712	1	8
482.053	1	2
482.393	1	-18
482.734	1	-7
483.075	1	5
483.415	1	6
483.756	1	6
484.097	1	-3
484.437	1	-12
484.778	1	8
485.119	1	9
485.459	1	0
485.800	1	0
486.141	1	-3
486.481	1	6
486.822	1	1
487.163	1	5
487.503	1	-9
487.844	1	-1
488.185	1	-8
488.525	1	4
488.866	1	10
489.207	1	5
489.547	1	13
489.888	1	-6
490.228	1	2
490.569	1	7
490.910	1	-4
491.250	1	6
491.591	1	-8
491.932	1	16
492.272	1	11
492.613	1	-3
492.953	1	10
493.294	1	2
493.635	1	-4
493.975	1	-6
494.316	1	14
494.656	1	-2
494.997	1	3
495.337	1	5
495.678	1	10
496.019	1	-3
496.359	1	10
496.700	1	3
497.040	1	2
497.381	1	-22
497.721	1	-1
498.062	1	3
498.403	1	10
498.743	1	6
499.084	1	-17
499.424	1	10
499.765	1	9
500.105	1	13
500.446	1	4
500.786	1	-5
501.127	1	2
501.467	1	3
501.808	1	-13
502.148	1	1
502.489	1	8
502.829	1	7
503.170	1	-1
503.510	1	11
503.851	1	-11
504.191	1	8
504.532	1	-15
504.872	1	-13
505.213	1	-3
505.553	1	7
505.894	1	7
506.234	1	12
506.575	1	0
506.915	1	5
507.256	1	0
507.596	1	4
507.936	1	7
508.277	1	5
508.617	1	9
508.958	1	11
509.298	1	11
509.639	1	7
509.979	1	1
510.319	1	-9
510.660	1	7
511.000	1	1
511.341	1	-5
511.681	1	0
512.022	1	0
512.362	1	0
512.702	1	-4
513.043	1	7
513.383	1	-1
513.724	1	0
514.064	1	3
514.404	1	2
514.745	1	-3
515.085	1	5
515.425	1	-6
515.766	1	-8
516.106	1	-4
516.447	1	4
516.787	1	-9
517.127	1	-3
517.468	1	-12
517.808	1	-6
518.148	1	8
518.489	1	-3
518.829	1	-5
519.169	1	6
519.510	1	3
519.850	1	1
520.190	1	4
520.531	1	18
520.871	1	-6
521.211	1	5
521.552	1	6
521.892	1	-10
522.232	1	7
522.573	1	3
522.913	1	4
523.253	1	2
523.593	1	-9
523.934	1	5
524.274	1	9
524.614	1	2
524.955	1	1
525.295	1	-3
525.635	1	10
525.975	1	5
526.316	1	-8
526.656	1	10
526.996	1	21
527.337	1	0
527.677	1	16
528.017	1	-9
528.357	1	4
528.698	1	-7
529.038	1	8
529.378	1	0
529.718	1	4
530.058	1	1
530.399	1	5
530.739	1	0
531.079	1	10
531.419	1	3
531.760	1	1
532.100	1	5
532.440	1	-3
532.780	1	2
533.120	1	-6
533.461	1	15
533.801	1	6
534.141	1	3
534.481	1	-4
534.821	1	6
535.162	1	0
535.502	1	2
535.842	1	5
536.182	1	5
536.522	1	5
536.862	1	1
537.203	1	10
537.543	1	6
537.883	1	10
538.223	1	10
538.563	1	-3
538.903	1	-11
539.243	1	4
539.584	1	9
539.924	1	6
540.264	1	4
540.604	1	3
540.944	1	-4
541.284	1	7
541.624	1	2
541.964	1	0
542.305	1	-15
542.645	1	-5
542.985	1	-7
543.325	1	10
543.665	1	6
544.005	1	5
544.345	1	-5
544.685	1	6
545.025	1	-1
545.365	1	5
545.705	1	3
546.045	1	6
546.386	1	1
546.726	1	-4
547.066	1	-11
547.406	1	6
547.746	1	7
548.086	1	11
548.426	1	-1
548.766	1	5
549.106	1	11
549.446	1	-3
549.786	1	3
550.126	1	2
550.466	1	-9
550.806	1	5
551.146	1	-2
551.486	1	7
551.826	1	3
552.166	1	3
552.506	1	-3
552.846	1	8
553.186	1	4
553.526	1	-5
553.866	1	6
554.206	1	-5
554.546	1	-11
554.886	1	8
555.226	1	-4
555.566	1	3
555.906	1	3
556.246	1	5
556.586	1	7
556.926	1	5
557.266	1	9
557.606	1	-4
557.946	1	13
558.286	1	7
558.626	1	9
558.966	1	1
559.306	1	-5
559.646	1	5
559.986	1	2
560.325	1	-6
560.665	1	3
561.005	1	0
561.345	1	-3
561.685	1	-5
562.025	1	-8
562.365	1	1
562.705	1	5
563.045	1	9
563.385	1	-1
563.725	1	-2
564.064	1	9
564.404	1	0
564.744	1	12
565.084	1	0
565.424	1	7
565.764	1	6
566.104	1	0
566.444	1	2
566.783	1	-5
567.123	1	16
567.463	1	-3
567.803	1	1
568.143	1	-2
568.483	1	-5
568.823	1	6
569.162	1	0
569.502	1	7
569.842	1	0
570.182	1	-5
570.522	1	6
570.862	1	0
571.201	1	-1
571.541	1	-2
571.881	1	6
572.221	1	2
572.561	1	-13
572.900	1	4
573.240	1	1
573.580	1	8
573.920	1	7
574.260	1	-5
574.599	1	4
574.939	1	-4
575.279	1	5
575.619	1	-5
575.959	1	-5
576.298	1	-6
576.638	1	1
576.978	1	8
577.318	1	4
577.657	1	-15
577.997	1	-11
578.337	1	6
578.677	1	-5
579.016	1	12
579.356	1	-3
579.696	1	-1
580.036	1	-5
580.375	1	-1
580.715	1	11
581.055	1	11
581.394	1	4
581.734	1	4
582.074	1	-6
582.414	1	-3
582.753	1	5
583.093	1	-1
583.433	1	-4
583.772	1	5
584.112	1	3
584.452	1	-3
584.791	1	-4
585.131	1	-5
585.471	1	1
585.811	1	-5
586.150	1	13
586.490	1	-5
586.830	1	-7
587.169	1	10
587.509	1	7
587.849	1	7
588.188	1	0
588.528	1	7
588.867	1	4
589.207	1	-7
589.547	1	-1
589.886	1	-5
590.226	1	-5
590.566	1	-7
590.905	1	12
591.245	1	-8
591.585	1	1
591.924	1	-8
592.264	1	-6
592.603	1	-4
592.943	1	-1
593.283	1	0
593.622	1	-2
593.962	1	5
594.301	1	0
594.641	1	4
594.981	1	-5
595.320	1	13
595.660	1	-8
595.999	1	6
596.339	1	0
596.678	1	1
597.018	1	5
597.358	1	-4
597.697	1	-3
598.037	1	-6
598.376	1	1
598.716	1	-5
599.055	1	3
599.395	1	-1
599.734	1	-3
600.074	1	-8
600.413	1	-2
600.753	1	2
601.092	1	-15
601.432	1	-7
601.771	1	10
602.111	1	-4
602.451	1	-1
602.790	1	5
603.130	1	8
603.469	1	-4
603.809	1	2
604.148	1	8
604.487	1	4
604.827	1	-9
605.166	1	-6
605.506	1	7
605.845	1	1
606.185	1	-4
606.524	1	-6
606.864	1	-8
607.203	1	5
607.543	1	-5
607.882	1	-4
608.222	1	4
608.561	1	10
608.901	1	6
609.240	1	4
609.579	1	6
609.919	1	-11
610.258	1	10
610.598	1	-4
610.937	1	3
611.277	1	8
611.616	1	-16
611.955	1	4
612.295	1	4
612.634	1	5
612.974	1	10
613.313	1	4
613.652	1	-5
613.992	1	9
614.331	1	5
614.671	1	12
615.010	1	2
615.349	1	-2
615.689	1	3
616.028	1	-7
616.368	1	-1
616.707	1	-10
617.046	1	2
617.386	1	-2
617.725	1	9
618.064	1	12
618.404	1	5
618.743	1	-3
619.082	1	8
619.422	1	5
619.761	1	0
620.100	1	8
620.440	1	9
620.779	1	-5
621.118	1	6
621.458	1	1
621.797	1	1
622.136	1	3
622.476	1	-2
622.815	1	-5
623.154	1	2
623.494	1	7
623.833	1	-6
624.172	1	7
624.511	1	-2
624.851	1	-1
625.190	1	-2
625.529	1	12
625.869	1	5
626.208	1	-2
626.547	1	1
626.886	1	-5
627.226	1	1
627.565	1	9
627.904	1	0
628.243	1	-5
628.583	1	0
628.922	1	-3
629.261	1	6
629.600	1	11
629.940	1	6
630.279	1	-11
630.618	1	0
630.957	1	7
631.297	1	-6
631.636	1	-1
631.975	1	7
632.314	1	8
632.653	1	-11
632.993	1	8
633.332	1	4
633.671	1	-1
634.010	1	1
634.349	1	2
634.689	1	5
635.028	1	7
635.367	1	-5
635.706	1	-10
636.045	1	3
636.384	1	5
636.724	1	5
637.063	1	2
637.402	1	5
637.741	1	12
638.080	1	0
638.419	1	9
638.759	1	9
639.098	1	-3
639.437	1	-7
639.776	1	-2
640.115	1	-1
640.454	1	7
640.793	1	15
641.132	1	1
641.472	1	-9
641.811	1	0
642.150	1	1
642.489	1	-6
642.828	1	0
643.167	1	8
643.506	1	-1
643.845	1	4
644.184	1	8
644.524	1	-9
644.863	1	-3
645.202	1	-6
645.541	1	-10
645.880	1	-1
646.219	1	5
646.558	1	-1
646.897	1	-5
647.236	1	3
647.575	1	3
647.914	1	4
648.253	1	4
648.592	1	3
648.931	1	-1
649.270	1	12
649.610	1	10
649.949	1	1
650.288	1	-8
650.627	1	-4
650.966	1	-2
651.305	1	0
651.644	1	-2
651.983	1	5
652.322	1	9
652.661	1	11
653.000	1	-2
653.339	1	13
653.678	1	-6
654.017	1	-2
654.356	1	9
654.695	1	15
655.034	1	2
655.373	1	0
655.712	1	-8
656.051	1	8
656.390	1	-9
656.729	1	6
657.068	1	1
657.406	1	10
657.745	1	-8
658.084	1	12
658.423	1	-5
658.762	1	-6
659.101	1	-7
659.440	1	10
659.779	1	-2
660.118	1	4
660.457	1	-4
660.796	1	-4
661.135	1	3
661.474	1	3
661.813	1	-4
662.152	1	-1
662.491	1	2
662.829	1	-5
663.168	1	-9
663.507	1	-6
663.846	1	0
664.185	1	-9
664.524	1	-18
664.863	1	6
665.202	1	-14
665.541	1	-9
665.879	1	-9
666.218	1	-6
666.557	1	4
666.896	1	6
667.235	1	-2
667.574	1	-6
667.913	1	-3
668.251	1	2
668.590	1	-6
668.929	1	-3
669.268	1	3
669.607	1	-15
669.946	1	7
670.285	1	-3
670.623	1	7
670.962	1	-4
671.301	1	-2
671.640	1	-7
671.979	1	14
672.317	1	-3
672.656	1	3
672.995	1	8
673.334	1	8
673.673	1	13
674.011	1	3
674.350	1	2
674.689	1	-6
675.028	1	-4
675.367	1	8
675.705	1	-5
676.044	1	-4
676.383	1	4
676.722	1	0
677.060	1	-8
677.399	1	0
677.738	1	-14
678.077	1	3
678.416	1	-3
678.754	1	-1
679.093	1	7
679.432	1	2
679.771	1	-2
680.109	1	5
680.448	1	-3
680.787	1	-2
681.125	1	2
681.464	1	-7
681.803	1	-8
682.142	1	7
682.480	1	0
682.819	1	7
683.158	1	-2
683.496	1	-10
683.835	1	9
684.174	1	-9
684.512	1	5
684.851	1	-1
685.190	1	5
685.529	1	10
685.867	1	-9
686.206	1	4
686.545	1	1
686.883	1	-1
687.222	1	2
687.561	1	4
687.899	1	-2
688.238	1	0
688.577	1	-3
688.746	1	3