File: Analysis/GaN_68K_200ms/GaN_sample E_spot4_UVVIS_68 K_200um_200 ms 2x2mm1_595.txt
340.368	1	4
340.710	1	-6
341.052	1	-2
341.394	1	-2
341.737	1	3
342.079	1	1
342.421	1	-5
342.763	1	-1
343.105	1	8
343.447	1	-1
343.789	1	-2
344.131	1	0
344.473	1	-3
344.815	1	1
345.157	1	4
345.499	1	9
345.841	1	-2
346.183	1	-4
346.526	1	6
346.868	1	-1
347.210	1	-3
347.552	1	4
347.894	1	-1
348.236	1	-6
348.578	1	3
348.920	1	1
349.262	1	-7
349.604	1	13
349.946	1	8
350.288	1	4
350.630	1	-9
350.972	1	0
351.314	1	-3
351.656	1	4
351.998	1	-3
352.340	1	-3
352.682	1	-2
353.024	1	-6
353.366	1	4
353.708	1	0
354.050	1	7
354.392	1	13
354.734	1	3
355.076	1	6
355.418	1	-1
355.760	1	-3
356.102	1	-5
356.444	1	11
356.785	1	4
357.127	1	-1
357.469	1	1
357.811	1	15
358.153	1	2
358.495	1	7
358.837	1	5
359.179	1	3
359.521	1	0
359.863	1	-7
360.205	1	-8
360.547	1	6
360.889	1	12
361.231	1	-2
361.572	1	6
361.914	1	-1
362.256	1	-8
362.598	1	3
362.940	1	-6
363.282	1	5
363.624	1	4
363.966	1	2
364.308	1	-11
364.649	1	3
364.991	1	5
365.333	1	6
365.675	1	-8
366.017	1	3
366.359	1	-3
366.701	1	-11
367.042	1	5
367.384	1	6
367.726	1	12
368.068	1	-6
368.410	1	6
368.752	1	-8
369.093	1	12
369.435	1	-4
369.777	1	4
370.119	1	2
370.461	1	8
370.803	1	-8
371.144	1	1
371.486	1	5
371.828	1	1
372.170	1	10
372.512	1	-2
372.853	1	-4
373.195	1	-1
373.537	1	1
373.879	1	11
374.220	1	5
374.562	1	-3
374.904	1	2
375.246	1	-3
375.588	1	3
375.929	1	3
376.271	1	-4
376.613	1	5
376.955	1	-5
377.296	1	2
377.638	1	0
377.980	1	7
378.321	1	2
378.663	1	-4
379.005	1	3
379.347	1	5
379.688	1	-3
380.030	1	-4
380.372	1	-1
380.714	1	12
381.055	1	7
381.397	1	-4
381.739	1	6
382.080	1	-7
382.422	1	20
382.764	1	2
383.105	1	0
383.447	1	18
383.789	1	9
384.130	1	-3
384.472	1	5
384.814	1	8
385.156	1	7
385.497	1	-1
385.839	1	6
386.180	1	7
386.522	1	-2
386.864	1	1
387.205	1	-3
387.547	1	-11
387.889	1	18
388.230	1	-2
388.572	1	5
388.914	1	12
389.255	1	-1
389.597	1	-7
389.939	1	12
390.280	1	7
390.622	1	-6
390.963	1	3
391.305	1	9
391.647	1	12
391.988	1	-1
392.330	1	2
392.671	1	4
393.013	1	-3
393.355	1	9
393.696	1	-7
394.038	1	-1
394.379	1	-4
394.721	1	2
395.062	1	-2
395.404	1	7
395.746	1	-2
396.087	1	3
396.429	1	3
396.770	1	11
397.112	1	-6
397.453	1	-9
397.795	1	7
398.136	1	-3
398.478	1	-7
398.819	1	14
399.161	1	9
399.503	1	-4
399.844	1	-2
400.186	1	5
400.527	1	6
400.869	1	11
401.210	1	-10
401.552	1	16
401.893	1	0
402.235	1	14
402.576	1	3
402.918	1	-2
403.259	1	-11
403.601	1	-9
403.942	1	-1
404.284	1	-3
404.625	1	0
404.967	1	5
405.308	1	-2
405.649	1	0
405.991	1	7
406.332	1	-4
406.674	1	-2
407.015	1	-1
407.357	1	6
407.698	1	-5
408.040	1	-7
408.381	1	-3
408.722	1	-1
409.064	1	9
409.405	1	17
409.747	1	2
410.088	1	4
410.430	1	4
410.771	1	2
411.112	1	-3
411.454	1	0
411.795	1	8
412.137	1	9
412.478	1	-1
412.819	1	-12
413.161	1	8
413.502	1	-6
413.844	1	2
414.185	1	4
414.526	1	-1
414.868	1	2
415.209	1	7
415.550	1	-1
415.892	1	-2
416.233	1	-2
416.575	1	-4
416.916	1	-1
417.257	1	4
417.599	1	3
417.940	1	-13
418.281	1	7
418.623	1	5
418.964	1	7
419.305	1	-1
419.647	1	9
419.988	1	-5
420.329	1	-1
420.671	1	3
421.012	1	14
421.353	1	5
421.695	1	0
422.036	1	-7
422.377	1	6
422.718	1	-4
423.060	1	-6
423.401	1	-6
423.742	1	-5
424.084	1	-12
424.425	1	-2
424.766	1	-2
425.107	1	2
425.449	1	0
425.790	1	-3
426.131	1	12
426.472	1	-8
426.814	1	10
427.155	1	4
427.496	1	7
427.837	1	-2
428.179	1	-5
428.520	1	-7
428.861	1	-3
429.202	1	13
429.544	1	-1
429.885	1	-1
430.226	1	3
430.567	1	2
430.909	1	-8
431.250	1	0
431.591	1	3
431.932	1	12
432.273	1	0
432.615	1	3
432.956	1	-1
433.297	1	6
433.638	1	6
433.979	1	1
434.320	1	-1
434.662	1	-3
435.003	1	5
435.344	1	3
435.685	1	11
436.026	1	-3
436.368	1	-8
436.709	1	0
437.050	1	8
437.391	1	4
437.732	1	-1
438.073	1	1
438.414	1	4
438.756	1	10
439.097	1	2
439.438	1	-2
439.779	1	-3
440.120	1	-3
440.461	1	-10
440.802	1	7
441.143	1	10
441.485	1	-13
441.826	1	-9
442.167	1	-4
442.508	1	1
442.849	1	8
443.190	1	-3
443.531	1	-1
443.872	1	0
444.213	1	-14
444.554	1	2
444.895	1	-15
445.237	1	3
445.578	1	4
445.919	1	-4
446.260	1	4
446.601	1	-3
446.942	1	-3
447.283	1	-1
447.624	1	16
447.965	1	-13
448.306	1	6
448.647	1	15
448.988	1	-13
449.329	1	-2
449.670	1	10
450.011	1	4
450.352	1	11
450.693	1	-1
451.034	1	1
451.375	1	5
451.716	1	9
452.057	1	-4
452.398	1	8
452.739	1	-1
453.080	1	18
453.421	1	-1
453.762	1	1
454.103	1	2
454.444	1	13
454.785	1	-9
455.126	1	-4
455.467	1	-3
455.808	1	2
456.149	1	-6
456.490	1	5
456.831	1	2
457.172	1	-4
457.513	1	10
457.854	1	-5
458.195	1	0
458.536	1	10
458.877	1	-7
459.218	1	8
459.559	1	9
459.899	1	10
460.240	1	-4
460.581	1	-1
460.922	1	-9
461.263	1	3
461.604	1	2
461.945	1	7
462.286	1	5
462.627	1	-6
462.968	1	-10
463.309	1	4
463.649	1	2
463.990	1	6
464.331	1	-1
464.672	1	2
465.013	1	-5
465.354	1	4
465.695	1	5
466.036	1	11
466.376	1	-1
466.717	1	-5
467.058	1	0
467.399	1	-2
467.740	1	3
468.081	1	-1
468.422	1	4
468.762	1	-11
469.103	1	-6
469.444	1	1
469.785	1	6
470.126	1	0
470.467	1	-5
470.807	1	3
471.148	1	-4
471.489	1	3
471.830	1	15
472.171	1	1
472.511	1	-4
472.852	1	-11
473.193	1	-5
473.534	1	7
473.875	1	9
474.215	1	-11
474.556	1	-8
474.897	1	6
475.238	1	3
475.578	1	-1
475.919	1	-2
476.260	1	-1
476.601	1	3
476.942	1	-3
477.282	1	-19
477.623	1	8
477.964	1	5
478.305	1	0
478.645	1	3
478.986	1	-7
479.327	1	-4
479.667	1	5
480.008	1	5
480.349	1	3
480.690	1	-3
481.030	1	-9
481.371	1	8
481.712	1	6
482.053	1	9
482.393	1	-13
482.734	1	-4
483.075	1	2
483.415	1	1
483.756	1	6
484.097	1	0
484.437	1	-5
484.778	1	-6
485.119	1	5
485.459	1	2
485.800	1	-3
486.141	1	-4
486.481	1	4
486.822	1	7
487.163	1	0
487.503	1	-9
487.844	1	0
488.185	1	-6
488.525	1	4
488.866	1	13
489.207	1	11
489.547	1	-4
489.888	1	9
490.228	1	-3
490.569	1	9
490.910	1	-10
491.250	1	-5
491.591	1	-6
491.932	1	10
492.272	1	8
492.613	1	6
492.953	1	14
493.294	1	1
493.635	1	-5
493.975	1	-3
494.316	1	11
494.656	1	-1
494.997	1	4
495.337	1	6
495.678	1	7
496.019	1	1
496.359	1	7
496.700	1	-6
497.040	1	-7
497.381	1	-11
497.721	1	-1
498.062	1	-2
498.403	1	8
498.743	1	11
499.084	1	-9
499.424	1	16
499.765	1	3
500.105	1	1
500.446	1	4
500.786	1	1
501.127	1	9
501.467	1	4
501.808	1	-5
502.148	1	-3
502.489	1	3
502.829	1	1
503.170	1	12
503.510	1	-8
503.851	1	-10
504.191	1	2
504.532	1	7
504.872	1	-6
505.213	1	-3
505.553	1	-2
505.894	1	2
506.234	1	10
506.575	1	-2
506.915	1	-4
507.256	1	-1
507.596	1	6
507.936	1	-5
508.277	1	0
508.617	1	2
508.958	1	-4
509.298	1	15
509.639	1	7
509.979	1	-1
510.319	1	5
510.660	1	5
511.000	1	3
511.341	1	-4
511.681	1	6
512.022	1	-12
512.362	1	-4
512.702	1	0
513.043	1	6
513.383	1	-8
513.724	1	10
514.064	1	-2
514.404	1	-3
514.745	1	0
515.085	1	-1
515.425	1	4
515.766	1	4
516.106	1	-2
516.447	1	1
516.787	1	3
517.127	1	1
517.468	1	-2
517.808	1	2
518.148	1	-3
518.489	1	-8
518.829	1	-3
519.169	1	13
519.510	1	-3
519.850	1	-7
520.190	1	-2
520.531	1	6
520.871	1	-4
521.211	1	6
521.552	1	-2
521.892	1	-3
522.232	1	-8
522.573	1	6
522.913	1	6
523.253	1	1
523.593	1	-9
523.934	1	11
524.274	1	0
524.614	1	2
524.955	1	5
525.295	1	-5
525.635	1	3
525.975	1	-5
526.316	1	4
526.656	1	11
526.996	1	9
527.337	1	-2
527.677	1	20
528.017	1	-12
528.357	1	10
528.698	1	-8
529.038	1	10
529.378	1	-1
529.718	1	1
530.058	1	0
530.399	1	10
530.739	1	9
531.079	1	6
531.419	1	3
531.760	1	8
532.100	1	2
532.440	1	-10
532.780	1	-1
533.120	1	-5
533.461	1	3
533.801	1	0
534.141	1	0
534.481	1	0
534.821	1	4
535.162	1	5
535.502	1	5
535.842	1	1
536.182	1	2
536.522	1	7
536.862	1	-1
537.203	1	12
537.543	1	3
537.883	1	14
538.223	1	9
538.563	1	1
538.903	1	6
539.243	1	9
539.584	1	-5
539.924	1	11
540.264	1	2
540.604	1	15
540.944	1	-2
541.284	1	3
541.624	1	-1
541.964	1	5
542.305	1	-4
542.645	1	4
542.985	1	-8
543.325	1	2
543.665	1	5
544.005	1	0
544.345	1	-2
544.685	1	1
545.025	1	-2
545.365	1	3
545.705	1	8
546.045	1	7
546.386	1	-1
546.726	1	1
547.066	1	-4
547.406	1	10
547.746	1	4
548.086	1	9
548.426	1	-5
548.766	1	3
549.106	1	4
549.446	1	3
549.786	1	5
550.126	1	-2
550.466	1	-3
550.806	1	8
551.146	1	-4
551.486	1	1
551.826	1	9
552.166	1	-8
552.506	1	-6
552.846	1	5
553.186	1	4
553.526	1	-2
553.866	1	6
554.206	1	-5
554.546	1	-8
554.886	1	0
555.226	1	-12
555.566	1	7
555.906	1	7
556.246	1	3
556.586	1	11
556.926	1	5
557.266	1	10
557.606	1	-5
557.946	1	0
558.286	1	2
558.626	1	-3
558.966	1	3
559.306	1	-3
559.646	1	-4
559.986	1	-5
560.325	1	-6
560.665	1	-4
561.005	1	7
561.345	1	2
561.685	1	-8
562.025	1	-15
562.365	1	6
562.705	1	16
563.045	1	0
563.385	1	-6
563.725	1	-4
564.064	1	13
564.404	1	-1
564.744	1	6
565.084	1	-8
565.424	1	-2
565.764	1	7
566.104	1	-3
566.444	1	9
566.783	1	-3
567.123	1	14
567.463	1	2
567.803	1	-7
568.143	1	-1
568.483	1	1
568.823	1	4
569.162	1	5
569.502	1	0
569.842	1	-7
570.182	1	-8
570.522	1	1
570.862	1	7
571.201	1	-1
571.541	1	-7
571.881	1	11
572.221	1	1
572.561	1	-15
572.900	1	10
573.240	1	-6
573.580	1	1
573.920	1	-8
574.260	1	1
574.599	1	-8
574.939	1	-4
575.279	1	4
575.619	1	12
575.959	1	-8
576.298	1	-10
576.638	1	-7
576.978	1	-2
577.318	1	2
577.657	1	-15
577.997	1	-5
578.337	1	-6
578.677	1	-9
579.016	1	7
579.356	1	-2
579.696	1	3
580.036	1	-3
580.375	1	0
580.715	1	7
581.055	1	3
581.394	1	-5
581.734	1	16
582.074	1	-3
582.414	1	9
582.753	1	5
583.093	1	-9
583.433	1	-13
583.772	1	-6
584.112	1	11
584.452	1	6
584.791	1	2
585.131	1	7
585.471	1	-10
585.811	1	-7
586.150	1	5
586.490	1	-9
586.830	1	-7
587.169	1	-6
587.509	1	-3
587.849	1	6
588.188	1	1
588.528	1	7
588.867	1	3
589.207	1	-2
589.547	1	0
589.886	1	-8
590.226	1	1
590.566	1	2
590.905	1	7
591.245	1	6
591.585	1	-4
591.924	1	-7
592.264	1	-2
592.603	1	-1
592.943	1	-1
593.283	1	-3
593.622	1	-4
593.962	1	6
594.301	1	7
594.641	1	-5
594.981	1	-2
595.320	1	3
595.660	1	-1
595.999	1	5
596.339	1	3
596.678	1	-3
597.018	1	-3
597.358	1	-4
597.697	1	-10
598.037	1	0
598.376	1	8
598.716	1	2
599.055	1	-1
599.395	1	6
599.734	1	-9
600.074	1	-3
600.413	1	0
600.753	1	0
601.092	1	-11
601.432	1	-10
601.771	1	7
602.111	1	1
602.451	1	2
602.790	1	1
603.130	1	4
603.469	1	-3
603.809	1	9
604.148	1	-6
604.487	1	-3
604.827	1	-4
605.166	1	-2
605.506	1	7
605.845	1	-5
606.185	1	5
606.524	1	-9
606.864	1	-7
607.203	1	6
607.543	1	-8
607.882	1	-3
608.222	1	7
608.561	1	-2
608.901	1	8
609.240	1	-1
609.579	1	-2
609.919	1	-5
610.258	1	8
610.598	1	7
610.937	1	-4
611.277	1	7
611.616	1	-9
611.955	1	9
612.295	1	3
612.634	1	-3
612.974	1	1
613.313	1	9
613.652	1	-6
613.992	1	2
614.331	1	2
614.671	1	2
615.010	1	-4
615.349	1	6
615.689	1	3
616.028	1	-3
616.368	1	-3
616.707	1	2
617.046	1	2
617.386	1	-2
617.725	1	5
618.064	1	1
618.404	1	9
618.743	1	-2
619.082	1	-1
619.422	1	6
619.761	1	-2
620.100	1	2
620.440	1	-1
620.779	1	-1
621.118	1	-2
621.458	1	2
621.797	1	5
622.136	1	3
622.476	1	2
622.815	1	0
623.154	1	1
623.494	1	5
623.833	1	-3
624.172	1	4
624.511	1	10
624.851	1	-6
625.190	1	7
625.529	1	2
625.869	1	2
626.208	1	-5
626.547	1	-5
626.886	1	-9
627.226	1	3
627.565	1	-2
627.904	1	10
628.243	1	-7
628.583	1	1
628.922	1	-10
629.261	1	4
629.600	1	2
629.940	1	6
630.279	1	-2
630.618	1	7
630.957	1	-11
631.297	1	-3
631.636	1	0
631.975	1	5
632.314	1	4
632.653	1	-2
632.993	1	7
633.332	1	7
633.671	1	-2
634.010	1	-9
634.349	1	3
634.689	1	2
635.028	1	4
635.367	1	-2
635.706	1	-5
636.045	1	5
636.384	1	4
636.724	1	-1
637.063	1	0
637.402	1	7
637.741	1	8
638.080	1	-3
638.419	1	-1
638.759	1	7
639.098	1	7
639.437	1	-3
639.776	1	-2
640.115	1	-3
640.454	1	14
640.793	1	10
641.132	1	8
641.472	1	-9
641.811	1	-2
642.150	1	-2
642.489	1	1
642.828	1	1
643.167	1	5
643.506	1	-1
643.845	1	4
644.184	1	8
644.524	1	0
644.863	1	-20
645.202	1	-6
645.541	1	-3
645.880	1	2
646.219	1	-4
646.558	1	4
646.897	1	-8
647.236	1	-4
647.575	1	3
647.914	1	-1
648.253	1	5
648.592	1	1
648.931	1	0
649.270	1	9
649.610	1	14
649.949	1	1
650.288	1	-6
650.627	1	-9
650.966	1	-6
651.305	1	4
651.644	1	2
651.983	1	2
652.322	1	10
652.661	1	6
653.000	1	-4
653.339	1	5
653.678	1	8
654.017	1	0
654.356	1	3
654.695	1	7
655.034	1	6
655.373	1	-8
655.712	1	-9
656.051	1	8
656.390	1	-2
656.729	1	-5
657.068	1	9
657.406	1	1
657.745	1	-3
658.084	1	3
658.423	1	-7
658.762	1	0
659.101	1	-4
659.440	1	6
659.779	1	-1
660.118	1	5
660.457	1	-8
660.796	1	-2
661.135	1	3
661.474	1	6
661.813	1	-5
662.152	1	-1
662.491	1	-3
662.829	1	-14
663.168	1	-4
663.507	1	-7
663.846	1	6
664.185	1	0
664.524	1	-9
664.863	1	4
665.202	1	1
665.541	1	-3
665.879	1	-2
666.218	1	-6
666.557	1	9
666.896	1	0
667.235	1	7
667.574	1	1
667.913	1	-3
668.251	1	-2
668.590	1	-11
668.929	1	-3
669.268	1	0
669.607	1	-4
669.946	1	10
670.285	1	-1
670.623	1	-3
670.962	1	1
671.301	1	-2
671.640	1	-12
671.979	1	15
672.317	1	-6
672.656	1	-1
672.995	1	1
673.334	1	8
673.673	1	18
674.011	1	1
674.350	1	-2
674.689	1	-5
675.028	1	1
675.367	1	-1
675.705	1	-7
676.044	1	-7
676.383	1	1
676.722	1	5
677.060	1	0
677.399	1	3
677.738	1	-7
678.077	1	0
678.416	1	7
678.754	1	-7
679.093	1	-1
679.432	1	-1
679.771	1	-2
680.109	1	2
680.448	1	-4
680.787	1	-3
681.125	1	9
681.464	1	-11
681.803	1	-13
682.142	1	16
682.480	1	-3
682.819	1	4
683.158	1	1
683.496	1	-9
683.835	1	6
684.174	1	-5
684.512	1	-3
684.851	1	0
685.190	1	1
685.529	1	-1
685.867	1	5
686.206	1	6
686.545	1	-1
686.883	1	-7
687.222	1	4
687.561	1	3
687.899	1	-5
688.238	1	-3
688.577	1	-2
688.746	1	-2