File: Analysis/GaN_68K_200ms/GaN_sample E_spot4_UVVIS_68 K_200um_200 ms 2x2mm1_20.txt
340.368	1	-3
340.710	1	-12
341.052	1	2
341.394	1	3
341.737	1	-3
342.079	1	-5
342.421	1	3
342.763	1	-5
343.105	1	6
343.447	1	4
343.789	1	0
344.131	1	-1
344.473	1	-5
344.815	1	4
345.157	1	4
345.499	1	3
345.841	1	0
346.183	1	-5
346.526	1	15
346.868	1	5
347.210	1	-2
347.552	1	-4
347.894	1	1
348.236	1	-6
348.578	1	2
348.920	1	11
349.262	1	6
349.604	1	15
349.946	1	9
350.288	1	7
350.630	1	-5
350.972	1	1
351.314	1	-7
351.656	1	-4
351.998	1	-1
352.340	1	6
352.682	1	-1
353.024	1	1
353.366	1	9
353.708	1	12
354.050	1	5
354.392	1	5
354.734	1	3
355.076	1	7
355.418	1	-3
355.760	1	4
356.102	1	-6
356.444	1	1
356.785	1	14
357.127	1	5
357.469	1	7
357.811	1	8
358.153	1	-4
358.495	1	14
358.837	1	-5
359.179	1	9
359.521	1	-1
359.863	1	-11
360.205	1	-11
360.547	1	0
360.889	1	6
361.231	1	-3
361.572	1	-2
361.914	1	3
362.256	1	1
362.598	1	1
362.940	1	2
363.282	1	1
363.624	1	0
363.966	1	12
364.308	1	6
364.649	1	3
364.991	1	17
365.333	1	12
365.675	1	-2
366.017	1	5
366.359	1	4
366.701	1	-13
367.042	1	16
367.384	1	10
367.726	1	7
368.068	1	-4
368.410	1	6
368.752	1	-9
369.093	1	5
369.435	1	0
369.777	1	-5
370.119	1	9
370.461	1	6
370.803	1	0
371.144	1	13
371.486	1	9
371.828	1	4
372.170	1	17
372.512	1	-3
372.853	1	1
373.195	1	-7
373.537	1	-1
373.879	1	12
374.220	1	-2
374.562	1	-2
374.904	1	2
375.246	1	10
375.588	1	-1
375.929	1	8
376.271	1	-2
376.613	1	1
376.955	1	-1
377.296	1	9
377.638	1	3
377.980	1	9
378.321	1	7
378.663	1	-10
379.005	1	10
379.347	1	8
379.688	1	-5
380.030	1	-2
380.372	1	3
380.714	1	-2
381.055	1	4
381.397	1	-6
381.739	1	5
382.080	1	-12
382.422	1	13
382.764	1	-1
383.105	1	6
383.447	1	13
383.789	1	-1
384.130	1	2
384.472	1	-5
384.814	1	-1
385.156	1	13
385.497	1	9
385.839	1	9
386.180	1	-10
386.522	1	6
386.864	1	-1
387.205	1	2
387.547	1	-3
387.889	1	6
388.230	1	1
388.572	1	-1
388.914	1	9
389.255	1	-3
389.597	1	-3
389.939	1	6
390.280	1	8
390.622	1	-5
390.963	1	0
391.305	1	2
391.647	1	1
391.988	1	-5
392.330	1	5
392.671	1	10
393.013	1	1
393.355	1	5
393.696	1	1
394.038	1	-9
394.379	1	-12
394.721	1	2
395.062	1	-5
395.404	1	2
395.746	1	-2
396.087	1	-2
396.429	1	1
396.770	1	12
397.112	1	-14
397.453	1	-11
397.795	1	7
398.136	1	4
398.478	1	-6
398.819	1	7
399.161	1	-1
399.503	1	-1
399.844	1	0
400.186	1	7
400.527	1	5
400.869	1	10
401.210	1	-7
401.552	1	5
401.893	1	-3
402.235	1	8
402.576	1	7
402.918	1	-8
403.259	1	-3
403.601	1	-11
403.942	1	7
404.284	1	1
404.625	1	1
404.967	1	0
405.308	1	4
405.649	1	0
405.991	1	11
406.332	1	-8
406.674	1	0
407.015	1	-15
407.357	1	2
407.698	1	-4
408.040	1	-5
408.381	1	-7
408.722	1	-1
409.064	1	0
409.405	1	-3
409.747	1	-3
410.088	1	-6
410.430	1	5
410.771	1	7
411.112	1	5
411.454	1	8
411.795	1	1
412.137	1	7
412.478	1	3
412.819	1	2
413.161	1	4
413.502	1	2
413.844	1	0
414.185	1	0
414.526	1	9
414.868	1	6
415.209	1	-1
415.550	1	0
415.892	1	-2
416.233	1	5
416.575	1	0
416.916	1	-4
417.257	1	4
417.599	1	0
417.940	1	-10
418.281	1	3
418.623	1	-1
418.964	1	-5
419.305	1	-1
419.647	1	0
419.988	1	-4
420.329	1	0
420.671	1	5
421.012	1	8
421.353	1	0
421.695	1	5
422.036	1	-4
422.377	1	-8
422.718	1	1
423.060	1	-2
423.401	1	1
423.742	1	-2
424.084	1	-5
424.425	1	-1
424.766	1	5
425.107	1	7
425.449	1	-5
425.790	1	-4
426.131	1	-1
426.472	1	9
426.814	1	5
427.155	1	0
427.496	1	13
427.837	1	-2
428.179	1	-7
428.520	1	-4
428.861	1	-1
429.202	1	7
429.544	1	13
429.885	1	-10
430.226	1	2
430.567	1	13
430.909	1	0
431.250	1	-11
431.591	1	4
431.932	1	4
432.273	1	-6
432.615	1	9
432.956	1	-3
433.297	1	2
433.638	1	2
433.979	1	1
434.320	1	-7
434.662	1	-8
435.003	1	0
435.344	1	-7
435.685	1	7
436.026	1	-4
436.368	1	-3
436.709	1	-6
437.050	1	2
437.391	1	8
437.732	1	1
438.073	1	5
438.414	1	5
438.756	1	7
439.097	1	8
439.438	1	7
439.779	1	-2
440.120	1	-4
440.461	1	-3
440.802	1	2
441.143	1	19
441.485	1	7
441.826	1	-11
442.167	1	-4
442.508	1	9
442.849	1	1
443.190	1	-7
443.531	1	-3
443.872	1	3
444.213	1	-4
444.554	1	-9
444.895	1	-1
445.237	1	-8
445.578	1	11
445.919	1	1
446.260	1	0
446.601	1	-3
446.942	1	-2
447.283	1	1
447.624	1	11
447.965	1	-7
448.306	1	8
448.647	1	7
448.988	1	-12
449.329	1	7
449.670	1	14
450.011	1	3
450.352	1	8
450.693	1	7
451.034	1	6
451.375	1	1
451.716	1	3
452.057	1	6
452.398	1	4
452.739	1	-8
453.080	1	13
453.421	1	-3
453.762	1	8
454.103	1	2
454.444	1	5
454.785	1	-3
455.126	1	2
455.467	1	0
455.808	1	1
456.149	1	0
456.490	1	2
456.831	1	11
457.172	1	4
457.513	1	2
457.854	1	-6
458.195	1	1
458.536	1	0
458.877	1	3
459.218	1	2
459.559	1	5
459.899	1	7
460.240	1	7
460.581	1	9
460.922	1	-1
461.263	1	14
461.604	1	7
461.945	1	10
462.286	1	12
462.627	1	2
462.968	1	3
463.309	1	3
463.649	1	-5
463.990	1	0
464.331	1	1
464.672	1	1
465.013	1	-5
465.354	1	5
465.695	1	4
466.036	1	4
466.376	1	3
466.717	1	3
467.058	1	3
467.399	1	-2
467.740	1	0
468.081	1	-3
468.422	1	2
468.762	1	-16
469.103	1	-2
469.444	1	-3
469.785	1	5
470.126	1	9
470.467	1	-2
470.807	1	1
471.148	1	2
471.489	1	4
471.830	1	12
472.171	1	-3
472.511	1	5
472.852	1	-1
473.193	1	3
473.534	1	0
473.875	1	8
474.215	1	-3
474.556	1	-7
474.897	1	6
475.238	1	3
475.578	1	3
475.919	1	4
476.260	1	-4
476.601	1	0
476.942	1	4
477.282	1	-5
477.623	1	5
477.964	1	13
478.305	1	5
478.645	1	3
478.986	1	-5
479.327	1	-12
479.667	1	4
480.008	1	1
480.349	1	3
480.690	1	2
481.030	1	0
481.371	1	7
481.712	1	9
482.053	1	16
482.393	1	-5
482.734	1	9
483.075	1	9
483.415	1	14
483.756	1	5
484.097	1	-9
484.437	1	-11
484.778	1	8
485.119	1	6
485.459	1	2
485.800	1	-6
486.141	1	-7
486.481	1	-2
486.822	1	8
487.163	1	-1
487.503	1	-12
487.844	1	1
488.185	1	-4
488.525	1	-1
488.866	1	8
489.207	1	9
489.547	1	-11
489.888	1	-8
490.228	1	-15
490.569	1	19
490.910	1	6
491.250	1	-1
491.591	1	-4
491.932	1	0
492.272	1	7
492.613	1	4
492.953	1	-5
493.294	1	12
493.635	1	0
493.975	1	-6
494.316	1	9
494.656	1	3
494.997	1	0
495.337	1	10
495.678	1	14
496.019	1	1
496.359	1	0
496.700	1	-4
497.040	1	-3
497.381	1	-9
497.721	1	-5
498.062	1	-6
498.403	1	-1
498.743	1	3
499.084	1	-9
499.424	1	12
499.765	1	-1
500.105	1	3
500.446	1	4
500.786	1	4
501.127	1	11
501.467	1	-4
501.808	1	-9
502.148	1	11
502.489	1	7
502.829	1	8
503.170	1	-2
503.510	1	-1
503.851	1	-3
504.191	1	8
504.532	1	-3
504.872	1	-18
505.213	1	1
505.553	1	7
505.894	1	10
506.234	1	8
506.575	1	-6
506.915	1	1
507.256	1	-2
507.596	1	3
507.936	1	7
508.277	1	-8
508.617	1	11
508.958	1	6
509.298	1	16
509.639	1	6
509.979	1	2
510.319	1	2
510.660	1	5
511.000	1	10
511.341	1	-6
511.681	1	-3
512.022	1	-10
512.362	1	-9
512.702	1	-12
513.043	1	-6
513.383	1	-4
513.724	1	10
514.064	1	9
514.404	1	1
514.745	1	-2
515.085	1	-2
515.425	1	-6
515.766	1	1
516.106	1	-3
516.447	1	-7
516.787	1	-8
517.127	1	4
517.468	1	-9
517.808	1	-2
518.148	1	4
518.489	1	2
518.829	1	-12
519.169	1	0
519.510	1	-6
519.850	1	-3
520.190	1	6
520.531	1	6
520.871	1	-4
521.211	1	5
521.552	1	7
521.892	1	-6
522.232	1	-12
522.573	1	8
522.913	1	10
523.253	1	4
523.593	1	-7
523.934	1	5
524.274	1	-6
524.614	1	4
524.955	1	1
525.295	1	-1
525.635	1	14
525.975	1	-4
526.316	1	0
526.656	1	23
526.996	1	10
527.337	1	0
527.677	1	16
528.017	1	-3
528.357	1	9
528.698	1	-3
529.038	1	2
529.378	1	0
529.718	1	-7
530.058	1	-6
530.399	1	12
530.739	1	-1
531.079	1	4
531.419	1	6
531.760	1	5
532.100	1	6
532.440	1	-6
532.780	1	-2
533.120	1	-5
533.461	1	19
533.801	1	-6
534.141	1	7
534.481	1	-1
534.821	1	0
535.162	1	7
535.502	1	3
535.842	1	2
536.182	1	6
536.522	1	4
536.862	1	2
537.203	1	3
537.543	1	9
537.883	1	9
538.223	1	3
538.563	1	-4
538.903	1	-10
539.243	1	0
539.584	1	-1
539.924	1	1
540.264	1	9
540.604	1	9
540.944	1	1
541.284	1	-2
541.624	1	5
541.964	1	0
542.305	1	-14
542.645	1	1
542.985	1	-6
543.325	1	-6
543.665	1	5
544.005	1	0
544.345	1	-4
544.685	1	12
545.025	1	-7
545.365	1	5
545.705	1	3
546.045	1	10
546.386	1	6
546.726	1	-1
547.066	1	-8
547.406	1	2
547.746	1	10
548.086	1	4
548.426	1	-6
548.766	1	2
549.106	1	1
549.446	1	3
549.786	1	-2
550.126	1	1
550.466	1	2
550.806	1	9
551.146	1	-3
551.486	1	-1
551.826	1	2
552.166	1	0
552.506	1	-6
552.846	1	2
553.186	1	6
553.526	1	-3
553.866	1	4
554.206	1	5
554.546	1	-13
554.886	1	2
555.226	1	-10
555.566	1	10
555.906	1	4
556.246	1	5
556.586	1	5
556.926	1	6
557.266	1	5
557.606	1	-10
557.946	1	7
558.286	1	9
558.626	1	2
558.966	1	4
559.306	1	-2
559.646	1	2
559.986	1	-3
560.325	1	-7
560.665	1	6
561.005	1	3
561.345	1	3
561.685	1	2
562.025	1	-3
562.365	1	-1
562.705	1	8
563.045	1	3
563.385	1	-4
563.725	1	6
564.064	1	1
564.404	1	-12
564.744	1	5
565.084	1	-7
565.424	1	-6
565.764	1	13
566.104	1	0
566.444	1	2
566.783	1	5
567.123	1	18
567.463	1	1
567.803	1	-9
568.143	1	-4
568.483	1	-2
568.823	1	6
569.162	1	6
569.502	1	0
569.842	1	2
570.182	1	-3
570.522	1	5
570.862	1	7
571.201	1	8
571.541	1	-4
571.881	1	11
572.221	1	3
572.561	1	3
572.900	1	12
573.240	1	-7
573.580	1	6
573.920	1	-2
574.260	1	-5
574.599	1	-6
574.939	1	3
575.279	1	11
575.619	1	2
575.959	1	3
576.298	1	-1
576.638	1	5
576.978	1	-10
577.318	1	0
577.657	1	-15
577.997	1	-5
578.337	1	-2
578.677	1	-8
579.016	1	13
579.356	1	-7
579.696	1	9
580.036	1	0
580.375	1	-6
580.715	1	10
581.055	1	-1
581.394	1	-7
581.734	1	8
582.074	1	-5
582.414	1	4
582.753	1	3
583.093	1	1
583.433	1	-10
583.772	1	-1
584.112	1	0
584.452	1	-4
584.791	1	8
585.131	1	-8
585.471	1	1
585.811	1	3
586.150	1	0
586.490	1	-6
586.830	1	4
587.169	1	5
587.509	1	5
587.849	1	3
588.188	1	-1
588.528	1	6
588.867	1	12
589.207	1	-7
589.547	1	2
589.886	1	-5
590.226	1	9
590.566	1	-1
590.905	1	2
591.245	1	2
591.585	1	0
591.924	1	-2
592.264	1	1
592.603	1	-6
592.943	1	-3
593.283	1	9
593.622	1	1
593.962	1	7
594.301	1	13
594.641	1	-8
594.981	1	-2
595.320	1	13
595.660	1	-2
595.999	1	8
596.339	1	-5
596.678	1	-5
597.018	1	1
597.358	1	0
597.697	1	-8
598.037	1	-2
598.376	1	7
598.716	1	-6
599.055	1	2
599.395	1	10
599.734	1	2
600.074	1	-5
600.413	1	-8
600.753	1	0
601.092	1	-7
601.432	1	-3
601.771	1	6
602.111	1	4
602.451	1	0
602.790	1	-1
603.130	1	11
603.469	1	-1
603.809	1	7
604.148	1	2
604.487	1	9
604.827	1	-9
605.166	1	-8
605.506	1	8
605.845	1	-2
606.185	1	-6
606.524	1	-4
606.864	1	-1
607.203	1	6
607.543	1	-11
607.882	1	-2
608.222	1	-5
608.561	1	4
608.901	1	10
609.240	1	1
609.579	1	1
609.919	1	-7
610.258	1	7
610.598	1	1
610.937	1	-7
611.277	1	10
611.616	1	-13
611.955	1	3
612.295	1	-2
612.634	1	3
612.974	1	6
613.313	1	4
613.652	1	-8
613.992	1	2
614.331	1	1
614.671	1	0
615.010	1	12
615.349	1	3
615.689	1	2
616.028	1	-3
616.368	1	0
616.707	1	-4
617.046	1	6
617.386	1	-2
617.725	1	5
618.064	1	1
618.404	1	5
618.743	1	3
619.082	1	-1
619.422	1	7
619.761	1	10
620.100	1	10
620.440	1	-2
620.779	1	-4
621.118	1	3
621.458	1	9
621.797	1	-8
622.136	1	7
622.476	1	1
622.815	1	2
623.154	1	-1
623.494	1	4
623.833	1	-3
624.172	1	9
624.511	1	6
624.851	1	-11
625.190	1	-2
625.529	1	6
625.869	1	-4
626.208	1	-5
626.547	1	7
626.886	1	-6
627.226	1	4
627.565	1	14
627.904	1	1
628.243	1	1
628.583	1	-2
628.922	1	-1
629.261	1	4
629.600	1	2
629.940	1	4
630.279	1	-4
630.618	1	9
630.957	1	-6
631.297	1	-2
631.636	1	3
631.975	1	9
632.314	1	14
632.653	1	0
632.993	1	6
633.332	1	8
633.671	1	2
634.010	1	0
634.349	1	9
634.689	1	7
635.028	1	-5
635.367	1	-2
635.706	1	0
636.045	1	-7
636.384	1	10
636.724	1	-3
637.063	1	8
637.402	1	3
637.741	1	11
638.080	1	12
638.419	1	7
638.759	1	4
639.098	1	5
639.437	1	-5
639.776	1	-8
640.115	1	-4
640.454	1	6
640.793	1	9
641.132	1	6
641.472	1	3
641.811	1	2
642.150	1	1
642.489	1	1
642.828	1	2
643.167	1	7
643.506	1	-6
643.845	1	7
644.184	1	14
644.524	1	-3
644.863	1	-3
645.202	1	-4
645.541	1	-13
645.880	1	1
646.219	1	-1
646.558	1	7
646.897	1	-2
647.236	1	6
647.575	1	7
647.914	1	11
648.253	1	6
648.592	1	2
648.931	1	9
649.270	1	6
649.610	1	13
649.949	1	-1
650.288	1	-6
650.627	1	4
650.966	1	-1
651.305	1	-1
651.644	1	-5
651.983	1	8
652.322	1	1
652.661	1	10
653.000	1	2
653.339	1	7
653.678	1	5
654.017	1	-1
654.356	1	11
654.695	1	7
655.034	1	-1
655.373	1	4
655.712	1	-4
656.051	1	6
656.390	1	0
656.729	1	7
657.068	1	-6
657.406	1	6
657.745	1	-6
658.084	1	3
658.423	1	-5
658.762	1	-5
659.101	1	5
659.440	1	4
659.779	1	-7
660.118	1	2
660.457	1	-6
660.796	1	-8
661.135	1	6
661.474	1	-5
661.813	1	-6
662.152	1	2
662.491	1	3
662.829	1	-4
663.168	1	0
663.507	1	3
663.846	1	5
664.185	1	6
664.524	1	-8
664.863	1	5
665.202	1	-8
665.541	1	-5
665.879	1	1
666.218	1	1
666.557	1	13
666.896	1	1
667.235	1	1
667.574	1	11
667.913	1	0
668.251	1	-2
668.590	1	-6
668.929	1	3
669.268	1	5
669.607	1	-5
669.946	1	14
670.285	1	-6
670.623	1	9
670.962	1	-5
671.301	1	-2
671.640	1	-13
671.979	1	14
672.317	1	-3
672.656	1	3
672.995	1	-3
673.334	1	-3
673.673	1	22
674.011	1	2
674.350	1	3
674.689	1	-2
675.028	1	5
675.367	1	2
675.705	1	-10
676.044	1	-9
676.383	1	6
676.722	1	10
677.060	1	2
677.399	1	4
677.738	1	-14
678.077	1	6
678.416	1	-1
678.754	1	5
679.093	1	-2
679.432	1	1
679.771	1	-5
680.109	1	-1
680.448	1	-6
680.787	1	2
681.125	1	12
681.464	1	3
681.803	1	-9
682.142	1	19
682.480	1	2
682.819	1	5
683.158	1	-1
683.496	1	-6
683.835	1	7
684.174	1	7
684.512	1	8
684.851	1	9
685.190	1	10
685.529	1	4
685.867	1	2
686.206	1	-3
686.545	1	6
686.883	1	2
687.222	1	-7
687.561	1	6
687.899	1	-4
688.238	1	3
688.577	1	-4
688.746	1	1