File: Analysis/GaN_68K_200ms/GaN_sample E_spot4_UVVIS_68 K_200um_200 ms 2x2mm1_226.txt
340.368	1	1
340.710	1	1
341.052	1	0
341.394	1	2
341.737	1	3
342.079	1	-3
342.421	1	-6
342.763	1	-4
343.105	1	12
343.447	1	7
343.789	1	6
344.131	1	-7
344.473	1	-5
344.815	1	5
345.157	1	9
345.499	1	12
345.841	1	4
346.183	1	1
346.526	1	8
346.868	1	0
347.210	1	0
347.552	1	2
347.894	1	4
348.236	1	-1
348.578	1	16
348.920	1	12
349.262	1	1
349.604	1	22
349.946	1	12
350.288	1	3
350.630	1	-2
350.972	1	4
351.314	1	4
351.656	1	6
351.998	1	0
352.340	1	3
352.682	1	0
353.024	1	-8
353.366	1	10
353.708	1	12
354.050	1	3
354.392	1	15
354.734	1	4
355.076	1	3
355.418	1	4
355.760	1	9
356.102	1	0
356.444	1	13
356.785	1	14
357.127	1	4
357.469	1	1
357.811	1	16
358.153	1	3
358.495	1	16
358.837	1	1
359.179	1	-1
359.521	1	9
359.863	1	-1
360.205	1	7
360.547	1	7
360.889	1	16
361.231	1	6
361.572	1	4
361.914	1	-1
362.256	1	8
362.598	1	7
362.940	1	13
363.282	1	13
363.624	1	16
363.966	1	21
364.308	1	16
364.649	1	13
364.991	1	17
365.333	1	18
365.675	1	7
366.017	1	10
366.359	1	21
366.701	1	6
367.042	1	16
367.384	1	19
367.726	1	24
368.068	1	11
368.410	1	18
368.752	1	16
369.093	1	20
369.435	1	10
369.777	1	8
370.119	1	20
370.461	1	11
370.803	1	8
371.144	1	13
371.486	1	20
371.828	1	13
372.170	1	17
372.512	1	8
372.853	1	16
373.195	1	4
373.537	1	9
373.879	1	15
374.220	1	8
374.562	1	12
374.904	1	11
375.246	1	5
375.588	1	6
375.929	1	11
376.271	1	7
376.613	1	9
376.955	1	6
377.296	1	8
377.638	1	11
377.980	1	10
378.321	1	19
378.663	1	3
379.005	1	22
379.347	1	7
379.688	1	11
380.030	1	3
380.372	1	14
380.714	1	13
381.055	1	4
381.397	1	8
381.739	1	6
382.080	1	3
382.422	1	24
382.764	1	17
383.105	1	17
383.447	1	18
383.789	1	19
384.130	1	9
384.472	1	6
384.814	1	18
385.156	1	25
385.497	1	26
385.839	1	21
386.180	1	23
386.522	1	23
386.864	1	20
387.205	1	21
387.547	1	15
387.889	1	34
388.230	1	24
388.572	1	23
388.914	1	25
389.255	1	19
389.597	1	12
389.939	1	24
390.280	1	33
390.622	1	12
390.963	1	29
391.305	1	23
391.647	1	18
391.988	1	10
392.330	1	22
392.671	1	17
393.013	1	25
393.355	1	28
393.696	1	11
394.038	1	6
394.379	1	12
394.721	1	20
395.062	1	8
395.404	1	23
395.746	1	18
396.087	1	9
396.429	1	20
396.770	1	22
397.112	1	17
397.453	1	6
397.795	1	17
398.136	1	19
398.478	1	17
398.819	1	33
399.161	1	27
399.503	1	24
399.844	1	18
400.186	1	27
400.527	1	26
400.869	1	24
401.210	1	7
401.552	1	24
401.893	1	10
402.235	1	24
402.576	1	21
402.918	1	-2
403.259	1	11
403.601	1	4
403.942	1	25
404.284	1	14
404.625	1	19
404.967	1	12
405.308	1	8
405.649	1	16
405.991	1	27
406.332	1	19
406.674	1	15
407.015	1	20
407.357	1	20
407.698	1	8
408.040	1	11
408.381	1	15
408.722	1	11
409.064	1	11
409.405	1	14
409.747	1	10
410.088	1	20
410.430	1	24
410.771	1	20
411.112	1	14
411.454	1	24
411.795	1	12
412.137	1	14
412.478	1	19
412.819	1	13
413.161	1	6
413.502	1	3
413.844	1	7
414.185	1	21
414.526	1	12
414.868	1	17
415.209	1	3
415.550	1	4
415.892	1	6
416.233	1	15
416.575	1	9
416.916	1	13
417.257	1	19
417.599	1	17
417.940	1	7
418.281	1	9
418.623	1	14
418.964	1	15
419.305	1	14
419.647	1	15
419.988	1	6
420.329	1	13
420.671	1	14
421.012	1	18
421.353	1	10
421.695	1	6
422.036	1	8
422.377	1	14
422.718	1	11
423.060	1	15
423.401	1	13
423.742	1	4
424.084	1	7
424.425	1	15
424.766	1	17
425.107	1	11
425.449	1	12
425.790	1	3
426.131	1	13
426.472	1	5
426.814	1	14
427.155	1	14
427.496	1	16
427.837	1	1
428.179	1	6
428.520	1	4
428.861	1	8
429.202	1	16
429.544	1	16
429.885	1	3
430.226	1	14
430.567	1	17
430.909	1	0
431.250	1	-3
431.591	1	13
431.932	1	12
432.273	1	3
432.615	1	9
432.956	1	2
433.297	1	20
433.638	1	2
433.979	1	-1
434.320	1	4
434.662	1	4
435.003	1	22
435.344	1	14
435.685	1	17
436.026	1	2
436.368	1	7
436.709	1	3
437.050	1	14
437.391	1	1
437.732	1	10
438.073	1	9
438.414	1	8
438.756	1	6
439.097	1	12
439.438	1	6
439.779	1	-2
440.120	1	2
440.461	1	-1
440.802	1	3
441.143	1	17
441.485	1	-8
441.826	1	2
442.167	1	7
442.508	1	7
442.849	1	9
443.190	1	-1
443.531	1	8
443.872	1	7
444.213	1	4
444.554	1	2
444.895	1	5
445.237	1	3
445.578	1	19
445.919	1	6
446.260	1	9
446.601	1	0
446.942	1	16
447.283	1	4
447.624	1	9
447.965	1	-1
448.306	1	5
448.647	1	15
448.988	1	-1
449.329	1	-1
449.670	1	2
450.011	1	11
450.352	1	15
450.693	1	10
451.034	1	9
451.375	1	15
451.716	1	13
452.057	1	5
452.398	1	10
452.739	1	10
453.080	1	12
453.421	1	7
453.762	1	14
454.103	1	1
454.444	1	17
454.785	1	8
455.126	1	0
455.467	1	0
455.808	1	2
456.149	1	6
456.490	1	2
456.831	1	21
457.172	1	0
457.513	1	4
457.854	1	9
458.195	1	1
458.536	1	9
458.877	1	4
459.218	1	8
459.559	1	6
459.899	1	12
460.240	1	7
460.581	1	13
460.922	1	6
461.263	1	8
461.604	1	2
461.945	1	12
462.286	1	13
462.627	1	-1
462.968	1	1
463.309	1	2
463.649	1	2
463.990	1	8
464.331	1	3
464.672	1	3
465.013	1	-7
465.354	1	12
465.695	1	3
466.036	1	15
466.376	1	2
466.717	1	4
467.058	1	9
467.399	1	8
467.740	1	-4
468.081	1	12
468.422	1	6
468.762	1	-3
469.103	1	1
469.444	1	0
469.785	1	9
470.126	1	-1
470.467	1	-1
470.807	1	0
471.148	1	6
471.489	1	3
471.830	1	17
472.171	1	3
472.511	1	14
472.852	1	-3
473.193	1	-5
473.534	1	6
473.875	1	10
474.215	1	7
474.556	1	-9
474.897	1	13
475.238	1	8
475.578	1	10
475.919	1	10
476.260	1	6
476.601	1	6
476.942	1	6
477.282	1	-7
477.623	1	12
477.964	1	10
478.305	1	6
478.645	1	2
478.986	1	5
479.327	1	3
479.667	1	-2
480.008	1	9
480.349	1	2
480.690	1	4
481.030	1	-2
481.371	1	5
481.712	1	14
482.053	1	4
482.393	1	2
482.734	1	2
483.075	1	2
483.415	1	12
483.756	1	11
484.097	1	-10
484.437	1	-3
484.778	1	2
485.119	1	5
485.459	1	4
485.800	1	-3
486.141	1	-3
486.481	1	6
486.822	1	12
487.163	1	3
487.503	1	-3
487.844	1	7
488.185	1	-3
488.525	1	-4
488.866	1	4
489.207	1	11
489.547	1	10
489.888	1	2
490.228	1	4
490.569	1	13
490.910	1	4
491.250	1	5
491.591	1	3
491.932	1	8
492.272	1	16
492.613	1	-3
492.953	1	13
493.294	1	6
493.635	1	-4
493.975	1	7
494.316	1	14
494.656	1	7
494.997	1	-2
495.337	1	2
495.678	1	11
496.019	1	9
496.359	1	10
496.700	1	8
497.040	1	6
497.381	1	-11
497.721	1	1
498.062	1	10
498.403	1	9
498.743	1	16
499.084	1	-4
499.424	1	17
499.765	1	9
500.105	1	18
500.446	1	18
500.786	1	6
501.127	1	17
501.467	1	9
501.808	1	-7
502.148	1	5
502.489	1	9
502.829	1	2
503.170	1	6
503.510	1	4
503.851	1	10
504.191	1	3
504.532	1	-9
504.872	1	4
505.213	1	11
505.553	1	8
505.894	1	14
506.234	1	19
506.575	1	12
506.915	1	16
507.256	1	7
507.596	1	9
507.936	1	11
508.277	1	9
508.617	1	17
508.958	1	17
509.298	1	14
509.639	1	4
509.979	1	5
510.319	1	4
510.660	1	19
511.000	1	7
511.341	1	3
511.681	1	17
512.022	1	9
512.362	1	4
512.702	1	-3
513.043	1	12
513.383	1	3
513.724	1	11
514.064	1	6
514.404	1	16
514.745	1	12
515.085	1	15
515.425	1	3
515.766	1	14
516.106	1	3
516.447	1	23
516.787	1	11
517.127	1	23
517.468	1	12
517.808	1	10
518.148	1	11
518.489	1	9
518.829	1	4
519.169	1	19
519.510	1	10
519.850	1	2
520.190	1	13
520.531	1	21
520.871	1	12
521.211	1	10
521.552	1	17
521.892	1	5
522.232	1	12
522.573	1	22
522.913	1	16
523.253	1	13
523.593	1	5
523.934	1	15
524.274	1	10
524.614	1	12
524.955	1	11
525.295	1	4
525.635	1	22
525.975	1	7
526.316	1	12
526.656	1	23
526.996	1	15
527.337	1	13
527.677	1	25
528.017	1	3
528.357	1	9
528.698	1	6
529.038	1	21
529.378	1	20
529.718	1	15
530.058	1	21
530.399	1	18
530.739	1	3
531.079	1	24
531.419	1	24
531.760	1	21
532.100	1	13
532.440	1	11
532.780	1	16
533.120	1	4
533.461	1	21
533.801	1	16
534.141	1	22
534.481	1	10
534.821	1	24
535.162	1	14
535.502	1	13
535.842	1	12
536.182	1	14
536.522	1	22
536.862	1	11
537.203	1	19
537.543	1	14
537.883	1	18
538.223	1	12
538.563	1	15
538.903	1	10
539.243	1	1
539.584	1	12
539.924	1	15
540.264	1	17
540.604	1	14
540.944	1	13
541.284	1	6
541.624	1	17
541.964	1	15
542.305	1	10
542.645	1	12
542.985	1	17
543.325	1	7
543.665	1	23
544.005	1	9
544.345	1	0
544.685	1	20
545.025	1	7
545.365	1	17
545.705	1	19
546.045	1	20
546.386	1	15
546.726	1	17
547.066	1	3
547.406	1	18
547.746	1	15
548.086	1	17
548.426	1	13
548.766	1	16
549.106	1	13
549.446	1	11
549.786	1	15
550.126	1	9
550.466	1	4
550.806	1	12
551.146	1	7
551.486	1	6
551.826	1	10
552.166	1	6
552.506	1	0
552.846	1	7
553.186	1	15
553.526	1	0
553.866	1	10
554.206	1	5
554.546	1	-1
554.886	1	12
555.226	1	10
555.566	1	15
555.906	1	14
556.246	1	6
556.586	1	12
556.926	1	8
557.266	1	17
557.606	1	-2
557.946	1	17
558.286	1	5
558.626	1	8
558.966	1	11
559.306	1	9
559.646	1	3
559.986	1	9
560.325	1	-6
560.665	1	12
561.005	1	14
561.345	1	9
561.685	1	7
562.025	1	4
562.365	1	8
562.705	1	13
563.045	1	9
563.385	1	0
563.725	1	0
564.064	1	16
564.404	1	9
564.744	1	2
565.084	1	-2
565.424	1	12
565.764	1	14
566.104	1	1
566.444	1	11
566.783	1	11
567.123	1	22
567.463	1	7
567.803	1	3
568.143	1	-5
568.483	1	-3
568.823	1	13
569.162	1	16
569.502	1	6
569.842	1	-3
570.182	1	3
570.522	1	9
570.862	1	16
571.201	1	11
571.541	1	-2
571.881	1	12
572.221	1	14
572.561	1	12
572.900	1	19
573.240	1	2
573.580	1	2
573.920	1	6
574.260	1	7
574.599	1	4
574.939	1	12
575.279	1	11
575.619	1	11
575.959	1	-2
576.298	1	2
576.638	1	6
576.978	1	8
577.318	1	14
577.657	1	-6
577.997	1	-8
578.337	1	1
578.677	1	10
579.016	1	24
579.356	1	-2
579.696	1	6
580.036	1	1
580.375	1	10
580.715	1	11
581.055	1	13
581.394	1	-7
581.734	1	2
582.074	1	7
582.414	1	14
582.753	1	5
583.093	1	4
583.433	1	3
583.772	1	10
584.112	1	6
584.452	1	9
584.791	1	5
585.131	1	-9
585.471	1	-3
585.811	1	0
586.150	1	8
586.490	1	-4
586.830	1	-10
587.169	1	7
587.509	1	2
587.849	1	16
588.188	1	5
588.528	1	10
588.867	1	11
589.207	1	2
589.547	1	-6
589.886	1	6
590.226	1	9
590.566	1	1
590.905	1	9
591.245	1	5
591.585	1	3
591.924	1	5
592.264	1	3
592.603	1	-15
592.943	1	1
593.283	1	10
593.622	1	-2
593.962	1	9
594.301	1	12
594.641	1	-8
594.981	1	8
595.320	1	9
595.660	1	0
595.999	1	0
596.339	1	10
596.678	1	-1
597.018	1	7
597.358	1	0
597.697	1	-4
598.037	1	6
598.376	1	10
598.716	1	-2
599.055	1	12
599.395	1	10
599.734	1	3
600.074	1	11
600.413	1	-6
600.753	1	4
601.092	1	-2
601.432	1	7
601.771	1	13
602.111	1	1
602.451	1	-1
602.790	1	6
603.130	1	2
603.469	1	5
603.809	1	15
604.148	1	5
604.487	1	3
604.827	1	-4
605.166	1	-4
605.506	1	10
605.845	1	2
606.185	1	4
606.524	1	12
606.864	1	7
607.203	1	8
607.543	1	-6
607.882	1	-8
608.222	1	5
608.561	1	13
608.901	1	-2
609.240	1	9
609.579	1	2
609.919	1	6
610.258	1	17
610.598	1	1
610.937	1	7
611.277	1	8
611.616	1	-4
611.955	1	10
612.295	1	2
612.634	1	-4
612.974	1	11
613.313	1	10
613.652	1	3
613.992	1	10
614.331	1	6
614.671	1	15
615.010	1	2
615.349	1	8
615.689	1	-3
616.028	1	2
616.368	1	0
616.707	1	3
617.046	1	9
617.386	1	9
617.725	1	2
618.064	1	7
618.404	1	17
618.743	1	5
619.082	1	7
619.422	1	-1
619.761	1	6
620.100	1	1
620.440	1	9
620.779	1	-8
621.118	1	7
621.458	1	13
621.797	1	1
622.136	1	7
622.476	1	15
622.815	1	6
623.154	1	8
623.494	1	0
623.833	1	-1
624.172	1	18
624.511	1	6
624.851	1	2
625.190	1	5
625.529	1	13
625.869	1	5
626.208	1	8
626.547	1	3
626.886	1	-8
627.226	1	10
627.565	1	7
627.904	1	5
628.243	1	-1
628.583	1	8
628.922	1	-1
629.261	1	10
629.600	1	8
629.940	1	-2
630.279	1	-8
630.618	1	3
630.957	1	-2
631.297	1	7
631.636	1	6
631.975	1	3
632.314	1	5
632.653	1	-3
632.993	1	5
633.332	1	9
633.671	1	4
634.010	1	3
634.349	1	5
634.689	1	9
635.028	1	6
635.367	1	12
635.706	1	-11
636.045	1	6
636.384	1	3
636.724	1	7
637.063	1	14
637.402	1	6
637.741	1	9
638.080	1	6
638.419	1	11
638.759	1	1
639.098	1	4
639.437	1	-6
639.776	1	9
640.115	1	-2
640.454	1	6
640.793	1	4
641.132	1	8
641.472	1	3
641.811	1	0
642.150	1	5
642.489	1	-6
642.828	1	0
643.167	1	14
643.506	1	4
643.845	1	1
644.184	1	3
644.524	1	0
644.863	1	-3
645.202	1	2
645.541	1	-7
645.880	1	9
646.219	1	3
646.558	1	-4
646.897	1	1
647.236	1	3
647.575	1	4
647.914	1	7
648.253	1	3
648.592	1	7
648.931	1	4
649.270	1	21
649.610	1	10
649.949	1	5
650.288	1	-6
650.627	1	6
650.966	1	-4
651.305	1	-10
651.644	1	-1
651.983	1	7
652.322	1	4
652.661	1	13
653.000	1	-3
653.339	1	4
653.678	1	14
654.017	1	2
654.356	1	7
654.695	1	8
655.034	1	9
655.373	1	-5
655.712	1	1
656.051	1	9
656.390	1	8
656.729	1	8
657.068	1	-2
657.406	1	4
657.745	1	-5
658.084	1	16
658.423	1	-9
658.762	1	3
659.101	1	2
659.440	1	15
659.779	1	0
660.118	1	2
660.457	1	2
660.796	1	-1
661.135	1	5
661.474	1	-3
661.813	1	-1
662.152	1	10
662.491	1	4
662.829	1	7
663.168	1	-2
663.507	1	5
663.846	1	6
664.185	1	0
664.524	1	-2
664.863	1	8
665.202	1	-6
665.541	1	-4
665.879	1	10
666.218	1	0
666.557	1	-1
666.896	1	1
667.235	1	6
667.574	1	-2
667.913	1	5
668.251	1	8
668.590	1	2
668.929	1	6
669.268	1	9
669.607	1	-9
669.946	1	13
670.285	1	6
670.623	1	4
670.962	1	4
671.301	1	4
671.640	1	-16
671.979	1	12
672.317	1	1
672.656	1	6
672.995	1	7
673.334	1	1
673.673	1	13
674.011	1	8
674.350	1	-8
674.689	1	-1
675.028	1	5
675.367	1	10
675.705	1	0
676.044	1	1
676.383	1	3
676.722	1	2
677.060	1	6
677.399	1	3
677.738	1	-6
678.077	1	6
678.416	1	11
678.754	1	-3
679.093	1	-1
679.432	1	2
679.771	1	3
680.109	1	10
680.448	1	7
680.787	1	2
681.125	1	6
681.464	1	-8
681.803	1	-1
682.142	1	18
682.480	1	2
682.819	1	13
683.158	1	-3
683.496	1	-6
683.835	1	7
684.174	1	5
684.512	1	4
684.851	1	5
685.190	1	16
685.529	1	8
685.867	1	7
686.206	1	0
686.545	1	12
686.883	1	4
687.222	1	4
687.561	1	8
687.899	1	-4
688.238	1	4
688.577	1	-8
688.746	1	10