File: Analysis/GaN_68K_200ms/GaN_sample E_spot4_UVVIS_68 K_200um_200 ms 2x2mm1_709.txt
340.368	1	-3
340.710	1	-11
341.052	1	4
341.394	1	-5
341.737	1	11
342.079	1	-2
342.421	1	-5
342.763	1	0
343.105	1	9
343.447	1	9
343.789	1	-7
344.131	1	-4
344.473	1	3
344.815	1	6
345.157	1	9
345.499	1	-2
345.841	1	5
346.183	1	4
346.526	1	3
346.868	1	1
347.210	1	-3
347.552	1	2
347.894	1	-5
348.236	1	0
348.578	1	5
348.920	1	3
349.262	1	-1
349.604	1	9
349.946	1	8
350.288	1	6
350.630	1	-7
350.972	1	-4
351.314	1	-3
351.656	1	9
351.998	1	-4
352.340	1	0
352.682	1	-11
353.024	1	-3
353.366	1	7
353.708	1	2
354.050	1	4
354.392	1	-1
354.734	1	-6
355.076	1	3
355.418	1	-1
355.760	1	2
356.102	1	-4
356.444	1	2
356.785	1	13
357.127	1	-2
357.469	1	2
357.811	1	12
358.153	1	3
358.495	1	8
358.837	1	9
359.179	1	9
359.521	1	1
359.863	1	-15
360.205	1	1
360.547	1	-3
360.889	1	-3
361.231	1	-4
361.572	1	-12
361.914	1	3
362.256	1	8
362.598	1	-3
362.940	1	0
363.282	1	-1
363.624	1	2
363.966	1	5
364.308	1	-5
364.649	1	-4
364.991	1	0
365.333	1	4
365.675	1	3
366.017	1	2
366.359	1	7
366.701	1	2
367.042	1	18
367.384	1	-3
367.726	1	11
368.068	1	-2
368.410	1	0
368.752	1	-13
369.093	1	-2
369.435	1	0
369.777	1	-4
370.119	1	7
370.461	1	-2
370.803	1	-3
371.144	1	11
371.486	1	-3
371.828	1	-2
372.170	1	11
372.512	1	-3
372.853	1	-1
373.195	1	2
373.537	1	-4
373.879	1	6
374.220	1	-6
374.562	1	5
374.904	1	-5
375.246	1	1
375.588	1	-2
375.929	1	-2
376.271	1	-6
376.613	1	5
376.955	1	-12
377.296	1	0
377.638	1	-7
377.980	1	6
378.321	1	2
378.663	1	-4
379.005	1	2
379.347	1	-7
379.688	1	-8
380.030	1	-3
380.372	1	4
380.714	1	0
381.055	1	-4
381.397	1	1
381.739	1	9
382.080	1	-12
382.422	1	5
382.764	1	-1
383.105	1	-3
383.447	1	4
383.789	1	3
384.130	1	-6
384.472	1	-8
384.814	1	4
385.156	1	8
385.497	1	13
385.839	1	3
386.180	1	-1
386.522	1	5
386.864	1	-9
387.205	1	-6
387.547	1	-2
387.889	1	14
388.230	1	7
388.572	1	-1
388.914	1	-1
389.255	1	3
389.597	1	-5
389.939	1	12
390.280	1	3
390.622	1	-4
390.963	1	12
391.305	1	9
391.647	1	-1
391.988	1	-7
392.330	1	14
392.671	1	12
393.013	1	9
393.355	1	17
393.696	1	-8
394.038	1	-9
394.379	1	-8
394.721	1	-3
395.062	1	-6
395.404	1	3
395.746	1	-3
396.087	1	0
396.429	1	7
396.770	1	0
397.112	1	-6
397.453	1	-12
397.795	1	1
398.136	1	9
398.478	1	0
398.819	1	13
399.161	1	-2
399.503	1	5
399.844	1	-4
400.186	1	4
400.527	1	-3
400.869	1	8
401.210	1	-5
401.552	1	22
401.893	1	1
402.235	1	7
402.576	1	-1
402.918	1	-6
403.259	1	-2
403.601	1	-11
403.942	1	7
404.284	1	-2
404.625	1	3
404.967	1	-1
405.308	1	5
405.649	1	-5
405.991	1	11
406.332	1	1
406.674	1	6
407.015	1	1
407.357	1	-4
407.698	1	-12
408.040	1	-14
408.381	1	4
408.722	1	-2
409.064	1	-2
409.405	1	1
409.747	1	-6
410.088	1	2
410.430	1	7
410.771	1	12
411.112	1	-2
411.454	1	0
411.795	1	2
412.137	1	10
412.478	1	0
412.819	1	4
413.161	1	0
413.502	1	-4
413.844	1	-1
414.185	1	2
414.526	1	0
414.868	1	-2
415.209	1	-4
415.550	1	-6
415.892	1	-6
416.233	1	5
416.575	1	6
416.916	1	-8
417.257	1	-3
417.599	1	9
417.940	1	0
418.281	1	4
418.623	1	0
418.964	1	6
419.305	1	0
419.647	1	8
419.988	1	-6
420.329	1	1
420.671	1	6
421.012	1	10
421.353	1	4
421.695	1	-7
422.036	1	1
422.377	1	1
422.718	1	-4
423.060	1	0
423.401	1	1
423.742	1	-2
424.084	1	6
424.425	1	-9
424.766	1	6
425.107	1	-3
425.449	1	6
425.790	1	0
426.131	1	1
426.472	1	-5
426.814	1	13
427.155	1	-7
427.496	1	11
427.837	1	-8
428.179	1	-6
428.520	1	-3
428.861	1	4
429.202	1	8
429.544	1	7
429.885	1	-5
430.226	1	-2
430.567	1	7
430.909	1	-5
431.250	1	-3
431.591	1	10
431.932	1	7
432.273	1	-5
432.615	1	-4
432.956	1	-10
433.297	1	3
433.638	1	1
433.979	1	2
434.320	1	4
434.662	1	-1
435.003	1	3
435.344	1	0
435.685	1	10
436.026	1	8
436.368	1	-2
436.709	1	-13
437.050	1	-3
437.391	1	7
437.732	1	5
438.073	1	-1
438.414	1	2
438.756	1	5
439.097	1	5
439.438	1	3
439.779	1	-1
440.120	1	-7
440.461	1	-4
440.802	1	-2
441.143	1	4
441.485	1	0
441.826	1	-8
442.167	1	-5
442.508	1	4
442.849	1	-2
443.190	1	-5
443.531	1	-1
443.872	1	-6
444.213	1	3
444.554	1	-5
444.895	1	5
445.237	1	-8
445.578	1	5
445.919	1	-7
446.260	1	-5
446.601	1	-8
446.942	1	1
447.283	1	1
447.624	1	8
447.965	1	-6
448.306	1	3
448.647	1	-1
448.988	1	-12
449.329	1	1
449.670	1	10
450.011	1	3
450.352	1	8
450.693	1	2
451.034	1	10
451.375	1	0
451.716	1	5
452.057	1	0
452.398	1	-1
452.739	1	-2
453.080	1	8
453.421	1	-1
453.762	1	10
454.103	1	13
454.444	1	7
454.785	1	-10
455.126	1	3
455.467	1	5
455.808	1	0
456.149	1	-4
456.490	1	-1
456.831	1	6
457.172	1	-3
457.513	1	5
457.854	1	-6
458.195	1	2
458.536	1	10
458.877	1	-5
459.218	1	1
459.559	1	-5
459.899	1	7
460.240	1	-6
460.581	1	9
460.922	1	-9
461.263	1	1
461.604	1	0
461.945	1	4
462.286	1	10
462.627	1	1
462.968	1	-4
463.309	1	3
463.649	1	1
463.990	1	-4
464.331	1	0
464.672	1	-1
465.013	1	-5
465.354	1	7
465.695	1	0
466.036	1	-6
466.376	1	-10
466.717	1	4
467.058	1	16
467.399	1	9
467.740	1	-3
468.081	1	5
468.422	1	5
468.762	1	-7
469.103	1	0
469.444	1	-7
469.785	1	7
470.126	1	2
470.467	1	-8
470.807	1	9
471.148	1	1
471.489	1	-3
471.830	1	12
472.171	1	6
472.511	1	-1
472.852	1	-4
473.193	1	-10
473.534	1	1
473.875	1	4
474.215	1	2
474.556	1	-12
474.897	1	4
475.238	1	-6
475.578	1	0
475.919	1	-5
476.260	1	5
476.601	1	5
476.942	1	-1
477.282	1	-7
477.623	1	1
477.964	1	3
478.305	1	1
478.645	1	-7
478.986	1	-7
479.327	1	0
479.667	1	0
480.008	1	4
480.349	1	3
480.690	1	1
481.030	1	-2
481.371	1	13
481.712	1	12
482.053	1	10
482.393	1	-8
482.734	1	1
483.075	1	5
483.415	1	15
483.756	1	10
484.097	1	-11
484.437	1	-6
484.778	1	-2
485.119	1	0
485.459	1	-2
485.800	1	-4
486.141	1	-2
486.481	1	3
486.822	1	1
487.163	1	-4
487.503	1	-13
487.844	1	-4
488.185	1	0
488.525	1	-2
488.866	1	12
489.207	1	6
489.547	1	-3
489.888	1	2
490.228	1	8
490.569	1	-4
490.910	1	3
491.250	1	-1
491.591	1	8
491.932	1	-5
492.272	1	8
492.613	1	1
492.953	1	6
493.294	1	6
493.635	1	-12
493.975	1	-1
494.316	1	1
494.656	1	-5
494.997	1	0
495.337	1	-7
495.678	1	11
496.019	1	-3
496.359	1	7
496.700	1	-3
497.040	1	-4
497.381	1	-14
497.721	1	-2
498.062	1	-3
498.403	1	-2
498.743	1	8
499.084	1	-1
499.424	1	7
499.765	1	-5
500.105	1	-7
500.446	1	8
500.786	1	-1
501.127	1	12
501.467	1	0
501.808	1	-11
502.148	1	4
502.489	1	13
502.829	1	2
503.170	1	3
503.510	1	-4
503.851	1	-16
504.191	1	-7
504.532	1	-7
504.872	1	-3
505.213	1	-5
505.553	1	10
505.894	1	6
506.234	1	2
506.575	1	-3
506.915	1	0
507.256	1	-1
507.596	1	6
507.936	1	1
508.277	1	-5
508.617	1	15
508.958	1	17
509.298	1	14
509.639	1	5
509.979	1	0
510.319	1	9
510.660	1	10
511.000	1	-2
511.341	1	-5
511.681	1	4
512.022	1	-6
512.362	1	-1
512.702	1	-3
513.043	1	2
513.383	1	-11
513.724	1	5
514.064	1	0
514.404	1	0
514.745	1	-1
515.085	1	-6
515.425	1	-13
515.766	1	-2
516.106	1	-7
516.447	1	7
516.787	1	-5
517.127	1	0
517.468	1	-1
517.808	1	6
518.148	1	7
518.489	1	-3
518.829	1	-9
519.169	1	3
519.510	1	-3
519.850	1	-2
520.190	1	0
520.531	1	2
520.871	1	-5
521.211	1	-2
521.552	1	-1
521.892	1	-6
522.232	1	-13
522.573	1	2
522.913	1	0
523.253	1	14
523.593	1	-8
523.934	1	0
524.274	1	-1
524.614	1	-4
524.955	1	-3
525.295	1	0
525.635	1	3
525.975	1	-8
526.316	1	-12
526.656	1	10
526.996	1	11
527.337	1	4
527.677	1	6
528.017	1	-7
528.357	1	6
528.698	1	-8
529.038	1	4
529.378	1	5
529.718	1	5
530.058	1	0
530.399	1	19
530.739	1	0
531.079	1	6
531.419	1	10
531.760	1	7
532.100	1	6
532.440	1	0
532.780	1	-1
533.120	1	0
533.461	1	17
533.801	1	1
534.141	1	8
534.481	1	5
534.821	1	3
535.162	1	3
535.502	1	1
535.842	1	-6
536.182	1	-1
536.522	1	4
536.862	1	6
537.203	1	-2
537.543	1	-7
537.883	1	15
538.223	1	8
538.563	1	-3
538.903	1	-8
539.243	1	3
539.584	1	2
539.924	1	6
540.264	1	-1
540.604	1	4
540.944	1	1
541.284	1	8
541.624	1	-2
541.964	1	-2
542.305	1	-8
542.645	1	1
542.985	1	-2
543.325	1	-5
543.665	1	8
544.005	1	2
544.345	1	-4
544.685	1	10
545.025	1	-10
545.365	1	3
545.705	1	-4
546.045	1	5
546.386	1	2
546.726	1	3
547.066	1	-15
547.406	1	15
547.746	1	0
548.086	1	8
548.426	1	4
548.766	1	2
549.106	1	9
549.446	1	7
549.786	1	1
550.126	1	-4
550.466	1	8
550.806	1	6
551.146	1	1
551.486	1	-5
551.826	1	0
552.166	1	1
552.506	1	-9
552.846	1	1
553.186	1	-4
553.526	1	5
553.866	1	-4
554.206	1	7
554.546	1	-6
554.886	1	3
555.226	1	-9
555.566	1	4
555.906	1	-2
556.246	1	-3
556.586	1	13
556.926	1	11
557.266	1	1
557.606	1	-4
557.946	1	4
558.286	1	-4
558.626	1	16
558.966	1	-3
559.306	1	-2
559.646	1	-5
559.986	1	-2
560.325	1	-5
560.665	1	4
561.005	1	4
561.345	1	-6
561.685	1	-14
562.025	1	0
562.365	1	0
562.705	1	5
563.045	1	11
563.385	1	-2
563.725	1	-3
564.064	1	1
564.404	1	-1
564.744	1	2
565.084	1	-4
565.424	1	-1
565.764	1	12
566.104	1	-9
566.444	1	5
566.783	1	3
567.123	1	18
567.463	1	-1
567.803	1	-8
568.143	1	8
568.483	1	-8
568.823	1	6
569.162	1	5
569.502	1	-7
569.842	1	1
570.182	1	-5
570.522	1	5
570.862	1	0
571.201	1	2
571.541	1	-3
571.881	1	7
572.221	1	0
572.561	1	-4
572.900	1	9
573.240	1	-6
573.580	1	5
573.920	1	3
574.260	1	-1
574.599	1	-1
574.939	1	-10
575.279	1	9
575.619	1	10
575.959	1	-7
576.298	1	-1
576.638	1	3
576.978	1	0
577.318	1	1
577.657	1	-19
577.997	1	-11
578.337	1	1
578.677	1	-1
579.016	1	11
579.356	1	-2
579.696	1	7
580.036	1	-6
580.375	1	-6
580.715	1	10
581.055	1	0
581.394	1	-5
581.734	1	3
582.074	1	-4
582.414	1	1
582.753	1	7
583.093	1	3
583.433	1	-6
583.772	1	5
584.112	1	-4
584.452	1	-2
584.791	1	6
585.131	1	-6
585.471	1	-4
585.811	1	-3
586.150	1	5
586.490	1	-7
586.830	1	-5
587.169	1	-2
587.509	1	7
587.849	1	11
588.188	1	-7
588.528	1	11
588.867	1	1
589.207	1	-14
589.547	1	1
589.886	1	-12
590.226	1	6
590.566	1	7
590.905	1	-3
591.245	1	0
591.585	1	-4
591.924	1	-2
592.264	1	3
592.603	1	-7
592.943	1	-10
593.283	1	5
593.622	1	-13
593.962	1	2
594.301	1	12
594.641	1	-6
594.981	1	-2
595.320	1	-1
595.660	1	-7
595.999	1	-7
596.339	1	3
596.678	1	1
597.018	1	2
597.358	1	7
597.697	1	-14
598.037	1	13
598.376	1	5
598.716	1	-13
599.055	1	3
599.395	1	4
599.734	1	-4
600.074	1	-13
600.413	1	4
600.753	1	0
601.092	1	-11
601.432	1	1
601.771	1	4
602.111	1	-6
602.451	1	-3
602.790	1	-1
603.130	1	4
603.469	1	5
603.809	1	6
604.148	1	-2
604.487	1	-7
604.827	1	-11
605.166	1	-4
605.506	1	9
605.845	1	-5
606.185	1	0
606.524	1	-1
606.864	1	-6
607.203	1	13
607.543	1	-4
607.882	1	-6
608.222	1	-3
608.561	1	1
608.901	1	-4
609.240	1	-8
609.579	1	4
609.919	1	-2
610.258	1	14
610.598	1	5
610.937	1	1
611.277	1	4
611.616	1	-9
611.955	1	4
612.295	1	-1
612.634	1	-1
612.974	1	9
613.313	1	-4
613.652	1	-6
613.992	1	8
614.331	1	4
614.671	1	-2
615.010	1	-10
615.349	1	3
615.689	1	3
616.028	1	1
616.368	1	-11
616.707	1	0
617.046	1	0
617.386	1	2
617.725	1	0
618.064	1	-4
618.404	1	2
618.743	1	0
619.082	1	5
619.422	1	0
619.761	1	-3
620.100	1	-6
620.440	1	-3
620.779	1	-8
621.118	1	-2
621.458	1	5
621.797	1	-1
622.136	1	10
622.476	1	6
622.815	1	-3
623.154	1	1
623.494	1	1
623.833	1	0
624.172	1	4
624.511	1	-1
624.851	1	-11
625.190	1	10
625.529	1	4
625.869	1	2
626.208	1	1
626.547	1	-4
626.886	1	-4
627.226	1	5
627.565	1	8
627.904	1	-7
628.243	1	-7
628.583	1	-1
628.922	1	1
629.261	1	1
629.600	1	5
629.940	1	10
630.279	1	-3
630.618	1	3
630.957	1	-2
631.297	1	-10
631.636	1	-8
631.975	1	4
632.314	1	6
632.653	1	-1
632.993	1	4
633.332	1	4
633.671	1	0
634.010	1	8
634.349	1	0
634.689	1	3
635.028	1	4
635.367	1	-7
635.706	1	-6
636.045	1	3
636.384	1	7
636.724	1	2
637.063	1	6
637.402	1	5
637.741	1	7
638.080	1	-4
638.419	1	6
638.759	1	9
639.098	1	3
639.437	1	-4
639.776	1	-2
640.115	1	-6
640.454	1	22
640.793	1	14
641.132	1	5
641.472	1	-4
641.811	1	0
642.150	1	0
642.489	1	1
642.828	1	4
643.167	1	9
643.506	1	2
643.845	1	1
644.184	1	11
644.524	1	-4
644.863	1	-12
645.202	1	-3
645.541	1	-6
645.880	1	-4
646.219	1	3
646.558	1	-2
646.897	1	-7
647.236	1	2
647.575	1	-2
647.914	1	-5
648.253	1	5
648.592	1	-1
648.931	1	3
649.270	1	17
649.610	1	9
649.949	1	-7
650.288	1	2
650.627	1	1
650.966	1	-6
651.305	1	-1
651.644	1	-3
651.983	1	8
652.322	1	3
652.661	1	-1
653.000	1	-8
653.339	1	6
653.678	1	-5
654.017	1	-1
654.356	1	12
654.695	1	8
655.034	1	-2
655.373	1	-3
655.712	1	-7
656.051	1	10
656.390	1	1
656.729	1	3
657.068	1	-2
657.406	1	9
657.745	1	-5
658.084	1	5
658.423	1	-5
658.762	1	0
659.101	1	-6
659.440	1	7
659.779	1	-11
660.118	1	7
660.457	1	0
660.796	1	2
661.135	1	0
661.474	1	0
661.813	1	-5
662.152	1	5
662.491	1	2
662.829	1	-4
663.168	1	-3
663.507	1	-3
663.846	1	0
664.185	1	-3
664.524	1	-10
664.863	1	-13
665.202	1	3
665.541	1	-3
665.879	1	-1
666.218	1	-9
666.557	1	4
666.896	1	-2
667.235	1	1
667.574	1	6
667.913	1	6
668.251	1	-1
668.590	1	-12
668.929	1	4
669.268	1	3
669.607	1	-6
669.946	1	3
670.285	1	4
670.623	1	2
670.962	1	-1
671.301	1	-8
671.640	1	-11
671.979	1	11
672.317	1	-6
672.656	1	1
672.995	1	4
673.334	1	5
673.673	1	8
674.011	1	-2
674.350	1	-2
674.689	1	-5
675.028	1	5
675.367	1	4
675.705	1	-9
676.044	1	-6
676.383	1	-5
676.722	1	3
677.060	1	3
677.399	1	-9
677.738	1	1
678.077	1	-2
678.416	1	1
678.754	1	1
679.093	1	10
679.432	1	-5
679.771	1	-4
680.109	1	5
680.448	1	0
680.787	1	-1
681.125	1	4
681.464	1	-3
681.803	1	-10
682.142	1	17
682.480	1	1
682.819	1	-5
683.158	1	10
683.496	1	-4
683.835	1	4
684.174	1	4
684.512	1	-3
684.851	1	0
685.190	1	0
685.529	1	5
685.867	1	3
686.206	1	-4
686.545	1	7
686.883	1	-6
687.222	1	-16
687.561	1	-1
687.899	1	-13
688.238	1	4
688.577	1	-9
688.746	1	7