File: Analysis/GaN_68K_200ms/GaN_sample E_spot4_UVVIS_68 K_200um_200 ms 2x2mm1_685.txt
340.368	1	-7
340.710	1	-15
341.052	1	-1
341.394	1	-3
341.737	1	-2
342.079	1	-5
342.421	1	-9
342.763	1	6
343.105	1	11
343.447	1	1
343.789	1	2
344.131	1	1
344.473	1	-1
344.815	1	5
345.157	1	7
345.499	1	4
345.841	1	5
346.183	1	-7
346.526	1	2
346.868	1	7
347.210	1	-4
347.552	1	-1
347.894	1	-3
348.236	1	6
348.578	1	9
348.920	1	7
349.262	1	-3
349.604	1	11
349.946	1	13
350.288	1	7
350.630	1	-11
350.972	1	-11
351.314	1	0
351.656	1	-7
351.998	1	-1
352.340	1	-10
352.682	1	-5
353.024	1	-6
353.366	1	7
353.708	1	-3
354.050	1	4
354.392	1	-3
354.734	1	-2
355.076	1	-1
355.418	1	-3
355.760	1	4
356.102	1	-4
356.444	1	4
356.785	1	10
357.127	1	-2
357.469	1	-7
357.811	1	1
358.153	1	-2
358.495	1	6
358.837	1	-5
359.179	1	-2
359.521	1	1
359.863	1	-2
360.205	1	-1
360.547	1	-6
360.889	1	-2
361.231	1	6
361.572	1	-13
361.914	1	-7
362.256	1	2
362.598	1	2
362.940	1	-4
363.282	1	13
363.624	1	-1
363.966	1	1
364.308	1	-8
364.649	1	-5
364.991	1	1
365.333	1	7
365.675	1	-7
366.017	1	0
366.359	1	2
366.701	1	-12
367.042	1	-2
367.384	1	1
367.726	1	10
368.068	1	2
368.410	1	-4
368.752	1	-14
369.093	1	-8
369.435	1	-3
369.777	1	-5
370.119	1	-2
370.461	1	-2
370.803	1	0
371.144	1	7
371.486	1	3
371.828	1	0
372.170	1	2
372.512	1	1
372.853	1	-3
373.195	1	-11
373.537	1	-1
373.879	1	2
374.220	1	3
374.562	1	4
374.904	1	-1
375.246	1	-7
375.588	1	-4
375.929	1	9
376.271	1	1
376.613	1	1
376.955	1	-14
377.296	1	7
377.638	1	-7
377.980	1	6
378.321	1	8
378.663	1	0
379.005	1	10
379.347	1	2
379.688	1	-1
380.030	1	-6
380.372	1	4
380.714	1	6
381.055	1	-6
381.397	1	-2
381.739	1	4
382.080	1	-12
382.422	1	9
382.764	1	6
383.105	1	2
383.447	1	6
383.789	1	0
384.130	1	-14
384.472	1	-4
384.814	1	7
385.156	1	7
385.497	1	14
385.839	1	10
386.180	1	8
386.522	1	11
386.864	1	-12
387.205	1	-2
387.547	1	1
387.889	1	6
388.230	1	0
388.572	1	4
388.914	1	6
389.255	1	4
389.597	1	-2
389.939	1	16
390.280	1	2
390.622	1	0
390.963	1	-1
391.305	1	3
391.647	1	-4
391.988	1	0
392.330	1	2
392.671	1	5
393.013	1	5
393.355	1	11
393.696	1	-1
394.038	1	-3
394.379	1	-2
394.721	1	7
395.062	1	-12
395.404	1	3
395.746	1	-1
396.087	1	-1
396.429	1	14
396.770	1	10
397.112	1	-4
397.453	1	-6
397.795	1	4
398.136	1	0
398.478	1	-3
398.819	1	-1
399.161	1	0
399.503	1	2
399.844	1	-8
400.186	1	4
400.527	1	7
400.869	1	11
401.210	1	3
401.552	1	17
401.893	1	0
402.235	1	8
402.576	1	10
402.918	1	-13
403.259	1	-6
403.601	1	-10
403.942	1	1
404.284	1	5
404.625	1	-1
404.967	1	-3
405.308	1	2
405.649	1	-6
405.991	1	0
406.332	1	0
406.674	1	0
407.015	1	0
407.357	1	2
407.698	1	-1
408.040	1	5
408.381	1	-14
408.722	1	1
409.064	1	-6
409.405	1	4
409.747	1	0
410.088	1	10
410.430	1	0
410.771	1	9
411.112	1	9
411.454	1	5
411.795	1	2
412.137	1	15
412.478	1	10
412.819	1	-14
413.161	1	-7
413.502	1	-5
413.844	1	2
414.185	1	7
414.526	1	5
414.868	1	10
415.209	1	-7
415.550	1	-14
415.892	1	-3
416.233	1	2
416.575	1	-2
416.916	1	-2
417.257	1	3
417.599	1	6
417.940	1	-3
418.281	1	-1
418.623	1	0
418.964	1	-1
419.305	1	1
419.647	1	8
419.988	1	-9
420.329	1	5
420.671	1	6
421.012	1	11
421.353	1	2
421.695	1	1
422.036	1	-7
422.377	1	4
422.718	1	6
423.060	1	-5
423.401	1	3
423.742	1	-3
424.084	1	2
424.425	1	-6
424.766	1	5
425.107	1	-1
425.449	1	10
425.790	1	4
426.131	1	1
426.472	1	-5
426.814	1	9
427.155	1	-4
427.496	1	1
427.837	1	-13
428.179	1	-5
428.520	1	0
428.861	1	-6
429.202	1	6
429.544	1	1
429.885	1	-4
430.226	1	-1
430.567	1	16
430.909	1	-8
431.250	1	-13
431.591	1	-1
431.932	1	3
432.273	1	-1
432.615	1	-3
432.956	1	5
433.297	1	13
433.638	1	-2
433.979	1	4
434.320	1	-3
434.662	1	1
435.003	1	1
435.344	1	-1
435.685	1	2
436.026	1	2
436.368	1	-1
436.709	1	-10
437.050	1	11
437.391	1	4
437.732	1	9
438.073	1	-3
438.414	1	-7
438.756	1	1
439.097	1	4
439.438	1	11
439.779	1	-7
440.120	1	0
440.461	1	-2
440.802	1	-9
441.143	1	3
441.485	1	-7
441.826	1	-9
442.167	1	3
442.508	1	-4
442.849	1	-5
443.190	1	-11
443.531	1	-2
443.872	1	-3
444.213	1	-5
444.554	1	2
444.895	1	-7
445.237	1	-7
445.578	1	2
445.919	1	-7
446.260	1	-5
446.601	1	-9
446.942	1	5
447.283	1	6
447.624	1	1
447.965	1	-18
448.306	1	7
448.647	1	7
448.988	1	-15
449.329	1	0
449.670	1	5
450.011	1	5
450.352	1	14
450.693	1	2
451.034	1	3
451.375	1	11
451.716	1	6
452.057	1	9
452.398	1	-1
452.739	1	-3
453.080	1	12
453.421	1	-10
453.762	1	-1
454.103	1	-1
454.444	1	11
454.785	1	1
455.126	1	4
455.467	1	-2
455.808	1	-2
456.149	1	-6
456.490	1	-2
456.831	1	7
457.172	1	7
457.513	1	3
457.854	1	0
458.195	1	2
458.536	1	5
458.877	1	4
459.218	1	8
459.559	1	-1
459.899	1	7
460.240	1	14
460.581	1	6
460.922	1	4
461.263	1	6
461.604	1	9
461.945	1	6
462.286	1	14
462.627	1	3
462.968	1	-11
463.309	1	-6
463.649	1	-1
463.990	1	-3
464.331	1	0
464.672	1	4
465.013	1	-1
465.354	1	13
465.695	1	7
466.036	1	-1
466.376	1	-2
466.717	1	-6
467.058	1	7
467.399	1	11
467.740	1	3
468.081	1	2
468.422	1	3
468.762	1	-17
469.103	1	-9
469.444	1	-6
469.785	1	8
470.126	1	8
470.467	1	-6
470.807	1	1
471.148	1	-6
471.489	1	-2
471.830	1	8
472.171	1	8
472.511	1	7
472.852	1	-2
473.193	1	-11
473.534	1	0
473.875	1	6
474.215	1	1
474.556	1	-9
474.897	1	-7
475.238	1	-11
475.578	1	11
475.919	1	4
476.260	1	5
476.601	1	-1
476.942	1	2
477.282	1	-13
477.623	1	16
477.964	1	5
478.305	1	1
478.645	1	-5
478.986	1	-5
479.327	1	4
479.667	1	3
480.008	1	3
480.349	1	-1
480.690	1	1
481.030	1	-2
481.371	1	2
481.712	1	3
482.053	1	5
482.393	1	-9
482.734	1	3
483.075	1	5
483.415	1	5
483.756	1	2
484.097	1	-12
484.437	1	-8
484.778	1	12
485.119	1	5
485.459	1	13
485.800	1	-6
486.141	1	-6
486.481	1	5
486.822	1	1
487.163	1	-10
487.503	1	-18
487.844	1	2
488.185	1	-10
488.525	1	-6
488.866	1	3
489.207	1	6
489.547	1	-8
489.888	1	-1
490.228	1	-1
490.569	1	4
490.910	1	-9
491.250	1	-1
491.591	1	-8
491.932	1	5
492.272	1	6
492.613	1	5
492.953	1	6
493.294	1	8
493.635	1	-5
493.975	1	-1
494.316	1	10
494.656	1	10
494.997	1	-3
495.337	1	3
495.678	1	4
496.019	1	-3
496.359	1	-3
496.700	1	-7
497.040	1	-4
497.381	1	-29
497.721	1	-8
498.062	1	-7
498.403	1	4
498.743	1	4
499.084	1	-11
499.424	1	10
499.765	1	-4
500.105	1	2
500.446	1	6
500.786	1	3
501.127	1	11
501.467	1	5
501.808	1	-5
502.148	1	7
502.489	1	16
502.829	1	4
503.170	1	-2
503.510	1	-1
503.851	1	-10
504.191	1	6
504.532	1	-8
504.872	1	-1
505.213	1	-10
505.553	1	-4
505.894	1	9
506.234	1	4
506.575	1	5
506.915	1	-1
507.256	1	5
507.596	1	-1
507.936	1	0
508.277	1	-5
508.617	1	5
508.958	1	6
509.298	1	17
509.639	1	3
509.979	1	1
510.319	1	-7
510.660	1	8
511.000	1	3
511.341	1	-13
511.681	1	1
512.022	1	-10
512.362	1	-6
512.702	1	-10
513.043	1	-6
513.383	1	-12
513.724	1	5
514.064	1	-4
514.404	1	0
514.745	1	5
515.085	1	5
515.425	1	-10
515.766	1	3
516.106	1	5
516.447	1	0
516.787	1	-4
517.127	1	2
517.468	1	3
517.808	1	0
518.148	1	3
518.489	1	4
518.829	1	-7
519.169	1	8
519.510	1	-3
519.850	1	-3
520.190	1	0
520.531	1	2
520.871	1	4
521.211	1	-1
521.552	1	1
521.892	1	-14
522.232	1	-3
522.573	1	2
522.913	1	9
523.253	1	4
523.593	1	-4
523.934	1	-4
524.274	1	-7
524.614	1	-4
524.955	1	4
525.295	1	1
525.635	1	3
525.975	1	-3
526.316	1	-6
526.656	1	16
526.996	1	9
527.337	1	1
527.677	1	2
528.017	1	-12
528.357	1	3
528.698	1	-4
529.038	1	3
529.378	1	2
529.718	1	4
530.058	1	-2
530.399	1	8
530.739	1	-7
531.079	1	1
531.419	1	4
531.760	1	-1
532.100	1	6
532.440	1	-3
532.780	1	1
533.120	1	-7
533.461	1	17
533.801	1	5
534.141	1	6
534.481	1	-2
534.821	1	6
535.162	1	0
535.502	1	5
535.842	1	-8
536.182	1	1
536.522	1	7
536.862	1	6
537.203	1	3
537.543	1	11
537.883	1	5
538.223	1	9
538.563	1	1
538.903	1	-5
539.243	1	1
539.584	1	5
539.924	1	3
540.264	1	4
540.604	1	-5
540.944	1	4
541.284	1	-4
541.624	1	5
541.964	1	4
542.305	1	-6
542.645	1	1
542.985	1	-11
543.325	1	-11
543.665	1	10
544.005	1	3
544.345	1	-6
544.685	1	6
545.025	1	-9
545.365	1	5
545.705	1	2
546.045	1	4
546.386	1	3
546.726	1	0
547.066	1	-9
547.406	1	5
547.746	1	3
548.086	1	9
548.426	1	0
548.766	1	8
549.106	1	5
549.446	1	6
549.786	1	2
550.126	1	-4
550.466	1	-6
550.806	1	9
551.146	1	-2
551.486	1	-3
551.826	1	3
552.166	1	2
552.506	1	-2
552.846	1	4
553.186	1	0
553.526	1	0
553.866	1	-3
554.206	1	11
554.546	1	2
554.886	1	3
555.226	1	2
555.566	1	4
555.906	1	4
556.246	1	5
556.586	1	5
556.926	1	4
557.266	1	8
557.606	1	-14
557.946	1	-2
558.286	1	4
558.626	1	7
558.966	1	-3
559.306	1	-13
559.646	1	-4
559.986	1	-3
560.325	1	-13
560.665	1	0
561.005	1	3
561.345	1	2
561.685	1	-1
562.025	1	-2
562.365	1	0
562.705	1	6
563.045	1	8
563.385	1	-3
563.725	1	-6
564.064	1	9
564.404	1	-4
564.744	1	3
565.084	1	-9
565.424	1	-3
565.764	1	0
566.104	1	2
566.444	1	8
566.783	1	2
567.123	1	8
567.463	1	-7
567.803	1	-7
568.143	1	-1
568.483	1	-5
568.823	1	10
569.162	1	2
569.502	1	0
569.842	1	6
570.182	1	2
570.522	1	5
570.862	1	2
571.201	1	6
571.541	1	1
571.881	1	-2
572.221	1	2
572.561	1	-9
572.900	1	14
573.240	1	-3
573.580	1	3
573.920	1	3
574.260	1	-2
574.599	1	-2
574.939	1	0
575.279	1	3
575.619	1	2
575.959	1	-10
576.298	1	-13
576.638	1	2
576.978	1	5
577.318	1	4
577.657	1	-3
577.997	1	-5
578.337	1	-5
578.677	1	1
579.016	1	6
579.356	1	-11
579.696	1	-1
580.036	1	-5
580.375	1	2
580.715	1	10
581.055	1	4
581.394	1	-2
581.734	1	5
582.074	1	-9
582.414	1	4
582.753	1	-4
583.093	1	-7
583.433	1	-6
583.772	1	1
584.112	1	5
584.452	1	-2
584.791	1	-6
585.131	1	-10
585.471	1	1
585.811	1	-13
586.150	1	-3
586.490	1	-9
586.830	1	-9
587.169	1	-2
587.509	1	4
587.849	1	6
588.188	1	2
588.528	1	1
588.867	1	5
589.207	1	-8
589.547	1	-11
589.886	1	-2
590.226	1	7
590.566	1	2
590.905	1	0
591.245	1	3
591.585	1	-6
591.924	1	-9
592.264	1	-1
592.603	1	-12
592.943	1	-10
593.283	1	-1
593.622	1	1
593.962	1	0
594.301	1	17
594.641	1	-7
594.981	1	-3
595.320	1	3
595.660	1	0
595.999	1	6
596.339	1	3
596.678	1	-5
597.018	1	8
597.358	1	6
597.697	1	-2
598.037	1	-4
598.376	1	1
598.716	1	-7
599.055	1	-8
599.395	1	0
599.734	1	1
600.074	1	-3
600.413	1	-4
600.753	1	-2
601.092	1	-5
601.432	1	-1
601.771	1	9
602.111	1	-9
602.451	1	0
602.790	1	4
603.130	1	-1
603.469	1	-7
603.809	1	8
604.148	1	2
604.487	1	-6
604.827	1	-10
605.166	1	-6
605.506	1	4
605.845	1	7
606.185	1	-1
606.524	1	-4
606.864	1	1
607.203	1	6
607.543	1	-6
607.882	1	-4
608.222	1	1
608.561	1	5
608.901	1	-4
609.240	1	3
609.579	1	2
609.919	1	-4
610.258	1	3
610.598	1	-2
610.937	1	3
611.277	1	6
611.616	1	-8
611.955	1	1
612.295	1	3
612.634	1	-3
612.974	1	8
613.313	1	0
613.652	1	-14
613.992	1	-2
614.331	1	9
614.671	1	0
615.010	1	-1
615.349	1	-4
615.689	1	-7
616.028	1	5
616.368	1	-6
616.707	1	-2
617.046	1	8
617.386	1	-4
617.725	1	9
618.064	1	-7
618.404	1	4
618.743	1	-9
619.082	1	2
619.422	1	4
619.761	1	6
620.100	1	1
620.440	1	6
620.779	1	2
621.118	1	-1
621.458	1	0
621.797	1	-4
622.136	1	12
622.476	1	4
622.815	1	-5
623.154	1	10
623.494	1	10
623.833	1	-5
624.172	1	2
624.511	1	-5
624.851	1	-8
625.190	1	10
625.529	1	0
625.869	1	10
626.208	1	1
626.547	1	4
626.886	1	9
627.226	1	1
627.565	1	5
627.904	1	7
628.243	1	-8
628.583	1	-4
628.922	1	-3
629.261	1	13
629.600	1	-1
629.940	1	2
630.279	1	-2
630.618	1	3
630.957	1	-9
631.297	1	-7
631.636	1	2
631.975	1	5
632.314	1	3
632.653	1	-13
632.993	1	4
633.332	1	3
633.671	1	8
634.010	1	-1
634.349	1	5
634.689	1	15
635.028	1	-3
635.367	1	-6
635.706	1	-2
636.045	1	-1
636.384	1	8
636.724	1	5
637.063	1	6
637.402	1	0
637.741	1	4
638.080	1	0
638.419	1	5
638.759	1	1
639.098	1	-1
639.437	1	-3
639.776	1	-8
640.115	1	-7
640.454	1	8
640.793	1	3
641.132	1	-2
641.472	1	-2
641.811	1	-9
642.150	1	6
642.489	1	-9
642.828	1	0
643.167	1	10
643.506	1	-7
643.845	1	4
644.184	1	1
644.524	1	-3
644.863	1	-7
645.202	1	8
645.541	1	-12
645.880	1	-2
646.219	1	6
646.558	1	-8
646.897	1	1
647.236	1	7
647.575	1	2
647.914	1	-1
648.253	1	5
648.592	1	-2
648.931	1	7
649.270	1	6
649.610	1	4
649.949	1	-1
650.288	1	-3
650.627	1	0
650.966	1	-3
651.305	1	0
651.644	1	-4
651.983	1	0
652.322	1	5
652.661	1	0
653.000	1	-2
653.339	1	4
653.678	1	-4
654.017	1	-9
654.356	1	8
654.695	1	4
655.034	1	5
655.373	1	0
655.712	1	-4
656.051	1	-4
656.390	1	-1
656.729	1	2
657.068	1	-4
657.406	1	4
657.745	1	-3
658.084	1	21
658.423	1	-12
658.762	1	-11
659.101	1	2
659.440	1	6
659.779	1	2
660.118	1	1
660.457	1	3
660.796	1	-1
661.135	1	5
661.474	1	5
661.813	1	-4
662.152	1	0
662.491	1	-8
662.829	1	-3
663.168	1	-10
663.507	1	6
663.846	1	0
664.185	1	-3
664.524	1	-8
664.863	1	1
665.202	1	-6
665.541	1	-1
665.879	1	2
666.218	1	-18
666.557	1	2
666.896	1	-3
667.235	1	-3
667.574	1	3
667.913	1	-7
668.251	1	4
668.590	1	-7
668.929	1	-8
669.268	1	4
669.607	1	-11
669.946	1	3
670.285	1	3
670.623	1	0
670.962	1	0
671.301	1	-2
671.640	1	-17
671.979	1	4
672.317	1	-1
672.656	1	1
672.995	1	10
673.334	1	5
673.673	1	15
674.011	1	5
674.350	1	-12
674.689	1	-3
675.028	1	-1
675.367	1	7
675.705	1	-5
676.044	1	-3
676.383	1	-1
676.722	1	-3
677.060	1	5
677.399	1	-2
677.738	1	-5
678.077	1	-1
678.416	1	-3
678.754	1	-10
679.093	1	7
679.432	1	-9
679.771	1	-6
680.109	1	11
680.448	1	1
680.787	1	-6
681.125	1	5
681.464	1	-6
681.803	1	-10
682.142	1	11
682.480	1	0
682.819	1	-3
683.158	1	1
683.496	1	-11
683.835	1	-4
684.174	1	-4
684.512	1	-7
684.851	1	-1
685.190	1	2
685.529	1	-2
685.867	1	-4
686.206	1	6
686.545	1	5
686.883	1	-7
687.222	1	-3
687.561	1	0
687.899	1	2
688.238	1	1
688.577	1	-7
688.746	1	1