File: Analysis/GaN_68K_200ms/GaN_sample E_spot4_UVVIS_68 K_200um_200 ms 2x2mm1_745.txt
340.368	1	-10
340.710	1	-3
341.052	1	-2
341.394	1	-4
341.737	1	15
342.079	1	-5
342.421	1	-10
342.763	1	-6
343.105	1	15
343.447	1	7
343.789	1	-2
344.131	1	6
344.473	1	4
344.815	1	2
345.157	1	-1
345.499	1	7
345.841	1	0
346.183	1	3
346.526	1	4
346.868	1	-1
347.210	1	-1
347.552	1	-7
347.894	1	2
348.236	1	-1
348.578	1	9
348.920	1	11
349.262	1	1
349.604	1	14
349.946	1	9
350.288	1	-9
350.630	1	-9
350.972	1	4
351.314	1	-1
351.656	1	2
351.998	1	-7
352.340	1	-1
352.682	1	-10
353.024	1	-9
353.366	1	5
353.708	1	5
354.050	1	-2
354.392	1	7
354.734	1	-6
355.076	1	7
355.418	1	-12
355.760	1	4
356.102	1	-3
356.444	1	5
356.785	1	9
357.127	1	1
357.469	1	3
357.811	1	19
358.153	1	7
358.495	1	16
358.837	1	-6
359.179	1	-1
359.521	1	-5
359.863	1	-2
360.205	1	-6
360.547	1	8
360.889	1	15
361.231	1	4
361.572	1	-5
361.914	1	-9
362.256	1	-1
362.598	1	-2
362.940	1	3
363.282	1	-5
363.624	1	3
363.966	1	-1
364.308	1	-7
364.649	1	-2
364.991	1	1
365.333	1	4
365.675	1	-4
366.017	1	3
366.359	1	-3
366.701	1	-6
367.042	1	8
367.384	1	-5
367.726	1	10
368.068	1	6
368.410	1	-1
368.752	1	-11
369.093	1	2
369.435	1	-8
369.777	1	3
370.119	1	8
370.461	1	3
370.803	1	0
371.144	1	14
371.486	1	1
371.828	1	5
372.170	1	8
372.512	1	-6
372.853	1	6
373.195	1	-13
373.537	1	4
373.879	1	17
374.220	1	-3
374.562	1	5
374.904	1	1
375.246	1	-3
375.588	1	1
375.929	1	6
376.271	1	-4
376.613	1	0
376.955	1	-6
377.296	1	2
377.638	1	6
377.980	1	-4
378.321	1	8
378.663	1	-7
379.005	1	5
379.347	1	-2
379.688	1	-1
380.030	1	-7
380.372	1	0
380.714	1	7
381.055	1	-4
381.397	1	-6
381.739	1	10
382.080	1	-21
382.422	1	9
382.764	1	-6
383.105	1	-2
383.447	1	4
383.789	1	-7
384.130	1	-7
384.472	1	-8
384.814	1	6
385.156	1	8
385.497	1	6
385.839	1	4
386.180	1	2
386.522	1	3
386.864	1	-3
387.205	1	-7
387.547	1	-1
387.889	1	8
388.230	1	-5
388.572	1	4
388.914	1	9
389.255	1	-5
389.597	1	-13
389.939	1	1
390.280	1	12
390.622	1	2
390.963	1	-3
391.305	1	3
391.647	1	1
391.988	1	2
392.330	1	6
392.671	1	6
393.013	1	7
393.355	1	8
393.696	1	6
394.038	1	1
394.379	1	-7
394.721	1	-3
395.062	1	-2
395.404	1	8
395.746	1	-4
396.087	1	7
396.429	1	4
396.770	1	10
397.112	1	3
397.453	1	-10
397.795	1	-1
398.136	1	-3
398.478	1	-2
398.819	1	3
399.161	1	1
399.503	1	0
399.844	1	-1
400.186	1	17
400.527	1	7
400.869	1	11
401.210	1	0
401.552	1	9
401.893	1	-2
402.235	1	7
402.576	1	9
402.918	1	1
403.259	1	-14
403.601	1	4
403.942	1	13
404.284	1	-7
404.625	1	12
404.967	1	-2
405.308	1	-10
405.649	1	-2
405.991	1	2
406.332	1	-9
406.674	1	-1
407.015	1	-5
407.357	1	3
407.698	1	-5
408.040	1	-1
408.381	1	8
408.722	1	-4
409.064	1	5
409.405	1	0
409.747	1	-5
410.088	1	-1
410.430	1	11
410.771	1	-3
411.112	1	9
411.454	1	3
411.795	1	0
412.137	1	9
412.478	1	7
412.819	1	2
413.161	1	-5
413.502	1	-2
413.844	1	1
414.185	1	1
414.526	1	0
414.868	1	15
415.209	1	-1
415.550	1	-10
415.892	1	-6
416.233	1	5
416.575	1	-5
416.916	1	-6
417.257	1	4
417.599	1	6
417.940	1	-2
418.281	1	-7
418.623	1	-2
418.964	1	-2
419.305	1	-10
419.647	1	-3
419.988	1	-13
420.329	1	-2
420.671	1	3
421.012	1	8
421.353	1	4
421.695	1	5
422.036	1	4
422.377	1	8
422.718	1	-6
423.060	1	-5
423.401	1	2
423.742	1	2
424.084	1	-2
424.425	1	0
424.766	1	12
425.107	1	-2
425.449	1	5
425.790	1	-12
426.131	1	0
426.472	1	0
426.814	1	10
427.155	1	-1
427.496	1	2
427.837	1	-14
428.179	1	-5
428.520	1	1
428.861	1	-1
429.202	1	6
429.544	1	5
429.885	1	7
430.226	1	-5
430.567	1	10
430.909	1	-11
431.250	1	-10
431.591	1	5
431.932	1	4
432.273	1	2
432.615	1	3
432.956	1	-7
433.297	1	-2
433.638	1	-4
433.979	1	5
434.320	1	1
434.662	1	-8
435.003	1	7
435.344	1	-1
435.685	1	4
436.026	1	0
436.368	1	-12
436.709	1	-4
437.050	1	9
437.391	1	2
437.732	1	-2
438.073	1	1
438.414	1	-1
438.756	1	5
439.097	1	10
439.438	1	9
439.779	1	-5
440.120	1	-7
440.461	1	-11
440.802	1	-2
441.143	1	5
441.485	1	-5
441.826	1	-9
442.167	1	-5
442.508	1	5
442.849	1	-2
443.190	1	-9
443.531	1	-6
443.872	1	7
444.213	1	-2
444.554	1	-5
444.895	1	-1
445.237	1	-2
445.578	1	8
445.919	1	-6
446.260	1	9
446.601	1	-4
446.942	1	-5
447.283	1	1
447.624	1	8
447.965	1	3
448.306	1	0
448.647	1	9
448.988	1	-4
449.329	1	4
449.670	1	5
450.011	1	11
450.352	1	11
450.693	1	8
451.034	1	6
451.375	1	4
451.716	1	8
452.057	1	3
452.398	1	0
452.739	1	-5
453.080	1	8
453.421	1	-3
453.762	1	2
454.103	1	1
454.444	1	6
454.785	1	-6
455.126	1	-5
455.467	1	1
455.808	1	-4
456.149	1	-7
456.490	1	10
456.831	1	8
457.172	1	1
457.513	1	2
457.854	1	-6
458.195	1	-7
458.536	1	-3
458.877	1	6
459.218	1	5
459.559	1	2
459.899	1	11
460.240	1	6
460.581	1	0
460.922	1	6
461.263	1	-1
461.604	1	-4
461.945	1	5
462.286	1	6
462.627	1	2
462.968	1	-6
463.309	1	1
463.649	1	7
463.990	1	-7
464.331	1	5
464.672	1	-3
465.013	1	2
465.354	1	2
465.695	1	10
466.036	1	-1
466.376	1	1
466.717	1	-5
467.058	1	11
467.399	1	5
467.740	1	-6
468.081	1	-4
468.422	1	7
468.762	1	-3
469.103	1	-14
469.444	1	-10
469.785	1	0
470.126	1	6
470.467	1	-4
470.807	1	6
471.148	1	-2
471.489	1	5
471.830	1	8
472.171	1	1
472.511	1	4
472.852	1	-5
473.193	1	3
473.534	1	-5
473.875	1	7
474.215	1	0
474.556	1	-11
474.897	1	5
475.238	1	-7
475.578	1	0
475.919	1	0
476.260	1	-1
476.601	1	-2
476.942	1	4
477.282	1	-3
477.623	1	6
477.964	1	6
478.305	1	2
478.645	1	-10
478.986	1	1
479.327	1	-5
479.667	1	-3
480.008	1	5
480.349	1	-2
480.690	1	1
481.030	1	-8
481.371	1	6
481.712	1	9
482.053	1	2
482.393	1	-10
482.734	1	-1
483.075	1	8
483.415	1	6
483.756	1	9
484.097	1	-16
484.437	1	-11
484.778	1	7
485.119	1	1
485.459	1	-3
485.800	1	-4
486.141	1	-11
486.481	1	2
486.822	1	-2
487.163	1	-8
487.503	1	-13
487.844	1	2
488.185	1	-5
488.525	1	-4
488.866	1	-2
489.207	1	9
489.547	1	-1
489.888	1	-7
490.228	1	-8
490.569	1	4
490.910	1	-9
491.250	1	0
491.591	1	-2
491.932	1	-1
492.272	1	5
492.613	1	7
492.953	1	0
493.294	1	9
493.635	1	2
493.975	1	-4
494.316	1	3
494.656	1	2
494.997	1	-1
495.337	1	10
495.678	1	13
496.019	1	-10
496.359	1	-4
496.700	1	2
497.040	1	0
497.381	1	-14
497.721	1	-4
498.062	1	-5
498.403	1	2
498.743	1	-4
499.084	1	-8
499.424	1	4
499.765	1	-8
500.105	1	11
500.446	1	3
500.786	1	6
501.127	1	11
501.467	1	1
501.808	1	-15
502.148	1	-10
502.489	1	1
502.829	1	-7
503.170	1	-3
503.510	1	-1
503.851	1	-8
504.191	1	3
504.532	1	-4
504.872	1	-13
505.213	1	10
505.553	1	1
505.894	1	5
506.234	1	14
506.575	1	7
506.915	1	1
507.256	1	-5
507.596	1	1
507.936	1	-1
508.277	1	1
508.617	1	12
508.958	1	14
509.298	1	15
509.639	1	-5
509.979	1	0
510.319	1	-4
510.660	1	6
511.000	1	4
511.341	1	-8
511.681	1	-5
512.022	1	-3
512.362	1	0
512.702	1	-11
513.043	1	1
513.383	1	-6
513.724	1	1
514.064	1	1
514.404	1	0
514.745	1	4
515.085	1	-1
515.425	1	6
515.766	1	-3
516.106	1	-8
516.447	1	6
516.787	1	-8
517.127	1	2
517.468	1	-4
517.808	1	-5
518.148	1	-2
518.489	1	-2
518.829	1	-2
519.169	1	7
519.510	1	4
519.850	1	-6
520.190	1	-4
520.531	1	7
520.871	1	-7
521.211	1	3
521.552	1	6
521.892	1	-8
522.232	1	-6
522.573	1	-7
522.913	1	2
523.253	1	4
523.593	1	-11
523.934	1	11
524.274	1	-5
524.614	1	3
524.955	1	2
525.295	1	-6
525.635	1	7
525.975	1	2
526.316	1	-4
526.656	1	17
526.996	1	12
527.337	1	4
527.677	1	8
528.017	1	-8
528.357	1	3
528.698	1	-6
529.038	1	8
529.378	1	0
529.718	1	12
530.058	1	-3
530.399	1	5
530.739	1	0
531.079	1	14
531.419	1	7
531.760	1	10
532.100	1	8
532.440	1	-3
532.780	1	0
533.120	1	-13
533.461	1	11
533.801	1	3
534.141	1	2
534.481	1	1
534.821	1	-2
535.162	1	6
535.502	1	5
535.842	1	-1
536.182	1	-3
536.522	1	11
536.862	1	-3
537.203	1	11
537.543	1	1
537.883	1	10
538.223	1	5
538.563	1	-11
538.903	1	0
539.243	1	2
539.584	1	-6
539.924	1	2
540.264	1	0
540.604	1	11
540.944	1	-10
541.284	1	0
541.624	1	-4
541.964	1	5
542.305	1	-9
542.645	1	0
542.985	1	7
543.325	1	-7
543.665	1	6
544.005	1	-8
544.345	1	2
544.685	1	5
545.025	1	-8
545.365	1	1
545.705	1	7
546.045	1	6
546.386	1	6
546.726	1	-5
547.066	1	-6
547.406	1	2
547.746	1	11
548.086	1	-4
548.426	1	-6
548.766	1	7
549.106	1	10
549.446	1	-3
549.786	1	0
550.126	1	-7
550.466	1	-8
550.806	1	6
551.146	1	1
551.486	1	5
551.826	1	7
552.166	1	0
552.506	1	0
552.846	1	4
553.186	1	1
553.526	1	-8
553.866	1	-2
554.206	1	-2
554.546	1	-7
554.886	1	2
555.226	1	-8
555.566	1	7
555.906	1	5
556.246	1	-5
556.586	1	8
556.926	1	4
557.266	1	2
557.606	1	-10
557.946	1	4
558.286	1	9
558.626	1	6
558.966	1	4
559.306	1	-1
559.646	1	-4
559.986	1	-6
560.325	1	-15
560.665	1	2
561.005	1	4
561.345	1	5
561.685	1	-7
562.025	1	-5
562.365	1	6
562.705	1	-3
563.045	1	3
563.385	1	2
563.725	1	-2
564.064	1	5
564.404	1	2
564.744	1	6
565.084	1	-8
565.424	1	-13
565.764	1	11
566.104	1	-3
566.444	1	11
566.783	1	0
567.123	1	8
567.463	1	2
567.803	1	-6
568.143	1	-12
568.483	1	-1
568.823	1	6
569.162	1	-4
569.502	1	-6
569.842	1	-3
570.182	1	-9
570.522	1	4
570.862	1	2
571.201	1	9
571.541	1	-3
571.881	1	3
572.221	1	0
572.561	1	-3
572.900	1	7
573.240	1	-10
573.580	1	5
573.920	1	6
574.260	1	-8
574.599	1	2
574.939	1	-7
575.279	1	4
575.619	1	0
575.959	1	-2
576.298	1	-11
576.638	1	-3
576.978	1	2
577.318	1	2
577.657	1	-9
577.997	1	-4
578.337	1	-6
578.677	1	-4
579.016	1	8
579.356	1	2
579.696	1	-5
580.036	1	8
580.375	1	-1
580.715	1	8
581.055	1	4
581.394	1	-4
581.734	1	9
582.074	1	-4
582.414	1	0
582.753	1	6
583.093	1	-6
583.433	1	-8
583.772	1	2
584.112	1	3
584.452	1	-8
584.791	1	1
585.131	1	-6
585.471	1	-3
585.811	1	4
586.150	1	7
586.490	1	-3
586.830	1	-13
587.169	1	5
587.509	1	0
587.849	1	-1
588.188	1	-5
588.528	1	-2
588.867	1	2
589.207	1	-8
589.547	1	-5
589.886	1	-1
590.226	1	10
590.566	1	1
590.905	1	0
591.245	1	-7
591.585	1	-8
591.924	1	-5
592.264	1	-2
592.603	1	-4
592.943	1	-1
593.283	1	5
593.622	1	0
593.962	1	1
594.301	1	8
594.641	1	-4
594.981	1	0
595.320	1	8
595.660	1	-10
595.999	1	3
596.339	1	6
596.678	1	-10
597.018	1	-6
597.358	1	4
597.697	1	-5
598.037	1	-1
598.376	1	-1
598.716	1	-14
599.055	1	3
599.395	1	-1
599.734	1	-9
600.074	1	-11
600.413	1	3
600.753	1	7
601.092	1	-12
601.432	1	-6
601.771	1	3
602.111	1	-9
602.451	1	1
602.790	1	5
603.130	1	9
603.469	1	-1
603.809	1	0
604.148	1	0
604.487	1	2
604.827	1	-8
605.166	1	-5
605.506	1	9
605.845	1	-6
606.185	1	4
606.524	1	3
606.864	1	3
607.203	1	15
607.543	1	-8
607.882	1	-2
608.222	1	3
608.561	1	-5
608.901	1	-4
609.240	1	7
609.579	1	3
609.919	1	1
610.258	1	3
610.598	1	-3
610.937	1	5
611.277	1	3
611.616	1	-6
611.955	1	-3
612.295	1	0
612.634	1	-6
612.974	1	-1
613.313	1	-5
613.652	1	-5
613.992	1	7
614.331	1	4
614.671	1	3
615.010	1	0
615.349	1	10
615.689	1	0
616.028	1	-5
616.368	1	1
616.707	1	-2
617.046	1	4
617.386	1	-9
617.725	1	3
618.064	1	-6
618.404	1	7
618.743	1	7
619.082	1	3
619.422	1	7
619.761	1	-4
620.100	1	4
620.440	1	9
620.779	1	5
621.118	1	2
621.458	1	8
621.797	1	7
622.136	1	1
622.476	1	3
622.815	1	2
623.154	1	2
623.494	1	5
623.833	1	-3
624.172	1	13
624.511	1	3
624.851	1	-3
625.190	1	4
625.529	1	7
625.869	1	1
626.208	1	-1
626.547	1	1
626.886	1	-2
627.226	1	5
627.565	1	3
627.904	1	-3
628.243	1	-4
628.583	1	8
628.922	1	-6
629.261	1	3
629.600	1	0
629.940	1	10
630.279	1	-3
630.618	1	2
630.957	1	-10
631.297	1	-4
631.636	1	-2
631.975	1	-1
632.314	1	11
632.653	1	-9
632.993	1	9
633.332	1	-1
633.671	1	3
634.010	1	-3
634.349	1	7
634.689	1	18
635.028	1	7
635.367	1	1
635.706	1	-3
636.045	1	0
636.384	1	12
636.724	1	1
637.063	1	4
637.402	1	4
637.741	1	2
638.080	1	3
638.419	1	6
638.759	1	-4
639.098	1	0
639.437	1	-14
639.776	1	-5
640.115	1	-3
640.454	1	9
640.793	1	1
641.132	1	6
641.472	1	4
641.811	1	-1
642.150	1	-4
642.489	1	-5
642.828	1	2
643.167	1	4
643.506	1	-16
643.845	1	1
644.184	1	-1
644.524	1	-12
644.863	1	-8
645.202	1	4
645.541	1	-17
645.880	1	-1
646.219	1	-5
646.558	1	-5
646.897	1	-1
647.236	1	-1
647.575	1	-2
647.914	1	-1
648.253	1	0
648.592	1	-1
648.931	1	7
649.270	1	10
649.610	1	9
649.949	1	3
650.288	1	-4
650.627	1	-6
650.966	1	0
651.305	1	-5
651.644	1	3
651.983	1	0
652.322	1	5
652.661	1	5
653.000	1	2
653.339	1	-1
653.678	1	6
654.017	1	-2
654.356	1	8
654.695	1	2
655.034	1	-2
655.373	1	-3
655.712	1	-6
656.051	1	3
656.390	1	-6
656.729	1	2
657.068	1	8
657.406	1	15
657.745	1	-11
658.084	1	7
658.423	1	-8
658.762	1	-6
659.101	1	-6
659.440	1	10
659.779	1	-16
660.118	1	10
660.457	1	-1
660.796	1	-4
661.135	1	2
661.474	1	4
661.813	1	2
662.152	1	-4
662.491	1	1
662.829	1	-3
663.168	1	-6
663.507	1	4
663.846	1	3
664.185	1	-1
664.524	1	-12
664.863	1	-1
665.202	1	-3
665.541	1	1
665.879	1	-8
666.218	1	-16
666.557	1	-8
666.896	1	-9
667.235	1	3
667.574	1	-2
667.913	1	0
668.251	1	-2
668.590	1	-10
668.929	1	4
669.268	1	7
669.607	1	-6
669.946	1	6
670.285	1	3
670.623	1	2
670.962	1	-7
671.301	1	-1
671.640	1	-20
671.979	1	7
672.317	1	-4
672.656	1	-2
672.995	1	-3
673.334	1	9
673.673	1	14
674.011	1	-1
674.350	1	-5
674.689	1	-5
675.028	1	7
675.367	1	7
675.705	1	-11
676.044	1	-3
676.383	1	0
676.722	1	5
677.060	1	1
677.399	1	1
677.738	1	-5
678.077	1	-4
678.416	1	8
678.754	1	2
679.093	1	2
679.432	1	-2
679.771	1	-2
680.109	1	1
680.448	1	-6
680.787	1	-6
681.125	1	0
681.464	1	5
681.803	1	-5
682.142	1	10
682.480	1	-6
682.819	1	-2
683.158	1	-8
683.496	1	-4
683.835	1	0
684.174	1	-2
684.512	1	2
684.851	1	-4
685.190	1	6
685.529	1	5
685.867	1	0
686.206	1	7
686.545	1	5
686.883	1	-8
687.222	1	-5
687.561	1	-2
687.899	1	6
688.238	1	-3
688.577	1	-8
688.746	1	-1