File: Analysis/GaN_68K_200ms/GaN_sample E_spot4_UVVIS_68 K_200um_200 ms 2x2mm1_411.txt
340.368	1	2
340.710	1	-2
341.052	1	1
341.394	1	2
341.737	1	2
342.079	1	-4
342.421	1	-7
342.763	1	3
343.105	1	6
343.447	1	3
343.789	1	-5
344.131	1	0
344.473	1	-4
344.815	1	3
345.157	1	8
345.499	1	12
345.841	1	5
346.183	1	3
346.526	1	8
346.868	1	-5
347.210	1	-4
347.552	1	5
347.894	1	-4
348.236	1	8
348.578	1	0
348.920	1	8
349.262	1	-4
349.604	1	8
349.946	1	-3
350.288	1	10
350.630	1	0
350.972	1	2
351.314	1	-9
351.656	1	-2
351.998	1	-4
352.340	1	2
352.682	1	0
353.024	1	-2
353.366	1	-3
353.708	1	1
354.050	1	2
354.392	1	6
354.734	1	-11
355.076	1	3
355.418	1	-2
355.760	1	5
356.102	1	-1
356.444	1	5
356.785	1	6
357.127	1	-3
357.469	1	9
357.811	1	8
358.153	1	5
358.495	1	13
358.837	1	6
359.179	1	1
359.521	1	0
359.863	1	-4
360.205	1	-11
360.547	1	9
360.889	1	5
361.231	1	3
361.572	1	3
361.914	1	5
362.256	1	2
362.598	1	10
362.940	1	11
363.282	1	7
363.624	1	4
363.966	1	5
364.308	1	3
364.649	1	0
364.991	1	-1
365.333	1	18
365.675	1	7
366.017	1	4
366.359	1	10
366.701	1	3
367.042	1	10
367.384	1	10
367.726	1	12
368.068	1	3
368.410	1	1
368.752	1	1
369.093	1	13
369.435	1	-4
369.777	1	-1
370.119	1	6
370.461	1	9
370.803	1	5
371.144	1	11
371.486	1	10
371.828	1	9
372.170	1	12
372.512	1	6
372.853	1	17
373.195	1	-8
373.537	1	1
373.879	1	3
374.220	1	7
374.562	1	2
374.904	1	1
375.246	1	-8
375.588	1	8
375.929	1	5
376.271	1	3
376.613	1	5
376.955	1	1
377.296	1	6
377.638	1	5
377.980	1	7
378.321	1	6
378.663	1	-12
379.005	1	12
379.347	1	7
379.688	1	3
380.030	1	-6
380.372	1	-4
380.714	1	13
381.055	1	0
381.397	1	-1
381.739	1	13
382.080	1	-15
382.422	1	12
382.764	1	4
383.105	1	6
383.447	1	8
383.789	1	10
384.130	1	3
384.472	1	-3
384.814	1	-1
385.156	1	17
385.497	1	20
385.839	1	12
386.180	1	10
386.522	1	11
386.864	1	1
387.205	1	9
387.547	1	6
387.889	1	20
388.230	1	18
388.572	1	16
388.914	1	13
389.255	1	21
389.597	1	1
389.939	1	12
390.280	1	24
390.622	1	2
390.963	1	18
391.305	1	6
391.647	1	13
391.988	1	6
392.330	1	11
392.671	1	15
393.013	1	8
393.355	1	18
393.696	1	12
394.038	1	1
394.379	1	2
394.721	1	14
395.062	1	-4
395.404	1	14
395.746	1	6
396.087	1	14
396.429	1	5
396.770	1	6
397.112	1	13
397.453	1	3
397.795	1	1
398.136	1	12
398.478	1	3
398.819	1	14
399.161	1	18
399.503	1	15
399.844	1	17
400.186	1	16
400.527	1	7
400.869	1	18
401.210	1	-3
401.552	1	19
401.893	1	7
402.235	1	23
402.576	1	18
402.918	1	3
403.259	1	-3
403.601	1	-4
403.942	1	11
404.284	1	5
404.625	1	15
404.967	1	11
405.308	1	6
405.649	1	1
405.991	1	11
406.332	1	5
406.674	1	3
407.015	1	-1
407.357	1	0
407.698	1	3
408.040	1	-1
408.381	1	1
408.722	1	6
409.064	1	-4
409.405	1	14
409.747	1	3
410.088	1	12
410.430	1	10
410.771	1	4
411.112	1	6
411.454	1	15
411.795	1	8
412.137	1	6
412.478	1	9
412.819	1	-4
413.161	1	-3
413.502	1	5
413.844	1	5
414.185	1	11
414.526	1	3
414.868	1	16
415.209	1	4
415.550	1	3
415.892	1	5
416.233	1	5
416.575	1	1
416.916	1	4
417.257	1	7
417.599	1	7
417.940	1	9
418.281	1	-3
418.623	1	3
418.964	1	1
419.305	1	7
419.647	1	12
419.988	1	-1
420.329	1	-1
420.671	1	0
421.012	1	11
421.353	1	6
421.695	1	5
422.036	1	0
422.377	1	2
422.718	1	-7
423.060	1	0
423.401	1	4
423.742	1	11
424.084	1	8
424.425	1	7
424.766	1	-2
425.107	1	4
425.449	1	10
425.790	1	4
426.131	1	1
426.472	1	-4
426.814	1	9
427.155	1	-3
427.496	1	16
427.837	1	-3
428.179	1	5
428.520	1	-2
428.861	1	1
429.202	1	10
429.544	1	3
429.885	1	-7
430.226	1	8
430.567	1	18
430.909	1	-12
431.250	1	-1
431.591	1	6
431.932	1	4
432.273	1	4
432.615	1	11
432.956	1	-6
433.297	1	10
433.638	1	4
433.979	1	2
434.320	1	-5
434.662	1	4
435.003	1	2
435.344	1	7
435.685	1	12
436.026	1	2
436.368	1	0
436.709	1	-7
437.050	1	8
437.391	1	5
437.732	1	-12
438.073	1	7
438.414	1	-2
438.756	1	11
439.097	1	17
439.438	1	9
439.779	1	-7
440.120	1	-6
440.461	1	-3
440.802	1	6
441.143	1	7
441.485	1	0
441.826	1	-5
442.167	1	-2
442.508	1	3
442.849	1	12
443.190	1	-10
443.531	1	3
443.872	1	0
444.213	1	1
444.554	1	-11
444.895	1	-2
445.237	1	-7
445.578	1	13
445.919	1	2
446.260	1	-1
446.601	1	0
446.942	1	7
447.283	1	-1
447.624	1	9
447.965	1	-9
448.306	1	12
448.647	1	22
448.988	1	-11
449.329	1	3
449.670	1	14
450.011	1	-1
450.352	1	9
450.693	1	9
451.034	1	5
451.375	1	12
451.716	1	8
452.057	1	17
452.398	1	0
452.739	1	-2
453.080	1	9
453.421	1	3
453.762	1	7
454.103	1	-2
454.444	1	9
454.785	1	-7
455.126	1	7
455.467	1	3
455.808	1	0
456.149	1	3
456.490	1	5
456.831	1	18
457.172	1	2
457.513	1	9
457.854	1	4
458.195	1	-1
458.536	1	0
458.877	1	5
459.218	1	3
459.559	1	-3
459.899	1	14
460.240	1	8
460.581	1	7
460.922	1	4
461.263	1	-2
461.604	1	3
461.945	1	8
462.286	1	18
462.627	1	-4
462.968	1	1
463.309	1	6
463.649	1	1
463.990	1	-1
464.331	1	-2
464.672	1	3
465.013	1	-6
465.354	1	7
465.695	1	7
466.036	1	-1
466.376	1	4
466.717	1	-9
467.058	1	9
467.399	1	-3
467.740	1	2
468.081	1	1
468.422	1	-4
468.762	1	-9
469.103	1	-1
469.444	1	5
469.785	1	6
470.126	1	5
470.467	1	-2
470.807	1	-1
471.148	1	-1
471.489	1	5
471.830	1	14
472.171	1	-2
472.511	1	5
472.852	1	1
473.193	1	-1
473.534	1	-2
473.875	1	1
474.215	1	4
474.556	1	-12
474.897	1	0
475.238	1	3
475.578	1	3
475.919	1	-4
476.260	1	0
476.601	1	-6
476.942	1	4
477.282	1	-17
477.623	1	12
477.964	1	8
478.305	1	0
478.645	1	-9
478.986	1	-2
479.327	1	-2
479.667	1	9
480.008	1	6
480.349	1	-7
480.690	1	7
481.030	1	-4
481.371	1	-1
481.712	1	6
482.053	1	6
482.393	1	-5
482.734	1	1
483.075	1	7
483.415	1	6
483.756	1	12
484.097	1	-3
484.437	1	-7
484.778	1	1
485.119	1	7
485.459	1	11
485.800	1	5
486.141	1	-6
486.481	1	1
486.822	1	6
487.163	1	-5
487.503	1	-8
487.844	1	7
488.185	1	-6
488.525	1	7
488.866	1	5
489.207	1	5
489.547	1	-2
489.888	1	5
490.228	1	-3
490.569	1	2
490.910	1	3
491.250	1	-5
491.591	1	0
491.932	1	10
492.272	1	6
492.613	1	0
492.953	1	9
493.294	1	10
493.635	1	-2
493.975	1	0
494.316	1	5
494.656	1	5
494.997	1	-5
495.337	1	6
495.678	1	8
496.019	1	-6
496.359	1	6
496.700	1	-1
497.040	1	1
497.381	1	-15
497.721	1	-3
498.062	1	-5
498.403	1	6
498.743	1	8
499.084	1	-2
499.424	1	20
499.765	1	5
500.105	1	10
500.446	1	6
500.786	1	6
501.127	1	13
501.467	1	0
501.808	1	-6
502.148	1	10
502.489	1	11
502.829	1	-3
503.170	1	6
503.510	1	2
503.851	1	-9
504.191	1	3
504.532	1	-9
504.872	1	0
505.213	1	3
505.553	1	-5
505.894	1	13
506.234	1	17
506.575	1	1
506.915	1	-2
507.256	1	5
507.596	1	11
507.936	1	7
508.277	1	-2
508.617	1	4
508.958	1	13
509.298	1	10
509.639	1	3
509.979	1	5
510.319	1	4
510.660	1	12
511.000	1	-1
511.341	1	-3
511.681	1	3
512.022	1	1
512.362	1	-3
512.702	1	-7
513.043	1	1
513.383	1	1
513.724	1	11
514.064	1	7
514.404	1	-4
514.745	1	2
515.085	1	3
515.425	1	3
515.766	1	4
516.106	1	2
516.447	1	-1
516.787	1	4
517.127	1	3
517.468	1	1
517.808	1	13
518.148	1	1
518.489	1	5
518.829	1	5
519.169	1	12
519.510	1	6
519.850	1	0
520.190	1	4
520.531	1	13
520.871	1	8
521.211	1	10
521.552	1	7
521.892	1	4
522.232	1	-5
522.573	1	8
522.913	1	11
523.253	1	2
523.593	1	-7
523.934	1	-2
524.274	1	4
524.614	1	5
524.955	1	4
525.295	1	5
525.635	1	15
525.975	1	-1
526.316	1	-6
526.656	1	16
526.996	1	15
527.337	1	-3
527.677	1	16
528.017	1	2
528.357	1	13
528.698	1	-4
529.038	1	12
529.378	1	12
529.718	1	9
530.058	1	6
530.399	1	17
530.739	1	-7
531.079	1	9
531.419	1	13
531.760	1	15
532.100	1	11
532.440	1	-2
532.780	1	7
533.120	1	-2
533.461	1	25
533.801	1	7
534.141	1	12
534.481	1	8
534.821	1	17
535.162	1	13
535.502	1	6
535.842	1	11
536.182	1	9
536.522	1	13
536.862	1	5
537.203	1	8
537.543	1	12
537.883	1	4
538.223	1	13
538.563	1	4
538.903	1	9
539.243	1	2
539.584	1	7
539.924	1	6
540.264	1	5
540.604	1	8
540.944	1	0
541.284	1	1
541.624	1	3
541.964	1	1
542.305	1	-11
542.645	1	-3
542.985	1	5
543.325	1	-2
543.665	1	15
544.005	1	-5
544.345	1	-3
544.685	1	9
545.025	1	2
545.365	1	9
545.705	1	10
546.045	1	13
546.386	1	5
546.726	1	-2
547.066	1	1
547.406	1	8
547.746	1	17
548.086	1	3
548.426	1	0
548.766	1	8
549.106	1	7
549.446	1	4
549.786	1	14
550.126	1	-13
550.466	1	3
550.806	1	11
551.146	1	9
551.486	1	5
551.826	1	11
552.166	1	6
552.506	1	-4
552.846	1	14
553.186	1	3
553.526	1	-6
553.866	1	5
554.206	1	4
554.546	1	-5
554.886	1	8
555.226	1	-1
555.566	1	4
555.906	1	12
556.246	1	0
556.586	1	8
556.926	1	7
557.266	1	1
557.606	1	-6
557.946	1	7
558.286	1	11
558.626	1	11
558.966	1	7
559.306	1	-8
559.646	1	3
559.986	1	6
560.325	1	-3
560.665	1	12
561.005	1	3
561.345	1	7
561.685	1	-3
562.025	1	-5
562.365	1	11
562.705	1	20
563.045	1	14
563.385	1	1
563.725	1	3
564.064	1	7
564.404	1	5
564.744	1	6
565.084	1	-5
565.424	1	-3
565.764	1	15
566.104	1	-3
566.444	1	3
566.783	1	8
567.123	1	15
567.463	1	4
567.803	1	-3
568.143	1	2
568.483	1	-3
568.823	1	8
569.162	1	10
569.502	1	7
569.842	1	-2
570.182	1	-8
570.522	1	3
570.862	1	13
571.201	1	-6
571.541	1	-1
571.881	1	-1
572.221	1	1
572.561	1	6
572.900	1	10
573.240	1	5
573.580	1	-2
573.920	1	0
574.260	1	5
574.599	1	2
574.939	1	-2
575.279	1	7
575.619	1	4
575.959	1	-7
576.298	1	-2
576.638	1	8
576.978	1	5
577.318	1	13
577.657	1	-4
577.997	1	-8
578.337	1	3
578.677	1	7
579.016	1	1
579.356	1	-3
579.696	1	11
580.036	1	-2
580.375	1	0
580.715	1	12
581.055	1	5
581.394	1	-5
581.734	1	3
582.074	1	-3
582.414	1	7
582.753	1	7
583.093	1	-4
583.433	1	3
583.772	1	0
584.112	1	4
584.452	1	0
584.791	1	3
585.131	1	-4
585.471	1	-3
585.811	1	7
586.150	1	5
586.490	1	-6
586.830	1	-5
587.169	1	0
587.509	1	1
587.849	1	10
588.188	1	-2
588.528	1	6
588.867	1	9
589.207	1	-1
589.547	1	-3
589.886	1	-4
590.226	1	8
590.566	1	3
590.905	1	-6
591.245	1	-1
591.585	1	-8
591.924	1	-5
592.264	1	-8
592.603	1	-4
592.943	1	-9
593.283	1	9
593.622	1	-2
593.962	1	10
594.301	1	7
594.641	1	2
594.981	1	-6
595.320	1	2
595.660	1	-5
595.999	1	9
596.339	1	12
596.678	1	-1
597.018	1	5
597.358	1	3
597.697	1	2
598.037	1	2
598.376	1	7
598.716	1	-2
599.055	1	4
599.395	1	18
599.734	1	3
600.074	1	-7
600.413	1	8
600.753	1	4
601.092	1	-12
601.432	1	-1
601.771	1	14
602.111	1	-2
602.451	1	2
602.790	1	0
603.130	1	9
603.469	1	8
603.809	1	7
604.148	1	1
604.487	1	6
604.827	1	-9
605.166	1	-4
605.506	1	4
605.845	1	1
606.185	1	8
606.524	1	-2
606.864	1	-2
607.203	1	9
607.543	1	1
607.882	1	-2
608.222	1	-3
608.561	1	12
608.901	1	4
609.240	1	8
609.579	1	7
609.919	1	-3
610.258	1	1
610.598	1	-7
610.937	1	-5
611.277	1	6
611.616	1	-2
611.955	1	6
612.295	1	6
612.634	1	-1
612.974	1	3
613.313	1	-5
613.652	1	-2
613.992	1	-3
614.331	1	2
614.671	1	13
615.010	1	12
615.349	1	1
615.689	1	4
616.028	1	0
616.368	1	-9
616.707	1	-1
617.046	1	-1
617.386	1	-3
617.725	1	9
618.064	1	7
618.404	1	11
618.743	1	-1
619.082	1	2
619.422	1	-5
619.761	1	12
620.100	1	4
620.440	1	3
620.779	1	2
621.118	1	-3
621.458	1	8
621.797	1	2
622.136	1	9
622.476	1	-5
622.815	1	5
623.154	1	6
623.494	1	2
623.833	1	0
624.172	1	10
624.511	1	7
624.851	1	-6
625.190	1	4
625.529	1	5
625.869	1	5
626.208	1	-6
626.547	1	1
626.886	1	2
627.226	1	7
627.565	1	5
627.904	1	-6
628.243	1	-8
628.583	1	6
628.922	1	7
629.261	1	4
629.600	1	1
629.940	1	5
630.279	1	-1
630.618	1	3
630.957	1	-4
631.297	1	-8
631.636	1	-3
631.975	1	4
632.314	1	16
632.653	1	-6
632.993	1	10
633.332	1	13
633.671	1	3
634.010	1	8
634.349	1	7
634.689	1	2
635.028	1	-6
635.367	1	-1
635.706	1	-15
636.045	1	-3
636.384	1	4
636.724	1	-5
637.063	1	6
637.402	1	10
637.741	1	7
638.080	1	0
638.419	1	4
638.759	1	9
639.098	1	3
639.437	1	4
639.776	1	-4
640.115	1	-1
640.454	1	8
640.793	1	4
641.132	1	6
641.472	1	-8
641.811	1	-4
642.150	1	-2
642.489	1	3
642.828	1	7
643.167	1	7
643.506	1	-5
643.845	1	15
644.184	1	7
644.524	1	-4
644.863	1	-3
645.202	1	3
645.541	1	-19
645.880	1	1
646.219	1	-1
646.558	1	6
646.897	1	-7
647.236	1	3
647.575	1	7
647.914	1	2
648.253	1	8
648.592	1	0
648.931	1	7
649.270	1	17
649.610	1	8
649.949	1	2
650.288	1	-1
650.627	1	-2
650.966	1	3
651.305	1	-1
651.644	1	-12
651.983	1	6
652.322	1	13
652.661	1	-1
653.000	1	-1
653.339	1	7
653.678	1	-6
654.017	1	-7
654.356	1	14
654.695	1	7
655.034	1	6
655.373	1	6
655.712	1	-9
656.051	1	3
656.390	1	-3
656.729	1	8
657.068	1	3
657.406	1	-2
657.745	1	-6
658.084	1	6
658.423	1	3
658.762	1	1
659.101	1	4
659.440	1	16
659.779	1	-4
660.118	1	12
660.457	1	3
660.796	1	0
661.135	1	6
661.474	1	-2
661.813	1	-2
662.152	1	-3
662.491	1	6
662.829	1	-5
663.168	1	-2
663.507	1	-7
663.846	1	4
664.185	1	0
664.524	1	-17
664.863	1	-14
665.202	1	-6
665.541	1	5
665.879	1	4
666.218	1	-5
666.557	1	1
666.896	1	-4
667.235	1	10
667.574	1	1
667.913	1	-3
668.251	1	2
668.590	1	4
668.929	1	-2
669.268	1	-1
669.607	1	-2
669.946	1	14
670.285	1	4
670.623	1	7
670.962	1	-2
671.301	1	-7
671.640	1	-5
671.979	1	9
672.317	1	-4
672.656	1	2
672.995	1	6
673.334	1	11
673.673	1	8
674.011	1	10
674.350	1	-1
674.689	1	-4
675.028	1	9
675.367	1	5
675.705	1	-2
676.044	1	-5
676.383	1	5
676.722	1	13
677.060	1	4
677.399	1	0
677.738	1	-11
678.077	1	5
678.416	1	-6
678.754	1	-2
679.093	1	-2
679.432	1	-1
679.771	1	2
680.109	1	4
680.448	1	-11
680.787	1	-2
681.125	1	3
681.464	1	12
681.803	1	-13
682.142	1	2
682.480	1	-1
682.819	1	-2
683.158	1	7
683.496	1	-9
683.835	1	3
684.174	1	-2
684.512	1	-1
684.851	1	3
685.190	1	14
685.529	1	-2
685.867	1	10
686.206	1	4
686.545	1	2
686.883	1	0
687.222	1	-6
687.561	1	1
687.899	1	0
688.238	1	5
688.577	1	4
688.746	1	-2