File: Analysis/GaN_68K_200ms/GaN_sample E_spot4_UVVIS_68 K_200um_200 ms 2x2mm1_41.txt
340.368	1	6
340.710	1	-1
341.052	1	3
341.394	1	-2
341.737	1	2
342.079	1	-4
342.421	1	-2
342.763	1	-1
343.105	1	16
343.447	1	-2
343.789	1	0
344.131	1	4
344.473	1	7
344.815	1	2
345.157	1	5
345.499	1	4
345.841	1	5
346.183	1	5
346.526	1	8
346.868	1	0
347.210	1	-1
347.552	1	7
347.894	1	1
348.236	1	4
348.578	1	4
348.920	1	15
349.262	1	-2
349.604	1	14
349.946	1	9
350.288	1	10
350.630	1	-10
350.972	1	-5
351.314	1	0
351.656	1	-4
351.998	1	3
352.340	1	1
352.682	1	-1
353.024	1	2
353.366	1	8
353.708	1	8
354.050	1	8
354.392	1	1
354.734	1	-1
355.076	1	10
355.418	1	1
355.760	1	3
356.102	1	-6
356.444	1	1
356.785	1	4
357.127	1	0
357.469	1	4
357.811	1	12
358.153	1	2
358.495	1	5
358.837	1	3
359.179	1	-6
359.521	1	0
359.863	1	4
360.205	1	2
360.547	1	-3
360.889	1	3
361.231	1	7
361.572	1	7
361.914	1	7
362.256	1	6
362.598	1	3
362.940	1	-3
363.282	1	-3
363.624	1	2
363.966	1	6
364.308	1	8
364.649	1	0
364.991	1	2
365.333	1	5
365.675	1	2
366.017	1	6
366.359	1	-6
366.701	1	-3
367.042	1	10
367.384	1	6
367.726	1	4
368.068	1	0
368.410	1	-2
368.752	1	-13
369.093	1	7
369.435	1	-7
369.777	1	5
370.119	1	-1
370.461	1	3
370.803	1	2
371.144	1	5
371.486	1	1
371.828	1	6
372.170	1	5
372.512	1	-3
372.853	1	1
373.195	1	-16
373.537	1	1
373.879	1	6
374.220	1	7
374.562	1	-1
374.904	1	2
375.246	1	10
375.588	1	8
375.929	1	4
376.271	1	-2
376.613	1	-1
376.955	1	1
377.296	1	0
377.638	1	-6
377.980	1	6
378.321	1	10
378.663	1	-7
379.005	1	1
379.347	1	1
379.688	1	1
380.030	1	4
380.372	1	-1
380.714	1	-9
381.055	1	10
381.397	1	-11
381.739	1	3
382.080	1	-10
382.422	1	7
382.764	1	3
383.105	1	0
383.447	1	-1
383.789	1	4
384.130	1	-3
384.472	1	-9
384.814	1	3
385.156	1	7
385.497	1	7
385.839	1	-4
386.180	1	2
386.522	1	5
386.864	1	-1
387.205	1	-10
387.547	1	-14
387.889	1	-1
388.230	1	-2
388.572	1	6
388.914	1	9
389.255	1	6
389.597	1	-13
389.939	1	15
390.280	1	1
390.622	1	-3
390.963	1	7
391.305	1	8
391.647	1	4
391.988	1	-7
392.330	1	6
392.671	1	1
393.013	1	16
393.355	1	15
393.696	1	7
394.038	1	-2
394.379	1	-11
394.721	1	7
395.062	1	-13
395.404	1	6
395.746	1	-2
396.087	1	7
396.429	1	6
396.770	1	11
397.112	1	3
397.453	1	-8
397.795	1	2
398.136	1	3
398.478	1	-7
398.819	1	9
399.161	1	7
399.503	1	-2
399.844	1	-2
400.186	1	8
400.527	1	2
400.869	1	3
401.210	1	-5
401.552	1	11
401.893	1	9
402.235	1	-2
402.576	1	8
402.918	1	-4
403.259	1	-11
403.601	1	-6
403.942	1	2
404.284	1	2
404.625	1	1
404.967	1	7
405.308	1	-5
405.649	1	-9
405.991	1	12
406.332	1	1
406.674	1	3
407.015	1	-7
407.357	1	-2
407.698	1	0
408.040	1	-9
408.381	1	0
408.722	1	-6
409.064	1	-7
409.405	1	-1
409.747	1	-3
410.088	1	-5
410.430	1	2
410.771	1	4
411.112	1	-3
411.454	1	11
411.795	1	2
412.137	1	8
412.478	1	2
412.819	1	-4
413.161	1	-8
413.502	1	6
413.844	1	-2
414.185	1	3
414.526	1	4
414.868	1	17
415.209	1	-1
415.550	1	-7
415.892	1	-4
416.233	1	4
416.575	1	0
416.916	1	4
417.257	1	7
417.599	1	1
417.940	1	0
418.281	1	2
418.623	1	-3
418.964	1	3
419.305	1	-4
419.647	1	2
419.988	1	-2
420.329	1	7
420.671	1	0
421.012	1	10
421.353	1	9
421.695	1	4
422.036	1	-6
422.377	1	6
422.718	1	-7
423.060	1	-8
423.401	1	0
423.742	1	4
424.084	1	0
424.425	1	3
424.766	1	12
425.107	1	5
425.449	1	5
425.790	1	-3
426.131	1	2
426.472	1	-6
426.814	1	8
427.155	1	-2
427.496	1	12
427.837	1	4
428.179	1	-10
428.520	1	-5
428.861	1	-2
429.202	1	2
429.544	1	-7
429.885	1	0
430.226	1	8
430.567	1	3
430.909	1	-5
431.250	1	-8
431.591	1	5
431.932	1	1
432.273	1	-1
432.615	1	6
432.956	1	-6
433.297	1	8
433.638	1	-8
433.979	1	-4
434.320	1	-4
434.662	1	2
435.003	1	9
435.344	1	5
435.685	1	11
436.026	1	2
436.368	1	-1
436.709	1	-11
437.050	1	4
437.391	1	8
437.732	1	-1
438.073	1	9
438.414	1	1
438.756	1	8
439.097	1	3
439.438	1	11
439.779	1	1
440.120	1	1
440.461	1	4
440.802	1	2
441.143	1	8
441.485	1	-4
441.826	1	-1
442.167	1	0
442.508	1	1
442.849	1	13
443.190	1	-5
443.531	1	5
443.872	1	2
444.213	1	-6
444.554	1	9
444.895	1	2
445.237	1	-4
445.578	1	7
445.919	1	5
446.260	1	8
446.601	1	2
446.942	1	3
447.283	1	0
447.624	1	5
447.965	1	-6
448.306	1	9
448.647	1	10
448.988	1	-12
449.329	1	1
449.670	1	6
450.011	1	2
450.352	1	13
450.693	1	3
451.034	1	9
451.375	1	13
451.716	1	16
452.057	1	8
452.398	1	1
452.739	1	-1
453.080	1	9
453.421	1	7
453.762	1	18
454.103	1	5
454.444	1	10
454.785	1	-11
455.126	1	8
455.467	1	7
455.808	1	10
456.149	1	-11
456.490	1	5
456.831	1	12
457.172	1	-4
457.513	1	6
457.854	1	-7
458.195	1	-4
458.536	1	5
458.877	1	-3
459.218	1	4
459.559	1	2
459.899	1	16
460.240	1	4
460.581	1	1
460.922	1	1
461.263	1	2
461.604	1	-2
461.945	1	5
462.286	1	5
462.627	1	-1
462.968	1	-6
463.309	1	1
463.649	1	4
463.990	1	2
464.331	1	3
464.672	1	3
465.013	1	-2
465.354	1	7
465.695	1	0
466.036	1	4
466.376	1	-1
466.717	1	-10
467.058	1	1
467.399	1	9
467.740	1	0
468.081	1	5
468.422	1	-1
468.762	1	-12
469.103	1	-9
469.444	1	4
469.785	1	4
470.126	1	1
470.467	1	0
470.807	1	-5
471.148	1	0
471.489	1	0
471.830	1	6
472.171	1	4
472.511	1	13
472.852	1	-1
473.193	1	-9
473.534	1	1
473.875	1	12
474.215	1	-4
474.556	1	2
474.897	1	-3
475.238	1	-4
475.578	1	-1
475.919	1	-9
476.260	1	4
476.601	1	4
476.942	1	8
477.282	1	-4
477.623	1	4
477.964	1	11
478.305	1	3
478.645	1	-5
478.986	1	-4
479.327	1	-3
479.667	1	7
480.008	1	12
480.349	1	3
480.690	1	3
481.030	1	0
481.371	1	2
481.712	1	5
482.053	1	16
482.393	1	-1
482.734	1	6
483.075	1	2
483.415	1	10
483.756	1	6
484.097	1	-1
484.437	1	-3
484.778	1	5
485.119	1	0
485.459	1	1
485.800	1	-4
486.141	1	-12
486.481	1	7
486.822	1	0
487.163	1	1
487.503	1	-14
487.844	1	6
488.185	1	-1
488.525	1	5
488.866	1	10
489.207	1	14
489.547	1	3
489.888	1	0
490.228	1	-4
490.569	1	5
490.910	1	-3
491.250	1	-3
491.591	1	-4
491.932	1	11
492.272	1	6
492.613	1	2
492.953	1	5
493.294	1	4
493.635	1	-7
493.975	1	-12
494.316	1	5
494.656	1	7
494.997	1	-4
495.337	1	8
495.678	1	12
496.019	1	-6
496.359	1	6
496.700	1	-2
497.040	1	1
497.381	1	-24
497.721	1	-5
498.062	1	5
498.403	1	13
498.743	1	0
499.084	1	-7
499.424	1	18
499.765	1	0
500.105	1	7
500.446	1	15
500.786	1	0
501.127	1	8
501.467	1	7
501.808	1	-13
502.148	1	-1
502.489	1	6
502.829	1	7
503.170	1	-4
503.510	1	2
503.851	1	-3
504.191	1	-3
504.532	1	-6
504.872	1	-3
505.213	1	2
505.553	1	6
505.894	1	6
506.234	1	11
506.575	1	5
506.915	1	4
507.256	1	-3
507.596	1	11
507.936	1	7
508.277	1	-4
508.617	1	13
508.958	1	15
509.298	1	12
509.639	1	7
509.979	1	-2
510.319	1	7
510.660	1	4
511.000	1	4
511.341	1	-10
511.681	1	9
512.022	1	-3
512.362	1	-2
512.702	1	-11
513.043	1	-10
513.383	1	-4
513.724	1	0
514.064	1	9
514.404	1	-7
514.745	1	5
515.085	1	-9
515.425	1	-6
515.766	1	0
516.106	1	1
516.447	1	13
516.787	1	0
517.127	1	3
517.468	1	3
517.808	1	-5
518.148	1	0
518.489	1	8
518.829	1	-3
519.169	1	5
519.510	1	-11
519.850	1	-10
520.190	1	4
520.531	1	-2
520.871	1	-2
521.211	1	3
521.552	1	6
521.892	1	-7
522.232	1	-3
522.573	1	1
522.913	1	8
523.253	1	5
523.593	1	-5
523.934	1	6
524.274	1	-9
524.614	1	-2
524.955	1	-3
525.295	1	-8
525.635	1	9
525.975	1	0
526.316	1	-7
526.656	1	10
526.996	1	10
527.337	1	0
527.677	1	6
528.017	1	-6
528.357	1	6
528.698	1	-6
529.038	1	2
529.378	1	4
529.718	1	5
530.058	1	0
530.399	1	0
530.739	1	-5
531.079	1	7
531.419	1	12
531.760	1	6
532.100	1	4
532.440	1	-9
532.780	1	5
533.120	1	-9
533.461	1	16
533.801	1	5
534.141	1	3
534.481	1	4
534.821	1	3
535.162	1	7
535.502	1	2
535.842	1	3
536.182	1	-2
536.522	1	3
536.862	1	-4
537.203	1	5
537.543	1	0
537.883	1	7
538.223	1	12
538.563	1	9
538.903	1	-5
539.243	1	4
539.584	1	2
539.924	1	4
540.264	1	7
540.604	1	10
540.944	1	-4
541.284	1	-2
541.624	1	7
541.964	1	1
542.305	1	-14
542.645	1	-5
542.985	1	-4
543.325	1	4
543.665	1	12
544.005	1	-4
544.345	1	-10
544.685	1	-2
545.025	1	-8
545.365	1	-5
545.705	1	5
546.045	1	11
546.386	1	3
546.726	1	-2
547.066	1	-15
547.406	1	16
547.746	1	7
548.086	1	2
548.426	1	-1
548.766	1	9
549.106	1	3
549.446	1	-4
549.786	1	6
550.126	1	-3
550.466	1	-4
550.806	1	13
551.146	1	0
551.486	1	1
551.826	1	6
552.166	1	4
552.506	1	-10
552.846	1	5
553.186	1	8
553.526	1	0
553.866	1	5
554.206	1	-13
554.546	1	-4
554.886	1	6
555.226	1	-12
555.566	1	8
555.906	1	9
556.246	1	4
556.586	1	13
556.926	1	-1
557.266	1	13
557.606	1	-13
557.946	1	5
558.286	1	7
558.626	1	5
558.966	1	1
559.306	1	-1
559.646	1	-5
559.986	1	-3
560.325	1	-1
560.665	1	1
561.005	1	1
561.345	1	-2
561.685	1	-6
562.025	1	-4
562.365	1	0
562.705	1	10
563.045	1	7
563.385	1	-10
563.725	1	2
564.064	1	11
564.404	1	5
564.744	1	5
565.084	1	-4
565.424	1	1
565.764	1	4
566.104	1	7
566.444	1	12
566.783	1	2
567.123	1	14
567.463	1	7
567.803	1	-6
568.143	1	-1
568.483	1	2
568.823	1	4
569.162	1	4
569.502	1	3
569.842	1	2
570.182	1	-5
570.522	1	11
570.862	1	1
571.201	1	2
571.541	1	-10
571.881	1	11
572.221	1	-3
572.561	1	4
572.900	1	14
573.240	1	3
573.580	1	4
573.920	1	-4
574.260	1	3
574.599	1	-2
574.939	1	5
575.279	1	18
575.619	1	-6
575.959	1	-14
576.298	1	-6
576.638	1	8
576.978	1	-3
577.318	1	10
577.657	1	-8
577.997	1	-8
578.337	1	3
578.677	1	-2
579.016	1	18
579.356	1	-2
579.696	1	6
580.036	1	-2
580.375	1	-1
580.715	1	6
581.055	1	9
581.394	1	-7
581.734	1	0
582.074	1	-7
582.414	1	5
582.753	1	4
583.093	1	-4
583.433	1	-12
583.772	1	1
584.112	1	8
584.452	1	7
584.791	1	-2
585.131	1	1
585.471	1	-6
585.811	1	-2
586.150	1	-5
586.490	1	-4
586.830	1	-7
587.169	1	3
587.509	1	-3
587.849	1	1
588.188	1	-1
588.528	1	-1
588.867	1	13
589.207	1	-5
589.547	1	6
589.886	1	-7
590.226	1	-2
590.566	1	4
590.905	1	-2
591.245	1	0
591.585	1	-5
591.924	1	-3
592.264	1	0
592.603	1	-11
592.943	1	1
593.283	1	9
593.622	1	6
593.962	1	4
594.301	1	10
594.641	1	-4
594.981	1	-4
595.320	1	5
595.660	1	-1
595.999	1	-2
596.339	1	6
596.678	1	4
597.018	1	0
597.358	1	10
597.697	1	-6
598.037	1	12
598.376	1	0
598.716	1	-11
599.055	1	11
599.395	1	10
599.734	1	-3
600.074	1	0
600.413	1	5
600.753	1	8
601.092	1	-8
601.432	1	-3
601.771	1	13
602.111	1	-2
602.451	1	5
602.790	1	2
603.130	1	-2
603.469	1	-9
603.809	1	18
604.148	1	8
604.487	1	7
604.827	1	-15
605.166	1	-1
605.506	1	8
605.845	1	4
606.185	1	4
606.524	1	-2
606.864	1	-2
607.203	1	8
607.543	1	1
607.882	1	-5
608.222	1	-8
608.561	1	1
608.901	1	5
609.240	1	12
609.579	1	-4
609.919	1	-8
610.258	1	5
610.598	1	2
610.937	1	-3
611.277	1	6
611.616	1	-13
611.955	1	6
612.295	1	-4
612.634	1	5
612.974	1	6
613.313	1	3
613.652	1	1
613.992	1	8
614.331	1	2
614.671	1	8
615.010	1	-1
615.349	1	-1
615.689	1	8
616.028	1	9
616.368	1	-1
616.707	1	6
617.046	1	2
617.386	1	-11
617.725	1	11
618.064	1	2
618.404	1	10
618.743	1	13
619.082	1	-2
619.422	1	1
619.761	1	0
620.100	1	5
620.440	1	0
620.779	1	0
621.118	1	-5
621.458	1	-4
621.797	1	2
622.136	1	9
622.476	1	9
622.815	1	-2
623.154	1	1
623.494	1	-3
623.833	1	-1
624.172	1	12
624.511	1	-3
624.851	1	-10
625.190	1	4
625.529	1	5
625.869	1	2
626.208	1	0
626.547	1	3
626.886	1	-7
627.226	1	-2
627.565	1	12
627.904	1	12
628.243	1	-4
628.583	1	3
628.922	1	-9
629.261	1	0
629.600	1	0
629.940	1	1
630.279	1	-4
630.618	1	6
630.957	1	-7
631.297	1	-2
631.636	1	-1
631.975	1	6
632.314	1	16
632.653	1	-2
632.993	1	6
633.332	1	10
633.671	1	-4
634.010	1	0
634.349	1	4
634.689	1	16
635.028	1	3
635.367	1	-4
635.706	1	-7
636.045	1	1
636.384	1	7
636.724	1	-2
637.063	1	6
637.402	1	-3
637.741	1	10
638.080	1	1
638.419	1	8
638.759	1	0
639.098	1	-1
639.437	1	-14
639.776	1	-4
640.115	1	4
640.454	1	13
640.793	1	3
641.132	1	12
641.472	1	-4
641.811	1	-9
642.150	1	4
642.489	1	3
642.828	1	1
643.167	1	14
643.506	1	1
643.845	1	4
644.184	1	8
644.524	1	-5
644.863	1	-5
645.202	1	-2
645.541	1	-6
645.880	1	5
646.219	1	10
646.558	1	9
646.897	1	3
647.236	1	2
647.575	1	7
647.914	1	0
648.253	1	4
648.592	1	2
648.931	1	7
649.270	1	9
649.610	1	12
649.949	1	2
650.288	1	-3
650.627	1	1
650.966	1	6
651.305	1	-4
651.644	1	2
651.983	1	10
652.322	1	5
652.661	1	1
653.000	1	2
653.339	1	-1
653.678	1	-2
654.017	1	-5
654.356	1	6
654.695	1	2
655.034	1	11
655.373	1	4
655.712	1	-3
656.051	1	4
656.390	1	5
656.729	1	5
657.068	1	6
657.406	1	3
657.745	1	-1
658.084	1	6
658.423	1	3
658.762	1	-8
659.101	1	-4
659.440	1	4
659.779	1	-7
660.118	1	6
660.457	1	0
660.796	1	-1
661.135	1	9
661.474	1	-2
661.813	1	3
662.152	1	8
662.491	1	4
662.829	1	0
663.168	1	0
663.507	1	9
663.846	1	12
664.185	1	3
664.524	1	-4
664.863	1	0
665.202	1	-7
665.541	1	-7
665.879	1	1
666.218	1	-11
666.557	1	0
666.896	1	4
667.235	1	4
667.574	1	1
667.913	1	1
668.251	1	0
668.590	1	-5
668.929	1	11
669.268	1	-4
669.607	1	-5
669.946	1	18
670.285	1	1
670.623	1	11
670.962	1	-1
671.301	1	-4
671.640	1	-7
671.979	1	12
672.317	1	-8
672.656	1	2
672.995	1	2
673.334	1	9
673.673	1	10
674.011	1	2
674.350	1	0
674.689	1	-4
675.028	1	3
675.367	1	14
675.705	1	-6
676.044	1	-12
676.383	1	-3
676.722	1	6
677.060	1	5
677.399	1	2
677.738	1	-5
678.077	1	-7
678.416	1	6
678.754	1	6
679.093	1	5
679.432	1	-12
679.771	1	2
680.109	1	16
680.448	1	-1
680.787	1	-9
681.125	1	1
681.464	1	3
681.803	1	-8
682.142	1	14
682.480	1	0
682.819	1	2
683.158	1	0
683.496	1	-5
683.835	1	4
684.174	1	8
684.512	1	1
684.851	1	-2
685.190	1	3
685.529	1	-2
685.867	1	7
686.206	1	7
686.545	1	15
686.883	1	-6
687.222	1	-8
687.561	1	-4
687.899	1	-4
688.238	1	-8
688.577	1	-4
688.746	1	2