File: Analysis/GaN_68K_200ms/GaN_sample E_spot4_UVVIS_68 K_200um_200 ms 2x2mm1_192.txt
340.368	1	0
340.710	1	2
341.052	1	4
341.394	1	-9
341.737	1	10
342.079	1	-2
342.421	1	-3
342.763	1	2
343.105	1	5
343.447	1	4
343.789	1	5
344.131	1	3
344.473	1	11
344.815	1	9
345.157	1	12
345.499	1	13
345.841	1	12
346.183	1	5
346.526	1	15
346.868	1	6
347.210	1	2
347.552	1	3
347.894	1	7
348.236	1	5
348.578	1	2
348.920	1	19
349.262	1	-3
349.604	1	11
349.946	1	3
350.288	1	-1
350.630	1	0
350.972	1	-1
351.314	1	-5
351.656	1	0
351.998	1	3
352.340	1	4
352.682	1	1
353.024	1	5
353.366	1	12
353.708	1	8
354.050	1	1
354.392	1	9
354.734	1	6
355.076	1	-1
355.418	1	-2
355.760	1	10
356.102	1	13
356.444	1	16
356.785	1	12
357.127	1	-5
357.469	1	1
357.811	1	24
358.153	1	3
358.495	1	13
358.837	1	2
359.179	1	2
359.521	1	0
359.863	1	-3
360.205	1	5
360.547	1	3
360.889	1	14
361.231	1	9
361.572	1	9
361.914	1	10
362.256	1	15
362.598	1	14
362.940	1	14
363.282	1	8
363.624	1	16
363.966	1	21
364.308	1	22
364.649	1	11
364.991	1	22
365.333	1	20
365.675	1	24
366.017	1	19
366.359	1	23
366.701	1	17
367.042	1	33
367.384	1	28
367.726	1	22
368.068	1	19
368.410	1	22
368.752	1	15
369.093	1	21
369.435	1	11
369.777	1	16
370.119	1	17
370.461	1	19
370.803	1	12
371.144	1	26
371.486	1	26
371.828	1	8
372.170	1	18
372.512	1	8
372.853	1	16
373.195	1	1
373.537	1	20
373.879	1	24
374.220	1	12
374.562	1	15
374.904	1	16
375.246	1	16
375.588	1	6
375.929	1	11
376.271	1	15
376.613	1	13
376.955	1	8
377.296	1	14
377.638	1	2
377.980	1	18
378.321	1	16
378.663	1	4
379.005	1	16
379.347	1	11
379.688	1	10
380.030	1	3
380.372	1	11
380.714	1	15
381.055	1	16
381.397	1	10
381.739	1	24
382.080	1	-5
382.422	1	29
382.764	1	4
383.105	1	8
383.447	1	24
383.789	1	15
384.130	1	10
384.472	1	18
384.814	1	30
385.156	1	34
385.497	1	29
385.839	1	29
386.180	1	32
386.522	1	37
386.864	1	25
387.205	1	14
387.547	1	28
387.889	1	34
388.230	1	21
388.572	1	31
388.914	1	29
389.255	1	24
389.597	1	22
389.939	1	43
390.280	1	32
390.622	1	25
390.963	1	24
391.305	1	28
391.647	1	20
391.988	1	18
392.330	1	30
392.671	1	23
393.013	1	31
393.355	1	31
393.696	1	21
394.038	1	4
394.379	1	14
394.721	1	28
395.062	1	9
395.404	1	14
395.746	1	24
396.087	1	26
396.429	1	30
396.770	1	33
397.112	1	26
397.453	1	16
397.795	1	37
398.136	1	31
398.478	1	19
398.819	1	26
399.161	1	20
399.503	1	27
399.844	1	23
400.186	1	26
400.527	1	28
400.869	1	26
401.210	1	8
401.552	1	30
401.893	1	19
402.235	1	29
402.576	1	23
402.918	1	14
403.259	1	8
403.601	1	7
403.942	1	20
404.284	1	27
404.625	1	18
404.967	1	17
405.308	1	19
405.649	1	19
405.991	1	17
406.332	1	14
406.674	1	16
407.015	1	9
407.357	1	14
407.698	1	9
408.040	1	14
408.381	1	10
408.722	1	20
409.064	1	14
409.405	1	20
409.747	1	9
410.088	1	23
410.430	1	22
410.771	1	23
411.112	1	20
411.454	1	23
411.795	1	16
412.137	1	28
412.478	1	27
412.819	1	11
413.161	1	14
413.502	1	7
413.844	1	2
414.185	1	12
414.526	1	12
414.868	1	15
415.209	1	4
415.550	1	4
415.892	1	3
416.233	1	14
416.575	1	5
416.916	1	11
417.257	1	22
417.599	1	21
417.940	1	14
418.281	1	11
418.623	1	6
418.964	1	15
419.305	1	15
419.647	1	11
419.988	1	12
420.329	1	15
420.671	1	10
421.012	1	19
421.353	1	18
421.695	1	15
422.036	1	10
422.377	1	13
422.718	1	12
423.060	1	11
423.401	1	14
423.742	1	15
424.084	1	19
424.425	1	12
424.766	1	16
425.107	1	0
425.449	1	17
425.790	1	9
426.131	1	11
426.472	1	17
426.814	1	19
427.155	1	0
427.496	1	11
427.837	1	-2
428.179	1	7
428.520	1	2
428.861	1	6
429.202	1	15
429.544	1	18
429.885	1	8
430.226	1	5
430.567	1	8
430.909	1	-4
431.250	1	3
431.591	1	12
431.932	1	17
432.273	1	8
432.615	1	3
432.956	1	9
433.297	1	20
433.638	1	9
433.979	1	14
434.320	1	4
434.662	1	-1
435.003	1	21
435.344	1	11
435.685	1	9
436.026	1	12
436.368	1	9
436.709	1	6
437.050	1	20
437.391	1	7
437.732	1	8
438.073	1	14
438.414	1	12
438.756	1	8
439.097	1	8
439.438	1	11
439.779	1	4
440.120	1	13
440.461	1	-5
440.802	1	11
441.143	1	18
441.485	1	6
441.826	1	-8
442.167	1	8
442.508	1	6
442.849	1	15
443.190	1	2
443.531	1	5
443.872	1	9
444.213	1	3
444.554	1	4
444.895	1	10
445.237	1	3
445.578	1	16
445.919	1	3
446.260	1	4
446.601	1	-5
446.942	1	-2
447.283	1	11
447.624	1	14
447.965	1	1
448.306	1	8
448.647	1	7
448.988	1	-5
449.329	1	5
449.670	1	17
450.011	1	7
450.352	1	21
450.693	1	14
451.034	1	11
451.375	1	16
451.716	1	14
452.057	1	17
452.398	1	13
452.739	1	6
453.080	1	13
453.421	1	10
453.762	1	14
454.103	1	8
454.444	1	10
454.785	1	0
455.126	1	11
455.467	1	9
455.808	1	11
456.149	1	0
456.490	1	14
456.831	1	20
457.172	1	0
457.513	1	11
457.854	1	-2
458.195	1	1
458.536	1	7
458.877	1	10
459.218	1	8
459.559	1	5
459.899	1	21
460.240	1	7
460.581	1	11
460.922	1	5
461.263	1	11
461.604	1	5
461.945	1	9
462.286	1	19
462.627	1	-5
462.968	1	5
463.309	1	0
463.649	1	15
463.990	1	6
464.331	1	13
464.672	1	7
465.013	1	-5
465.354	1	13
465.695	1	6
466.036	1	8
466.376	1	5
466.717	1	5
467.058	1	13
467.399	1	0
467.740	1	8
468.081	1	5
468.422	1	9
468.762	1	-8
469.103	1	-7
469.444	1	0
469.785	1	12
470.126	1	10
470.467	1	8
470.807	1	10
471.148	1	3
471.489	1	4
471.830	1	21
472.171	1	5
472.511	1	14
472.852	1	-4
473.193	1	-2
473.534	1	7
473.875	1	5
474.215	1	-3
474.556	1	-3
474.897	1	11
475.238	1	4
475.578	1	9
475.919	1	1
476.260	1	12
476.601	1	4
476.942	1	0
477.282	1	-4
477.623	1	11
477.964	1	8
478.305	1	11
478.645	1	5
478.986	1	11
479.327	1	-7
479.667	1	10
480.008	1	17
480.349	1	6
480.690	1	5
481.030	1	1
481.371	1	8
481.712	1	2
482.053	1	13
482.393	1	-2
482.734	1	5
483.075	1	12
483.415	1	18
483.756	1	17
484.097	1	0
484.437	1	-4
484.778	1	7
485.119	1	5
485.459	1	11
485.800	1	-6
486.141	1	-1
486.481	1	4
486.822	1	8
487.163	1	3
487.503	1	-2
487.844	1	11
488.185	1	7
488.525	1	0
488.866	1	19
489.207	1	11
489.547	1	-3
489.888	1	9
490.228	1	2
490.569	1	17
490.910	1	0
491.250	1	5
491.591	1	-6
491.932	1	4
492.272	1	17
492.613	1	16
492.953	1	3
493.294	1	13
493.635	1	12
493.975	1	7
494.316	1	14
494.656	1	5
494.997	1	4
495.337	1	8
495.678	1	20
496.019	1	0
496.359	1	5
496.700	1	6
497.040	1	4
497.381	1	-8
497.721	1	10
498.062	1	9
498.403	1	14
498.743	1	11
499.084	1	1
499.424	1	22
499.765	1	11
500.105	1	25
500.446	1	14
500.786	1	12
501.127	1	17
501.467	1	11
501.808	1	-3
502.148	1	7
502.489	1	10
502.829	1	14
503.170	1	12
503.510	1	0
503.851	1	-8
504.191	1	15
504.532	1	5
504.872	1	6
505.213	1	17
505.553	1	14
505.894	1	13
506.234	1	20
506.575	1	18
506.915	1	13
507.256	1	8
507.596	1	19
507.936	1	16
508.277	1	8
508.617	1	26
508.958	1	13
509.298	1	25
509.639	1	24
509.979	1	8
510.319	1	16
510.660	1	23
511.000	1	21
511.341	1	6
511.681	1	12
512.022	1	13
512.362	1	15
512.702	1	2
513.043	1	12
513.383	1	12
513.724	1	24
514.064	1	23
514.404	1	14
514.745	1	19
515.085	1	12
515.425	1	6
515.766	1	18
516.106	1	8
516.447	1	12
516.787	1	15
517.127	1	13
517.468	1	19
517.808	1	15
518.148	1	18
518.489	1	17
518.829	1	0
519.169	1	22
519.510	1	12
519.850	1	9
520.190	1	12
520.531	1	19
520.871	1	8
521.211	1	20
521.552	1	16
521.892	1	11
522.232	1	8
522.573	1	13
522.913	1	24
523.253	1	17
523.593	1	3
523.934	1	14
524.274	1	11
524.614	1	15
524.955	1	13
525.295	1	17
525.635	1	25
525.975	1	11
526.316	1	18
526.656	1	30
526.996	1	28
527.337	1	21
527.677	1	37
528.017	1	11
528.357	1	27
528.698	1	12
529.038	1	29
529.378	1	17
529.718	1	20
530.058	1	15
530.399	1	25
530.739	1	12
531.079	1	23
531.419	1	20
531.760	1	26
532.100	1	29
532.440	1	18
532.780	1	11
533.120	1	13
533.461	1	37
533.801	1	20
534.141	1	24
534.481	1	22
534.821	1	26
535.162	1	21
535.502	1	18
535.842	1	17
536.182	1	20
536.522	1	28
536.862	1	31
537.203	1	26
537.543	1	10
537.883	1	29
538.223	1	16
538.563	1	23
538.903	1	15
539.243	1	14
539.584	1	15
539.924	1	21
540.264	1	19
540.604	1	15
540.944	1	17
541.284	1	17
541.624	1	19
541.964	1	27
542.305	1	11
542.645	1	25
542.985	1	4
543.325	1	9
543.665	1	23
544.005	1	20
544.345	1	11
544.685	1	19
545.025	1	6
545.365	1	19
545.705	1	18
546.045	1	18
546.386	1	20
546.726	1	13
547.066	1	8
547.406	1	24
547.746	1	25
548.086	1	23
548.426	1	8
548.766	1	18
549.106	1	20
549.446	1	15
549.786	1	16
550.126	1	17
550.466	1	6
550.806	1	16
551.146	1	14
551.486	1	22
551.826	1	27
552.166	1	13
552.506	1	2
552.846	1	12
553.186	1	22
553.526	1	12
553.866	1	17
554.206	1	15
554.546	1	18
554.886	1	16
555.226	1	7
555.566	1	23
555.906	1	16
556.246	1	11
556.586	1	17
556.926	1	18
557.266	1	24
557.606	1	1
557.946	1	18
558.286	1	20
558.626	1	12
558.966	1	10
559.306	1	12
559.646	1	11
559.986	1	10
560.325	1	4
560.665	1	22
561.005	1	11
561.345	1	0
561.685	1	9
562.025	1	9
562.365	1	13
562.705	1	22
563.045	1	20
563.385	1	0
563.725	1	11
564.064	1	19
564.404	1	8
564.744	1	14
565.084	1	-1
565.424	1	6
565.764	1	17
566.104	1	11
566.444	1	17
566.783	1	11
567.123	1	21
567.463	1	12
567.803	1	2
568.143	1	7
568.483	1	7
568.823	1	14
569.162	1	9
569.502	1	9
569.842	1	4
570.182	1	8
570.522	1	6
570.862	1	16
571.201	1	6
571.541	1	3
571.881	1	11
572.221	1	12
572.561	1	-4
572.900	1	15
573.240	1	1
573.580	1	5
573.920	1	10
574.260	1	8
574.599	1	3
574.939	1	14
575.279	1	3
575.619	1	11
575.959	1	7
576.298	1	3
576.638	1	10
576.978	1	7
577.318	1	9
577.657	1	-13
577.997	1	12
578.337	1	14
578.677	1	11
579.016	1	24
579.356	1	4
579.696	1	7
580.036	1	-2
580.375	1	2
580.715	1	16
581.055	1	12
581.394	1	5
581.734	1	7
582.074	1	2
582.414	1	14
582.753	1	14
583.093	1	4
583.433	1	8
583.772	1	13
584.112	1	9
584.452	1	2
584.791	1	8
585.131	1	5
585.471	1	2
585.811	1	3
586.150	1	4
586.490	1	0
586.830	1	-3
587.169	1	5
587.509	1	2
587.849	1	16
588.188	1	1
588.528	1	18
588.867	1	4
589.207	1	-4
589.547	1	4
589.886	1	4
590.226	1	3
590.566	1	1
590.905	1	12
591.245	1	6
591.585	1	3
591.924	1	7
592.264	1	9
592.603	1	6
592.943	1	0
593.283	1	24
593.622	1	12
593.962	1	8
594.301	1	16
594.641	1	-1
594.981	1	7
595.320	1	8
595.660	1	2
595.999	1	12
596.339	1	14
596.678	1	3
597.018	1	7
597.358	1	9
597.697	1	-2
598.037	1	6
598.376	1	11
598.716	1	-3
599.055	1	-1
599.395	1	14
599.734	1	12
600.074	1	6
600.413	1	7
600.753	1	6
601.092	1	3
601.432	1	4
601.771	1	15
602.111	1	-8
602.451	1	3
602.790	1	1
603.130	1	18
603.469	1	9
603.809	1	13
604.148	1	5
604.487	1	10
604.827	1	-4
605.166	1	4
605.506	1	14
605.845	1	4
606.185	1	-1
606.524	1	-1
606.864	1	6
607.203	1	12
607.543	1	1
607.882	1	-4
608.222	1	2
608.561	1	13
608.901	1	8
609.240	1	3
609.579	1	8
609.919	1	5
610.258	1	16
610.598	1	5
610.937	1	3
611.277	1	6
611.616	1	-4
611.955	1	6
612.295	1	14
612.634	1	5
612.974	1	6
613.313	1	3
613.652	1	-5
613.992	1	16
614.331	1	4
614.671	1	2
615.010	1	6
615.349	1	10
615.689	1	1
616.028	1	5
616.368	1	0
616.707	1	-1
617.046	1	8
617.386	1	-7
617.725	1	13
618.064	1	18
618.404	1	17
618.743	1	10
619.082	1	-1
619.422	1	6
619.761	1	4
620.100	1	11
620.440	1	7
620.779	1	-2
621.118	1	4
621.458	1	2
621.797	1	7
622.136	1	9
622.476	1	8
622.815	1	10
623.154	1	5
623.494	1	6
623.833	1	-4
624.172	1	5
624.511	1	-5
624.851	1	-3
625.190	1	7
625.529	1	6
625.869	1	11
626.208	1	3
626.547	1	14
626.886	1	0
627.226	1	6
627.565	1	15
627.904	1	10
628.243	1	-6
628.583	1	7
628.922	1	11
629.261	1	9
629.600	1	11
629.940	1	9
630.279	1	-2
630.618	1	0
630.957	1	-9
631.297	1	5
631.636	1	10
631.975	1	4
632.314	1	14
632.653	1	-2
632.993	1	9
633.332	1	4
633.671	1	10
634.010	1	4
634.349	1	11
634.689	1	8
635.028	1	9
635.367	1	6
635.706	1	-1
636.045	1	5
636.384	1	1
636.724	1	6
637.063	1	10
637.402	1	16
637.741	1	10
638.080	1	0
638.419	1	0
638.759	1	1
639.098	1	0
639.437	1	-7
639.776	1	3
640.115	1	0
640.454	1	11
640.793	1	8
641.132	1	18
641.472	1	-7
641.811	1	1
642.150	1	3
642.489	1	9
642.828	1	-2
643.167	1	21
643.506	1	-6
643.845	1	5
644.184	1	14
644.524	1	0
644.863	1	4
645.202	1	1
645.541	1	-9
645.880	1	-2
646.219	1	11
646.558	1	-2
646.897	1	7
647.236	1	15
647.575	1	4
647.914	1	5
648.253	1	7
648.592	1	4
648.931	1	5
649.270	1	12
649.610	1	14
649.949	1	3
650.288	1	0
650.627	1	2
650.966	1	4
651.305	1	1
651.644	1	4
651.983	1	7
652.322	1	9
652.661	1	2
653.000	1	2
653.339	1	14
653.678	1	2
654.017	1	8
654.356	1	2
654.695	1	7
655.034	1	3
655.373	1	-1
655.712	1	4
656.051	1	17
656.390	1	8
656.729	1	9
657.068	1	-1
657.406	1	1
657.745	1	-2
658.084	1	17
658.423	1	-2
658.762	1	3
659.101	1	7
659.440	1	10
659.779	1	-3
660.118	1	10
660.457	1	7
660.796	1	2
661.135	1	11
661.474	1	10
661.813	1	0
662.152	1	3
662.491	1	1
662.829	1	2
663.168	1	-8
663.507	1	6
663.846	1	5
664.185	1	9
664.524	1	-4
664.863	1	6
665.202	1	-1
665.541	1	13
665.879	1	8
666.218	1	0
666.557	1	2
666.896	1	-3
667.235	1	9
667.574	1	10
667.913	1	8
668.251	1	1
668.590	1	-1
668.929	1	13
669.268	1	-1
669.607	1	-16
669.946	1	12
670.285	1	10
670.623	1	6
670.962	1	2
671.301	1	-1
671.640	1	-8
671.979	1	11
672.317	1	3
672.656	1	0
672.995	1	-1
673.334	1	14
673.673	1	16
674.011	1	3
674.350	1	4
674.689	1	0
675.028	1	5
675.367	1	5
675.705	1	-3
676.044	1	-3
676.383	1	7
676.722	1	11
677.060	1	7
677.399	1	2
677.738	1	-6
678.077	1	4
678.416	1	2
678.754	1	-2
679.093	1	7
679.432	1	-1
679.771	1	1
680.109	1	5
680.448	1	7
680.787	1	-6
681.125	1	3
681.464	1	-3
681.803	1	-5
682.142	1	19
682.480	1	4
682.819	1	8
683.158	1	3
683.496	1	3
683.835	1	3
684.174	1	-3
684.512	1	6
684.851	1	4
685.190	1	8
685.529	1	-1
685.867	1	0
686.206	1	7
686.545	1	12
686.883	1	0
687.222	1	1
687.561	1	-5
687.899	1	-1
688.238	1	9
688.577	1	-5
688.746	1	13