File: Analysis/GaN_68K_200ms/GaN_sample E_spot4_UVVIS_68 K_200um_200 ms 2x2mm1_358.txt
340.368	1	5
340.710	1	-9
341.052	1	8
341.394	1	8
341.737	1	11
342.079	1	-14
342.421	1	0
342.763	1	-8
343.105	1	3
343.447	1	6
343.789	1	1
344.131	1	6
344.473	1	-3
344.815	1	7
345.157	1	-3
345.499	1	7
345.841	1	5
346.183	1	2
346.526	1	12
346.868	1	-3
347.210	1	5
347.552	1	-1
347.894	1	0
348.236	1	7
348.578	1	11
348.920	1	-2
349.262	1	-7
349.604	1	10
349.946	1	7
350.288	1	-3
350.630	1	4
350.972	1	1
351.314	1	11
351.656	1	0
351.998	1	2
352.340	1	5
352.682	1	1
353.024	1	-2
353.366	1	-2
353.708	1	1
354.050	1	8
354.392	1	-1
354.734	1	-4
355.076	1	1
355.418	1	-3
355.760	1	1
356.102	1	-8
356.444	1	9
356.785	1	10
357.127	1	7
357.469	1	3
357.811	1	14
358.153	1	1
358.495	1	6
358.837	1	-3
359.179	1	7
359.521	1	3
359.863	1	-3
360.205	1	-6
360.547	1	3
360.889	1	3
361.231	1	4
361.572	1	1
361.914	1	-1
362.256	1	3
362.598	1	4
362.940	1	4
363.282	1	-8
363.624	1	4
363.966	1	9
364.308	1	-1
364.649	1	8
364.991	1	2
365.333	1	15
365.675	1	-3
366.017	1	6
366.359	1	17
366.701	1	-2
367.042	1	13
367.384	1	14
367.726	1	22
368.068	1	2
368.410	1	0
368.752	1	-5
369.093	1	10
369.435	1	4
369.777	1	10
370.119	1	3
370.461	1	7
370.803	1	3
371.144	1	9
371.486	1	8
371.828	1	4
372.170	1	5
372.512	1	0
372.853	1	0
373.195	1	-2
373.537	1	11
373.879	1	14
374.220	1	7
374.562	1	7
374.904	1	1
375.246	1	4
375.588	1	4
375.929	1	2
376.271	1	5
376.613	1	2
376.955	1	-1
377.296	1	4
377.638	1	-1
377.980	1	8
378.321	1	14
378.663	1	1
379.005	1	0
379.347	1	6
379.688	1	0
380.030	1	1
380.372	1	4
380.714	1	8
381.055	1	0
381.397	1	0
381.739	1	17
382.080	1	-10
382.422	1	12
382.764	1	-9
383.105	1	4
383.447	1	13
383.789	1	13
384.130	1	0
384.472	1	-1
384.814	1	16
385.156	1	13
385.497	1	5
385.839	1	11
386.180	1	1
386.522	1	12
386.864	1	1
387.205	1	5
387.547	1	5
387.889	1	18
388.230	1	-2
388.572	1	-1
388.914	1	16
389.255	1	8
389.597	1	-1
389.939	1	11
390.280	1	12
390.622	1	-2
390.963	1	14
391.305	1	11
391.647	1	7
391.988	1	8
392.330	1	10
392.671	1	7
393.013	1	14
393.355	1	24
393.696	1	4
394.038	1	2
394.379	1	4
394.721	1	5
395.062	1	3
395.404	1	6
395.746	1	-6
396.087	1	0
396.429	1	5
396.770	1	12
397.112	1	4
397.453	1	2
397.795	1	6
398.136	1	7
398.478	1	2
398.819	1	6
399.161	1	8
399.503	1	16
399.844	1	7
400.186	1	10
400.527	1	9
400.869	1	9
401.210	1	2
401.552	1	8
401.893	1	9
402.235	1	14
402.576	1	17
402.918	1	5
403.259	1	-12
403.601	1	0
403.942	1	10
404.284	1	5
404.625	1	12
404.967	1	5
405.308	1	8
405.649	1	-3
405.991	1	11
406.332	1	2
406.674	1	7
407.015	1	-1
407.357	1	14
407.698	1	4
408.040	1	-2
408.381	1	2
408.722	1	3
409.064	1	12
409.405	1	-3
409.747	1	1
410.088	1	12
410.430	1	2
410.771	1	7
411.112	1	9
411.454	1	24
411.795	1	12
412.137	1	9
412.478	1	3
412.819	1	-3
413.161	1	0
413.502	1	-4
413.844	1	-7
414.185	1	15
414.526	1	16
414.868	1	7
415.209	1	2
415.550	1	-6
415.892	1	-8
416.233	1	-2
416.575	1	-1
416.916	1	3
417.257	1	1
417.599	1	7
417.940	1	5
418.281	1	9
418.623	1	-1
418.964	1	7
419.305	1	1
419.647	1	-2
419.988	1	3
420.329	1	12
420.671	1	9
421.012	1	5
421.353	1	7
421.695	1	3
422.036	1	1
422.377	1	6
422.718	1	10
423.060	1	4
423.401	1	5
423.742	1	7
424.084	1	2
424.425	1	7
424.766	1	6
425.107	1	-2
425.449	1	1
425.790	1	-1
426.131	1	-3
426.472	1	3
426.814	1	12
427.155	1	-4
427.496	1	14
427.837	1	0
428.179	1	-8
428.520	1	0
428.861	1	7
429.202	1	12
429.544	1	9
429.885	1	-1
430.226	1	-2
430.567	1	16
430.909	1	-10
431.250	1	-3
431.591	1	8
431.932	1	4
432.273	1	-1
432.615	1	5
432.956	1	-6
433.297	1	11
433.638	1	-1
433.979	1	6
434.320	1	-6
434.662	1	-4
435.003	1	16
435.344	1	6
435.685	1	3
436.026	1	8
436.368	1	8
436.709	1	3
437.050	1	3
437.391	1	7
437.732	1	8
438.073	1	3
438.414	1	1
438.756	1	1
439.097	1	6
439.438	1	8
439.779	1	-4
440.120	1	-5
440.461	1	0
440.802	1	8
441.143	1	7
441.485	1	0
441.826	1	1
442.167	1	2
442.508	1	0
442.849	1	9
443.190	1	-4
443.531	1	8
443.872	1	2
444.213	1	-6
444.554	1	0
444.895	1	5
445.237	1	2
445.578	1	20
445.919	1	0
446.260	1	7
446.601	1	2
446.942	1	11
447.283	1	-1
447.624	1	9
447.965	1	-12
448.306	1	-3
448.647	1	15
448.988	1	-6
449.329	1	2
449.670	1	5
450.011	1	6
450.352	1	7
450.693	1	17
451.034	1	11
451.375	1	11
451.716	1	12
452.057	1	20
452.398	1	2
452.739	1	6
453.080	1	8
453.421	1	-1
453.762	1	15
454.103	1	10
454.444	1	13
454.785	1	3
455.126	1	4
455.467	1	-3
455.808	1	-4
456.149	1	-8
456.490	1	-2
456.831	1	9
457.172	1	0
457.513	1	10
457.854	1	7
458.195	1	-1
458.536	1	7
458.877	1	-9
459.218	1	9
459.559	1	2
459.899	1	10
460.240	1	3
460.581	1	10
460.922	1	3
461.263	1	9
461.604	1	7
461.945	1	12
462.286	1	7
462.627	1	-1
462.968	1	0
463.309	1	5
463.649	1	5
463.990	1	-4
464.331	1	2
464.672	1	6
465.013	1	-2
465.354	1	0
465.695	1	8
466.036	1	2
466.376	1	-3
466.717	1	-6
467.058	1	8
467.399	1	5
467.740	1	-2
468.081	1	15
468.422	1	0
468.762	1	-10
469.103	1	-7
469.444	1	5
469.785	1	5
470.126	1	7
470.467	1	2
470.807	1	7
471.148	1	-8
471.489	1	-9
471.830	1	13
472.171	1	11
472.511	1	8
472.852	1	-5
473.193	1	-8
473.534	1	4
473.875	1	3
474.215	1	7
474.556	1	-5
474.897	1	-1
475.238	1	-9
475.578	1	-3
475.919	1	6
476.260	1	10
476.601	1	0
476.942	1	0
477.282	1	-2
477.623	1	8
477.964	1	8
478.305	1	7
478.645	1	-2
478.986	1	1
479.327	1	-1
479.667	1	10
480.008	1	12
480.349	1	6
480.690	1	-1
481.030	1	-13
481.371	1	0
481.712	1	3
482.053	1	8
482.393	1	-10
482.734	1	1
483.075	1	7
483.415	1	5
483.756	1	3
484.097	1	-13
484.437	1	1
484.778	1	-3
485.119	1	2
485.459	1	9
485.800	1	-1
486.141	1	-9
486.481	1	5
486.822	1	0
487.163	1	6
487.503	1	1
487.844	1	2
488.185	1	-4
488.525	1	-14
488.866	1	12
489.207	1	13
489.547	1	-2
489.888	1	-2
490.228	1	1
490.569	1	12
490.910	1	-3
491.250	1	1
491.591	1	0
491.932	1	4
492.272	1	5
492.613	1	13
492.953	1	7
493.294	1	6
493.635	1	-9
493.975	1	-1
494.316	1	11
494.656	1	4
494.997	1	-4
495.337	1	8
495.678	1	12
496.019	1	-7
496.359	1	-1
496.700	1	1
497.040	1	-2
497.381	1	-15
497.721	1	-2
498.062	1	-5
498.403	1	11
498.743	1	8
499.084	1	-18
499.424	1	7
499.765	1	-7
500.105	1	10
500.446	1	14
500.786	1	10
501.127	1	16
501.467	1	-5
501.808	1	-7
502.148	1	4
502.489	1	-3
502.829	1	2
503.170	1	7
503.510	1	4
503.851	1	-11
504.191	1	11
504.532	1	-3
504.872	1	-2
505.213	1	-1
505.553	1	5
505.894	1	4
506.234	1	11
506.575	1	2
506.915	1	7
507.256	1	-3
507.596	1	4
507.936	1	8
508.277	1	-2
508.617	1	20
508.958	1	11
509.298	1	2
509.639	1	8
509.979	1	-4
510.319	1	-8
510.660	1	14
511.000	1	10
511.341	1	4
511.681	1	-3
512.022	1	2
512.362	1	5
512.702	1	-7
513.043	1	9
513.383	1	-2
513.724	1	12
514.064	1	17
514.404	1	7
514.745	1	1
515.085	1	-8
515.425	1	1
515.766	1	2
516.106	1	-3
516.447	1	7
516.787	1	3
517.127	1	7
517.468	1	6
517.808	1	8
518.148	1	9
518.489	1	9
518.829	1	0
519.169	1	10
519.510	1	0
519.850	1	3
520.190	1	3
520.531	1	9
520.871	1	-6
521.211	1	13
521.552	1	10
521.892	1	0
522.232	1	-2
522.573	1	3
522.913	1	6
523.253	1	0
523.593	1	-4
523.934	1	5
524.274	1	-2
524.614	1	-1
524.955	1	3
525.295	1	1
525.635	1	6
525.975	1	-4
526.316	1	-1
526.656	1	17
526.996	1	11
527.337	1	5
527.677	1	17
528.017	1	-5
528.357	1	3
528.698	1	0
529.038	1	7
529.378	1	0
529.718	1	7
530.058	1	16
530.399	1	10
530.739	1	1
531.079	1	11
531.419	1	16
531.760	1	16
532.100	1	7
532.440	1	5
532.780	1	8
533.120	1	-7
533.461	1	9
533.801	1	11
534.141	1	12
534.481	1	-3
534.821	1	14
535.162	1	9
535.502	1	8
535.842	1	5
536.182	1	2
536.522	1	13
536.862	1	11
537.203	1	2
537.543	1	9
537.883	1	13
538.223	1	5
538.563	1	12
538.903	1	0
539.243	1	6
539.584	1	-1
539.924	1	6
540.264	1	10
540.604	1	12
540.944	1	-4
541.284	1	-4
541.624	1	4
541.964	1	6
542.305	1	-6
542.645	1	6
542.985	1	1
543.325	1	-6
543.665	1	16
544.005	1	3
544.345	1	-10
544.685	1	12
545.025	1	4
545.365	1	-2
545.705	1	13
546.045	1	20
546.386	1	-3
546.726	1	2
547.066	1	-3
547.406	1	11
547.746	1	12
548.086	1	2
548.426	1	0
548.766	1	11
549.106	1	12
549.446	1	0
549.786	1	7
550.126	1	2
550.466	1	2
550.806	1	12
551.146	1	1
551.486	1	3
551.826	1	5
552.166	1	1
552.506	1	-12
552.846	1	9
553.186	1	10
553.526	1	0
553.866	1	7
554.206	1	1
554.546	1	2
554.886	1	0
555.226	1	6
555.566	1	6
555.906	1	14
556.246	1	3
556.586	1	14
556.926	1	1
557.266	1	16
557.606	1	1
557.946	1	11
558.286	1	4
558.626	1	8
558.966	1	4
559.306	1	-1
559.646	1	-8
559.986	1	-4
560.325	1	-10
560.665	1	5
561.005	1	7
561.345	1	7
561.685	1	-6
562.025	1	3
562.365	1	11
562.705	1	11
563.045	1	1
563.385	1	0
563.725	1	3
564.064	1	16
564.404	1	0
564.744	1	12
565.084	1	-1
565.424	1	7
565.764	1	8
566.104	1	7
566.444	1	13
566.783	1	5
567.123	1	11
567.463	1	5
567.803	1	-6
568.143	1	-1
568.483	1	-7
568.823	1	10
569.162	1	10
569.502	1	2
569.842	1	0
570.182	1	1
570.522	1	6
570.862	1	14
571.201	1	9
571.541	1	-8
571.881	1	10
572.221	1	11
572.561	1	-2
572.900	1	10
573.240	1	-10
573.580	1	8
573.920	1	-1
574.260	1	-5
574.599	1	-6
574.939	1	-8
575.279	1	9
575.619	1	0
575.959	1	0
576.298	1	1
576.638	1	1
576.978	1	3
577.318	1	16
577.657	1	-3
577.997	1	0
578.337	1	-4
578.677	1	2
579.016	1	12
579.356	1	-14
579.696	1	6
580.036	1	-1
580.375	1	-6
580.715	1	1
581.055	1	6
581.394	1	-3
581.734	1	-7
582.074	1	11
582.414	1	-1
582.753	1	6
583.093	1	-9
583.433	1	-10
583.772	1	2
584.112	1	8
584.452	1	2
584.791	1	2
585.131	1	8
585.471	1	3
585.811	1	-1
586.150	1	-2
586.490	1	-2
586.830	1	-8
587.169	1	1
587.509	1	4
587.849	1	4
588.188	1	8
588.528	1	-2
588.867	1	3
589.207	1	-11
589.547	1	-6
589.886	1	-1
590.226	1	4
590.566	1	8
590.905	1	5
591.245	1	1
591.585	1	1
591.924	1	6
592.264	1	9
592.603	1	-5
592.943	1	-2
593.283	1	12
593.622	1	0
593.962	1	10
594.301	1	2
594.641	1	-7
594.981	1	0
595.320	1	3
595.660	1	-5
595.999	1	9
596.339	1	-1
596.678	1	-3
597.018	1	10
597.358	1	-3
597.697	1	2
598.037	1	6
598.376	1	8
598.716	1	-19
599.055	1	2
599.395	1	13
599.734	1	3
600.074	1	-2
600.413	1	3
600.753	1	3
601.092	1	-6
601.432	1	1
601.771	1	10
602.111	1	-3
602.451	1	8
602.790	1	2
603.130	1	6
603.469	1	-1
603.809	1	9
604.148	1	6
604.487	1	2
604.827	1	-4
605.166	1	0
605.506	1	10
605.845	1	5
606.185	1	-13
606.524	1	-2
606.864	1	-10
607.203	1	15
607.543	1	-7
607.882	1	-4
608.222	1	6
608.561	1	8
608.901	1	0
609.240	1	2
609.579	1	4
609.919	1	-1
610.258	1	0
610.598	1	1
610.937	1	2
611.277	1	13
611.616	1	-7
611.955	1	10
612.295	1	2
612.634	1	6
612.974	1	11
613.313	1	10
613.652	1	-4
613.992	1	7
614.331	1	11
614.671	1	3
615.010	1	1
615.349	1	0
615.689	1	9
616.028	1	0
616.368	1	-7
616.707	1	0
617.046	1	4
617.386	1	2
617.725	1	8
618.064	1	11
618.404	1	11
618.743	1	2
619.082	1	8
619.422	1	-3
619.761	1	1
620.100	1	2
620.440	1	-7
620.779	1	4
621.118	1	-4
621.458	1	-1
621.797	1	2
622.136	1	-4
622.476	1	7
622.815	1	-4
623.154	1	6
623.494	1	2
623.833	1	4
624.172	1	21
624.511	1	3
624.851	1	3
625.190	1	7
625.529	1	7
625.869	1	6
626.208	1	-8
626.547	1	6
626.886	1	-6
627.226	1	3
627.565	1	15
627.904	1	4
628.243	1	-8
628.583	1	-5
628.922	1	5
629.261	1	7
629.600	1	5
629.940	1	8
630.279	1	-9
630.618	1	4
630.957	1	-1
631.297	1	-7
631.636	1	-3
631.975	1	12
632.314	1	12
632.653	1	1
632.993	1	-3
633.332	1	4
633.671	1	-8
634.010	1	3
634.349	1	13
634.689	1	3
635.028	1	4
635.367	1	0
635.706	1	-5
636.045	1	-1
636.384	1	6
636.724	1	-4
637.063	1	4
637.402	1	5
637.741	1	10
638.080	1	9
638.419	1	12
638.759	1	-7
639.098	1	5
639.437	1	-4
639.776	1	5
640.115	1	4
640.454	1	13
640.793	1	2
641.132	1	5
641.472	1	1
641.811	1	2
642.150	1	-1
642.489	1	2
642.828	1	15
643.167	1	13
643.506	1	-3
643.845	1	3
644.184	1	9
644.524	1	-4
644.863	1	-3
645.202	1	5
645.541	1	-9
645.880	1	-9
646.219	1	5
646.558	1	-3
646.897	1	-8
647.236	1	3
647.575	1	-3
647.914	1	1
648.253	1	3
648.592	1	7
648.931	1	6
649.270	1	5
649.610	1	13
649.949	1	2
650.288	1	1
650.627	1	5
650.966	1	-3
651.305	1	2
651.644	1	7
651.983	1	8
652.322	1	7
652.661	1	0
653.000	1	2
653.339	1	8
653.678	1	-1
654.017	1	3
654.356	1	3
654.695	1	5
655.034	1	9
655.373	1	3
655.712	1	-1
656.051	1	11
656.390	1	-3
656.729	1	3
657.068	1	-2
657.406	1	3
657.745	1	-2
658.084	1	9
658.423	1	-6
658.762	1	-5
659.101	1	-4
659.440	1	4
659.779	1	-2
660.118	1	2
660.457	1	0
660.796	1	-1
661.135	1	6
661.474	1	1
661.813	1	4
662.152	1	-2
662.491	1	6
662.829	1	1
663.168	1	-2
663.507	1	-6
663.846	1	9
664.185	1	-6
664.524	1	-10
664.863	1	0
665.202	1	-2
665.541	1	3
665.879	1	-8
666.218	1	-13
666.557	1	16
666.896	1	3
667.235	1	-10
667.574	1	8
667.913	1	-2
668.251	1	4
668.590	1	-8
668.929	1	7
669.268	1	-5
669.607	1	-11
669.946	1	8
670.285	1	1
670.623	1	4
670.962	1	-4
671.301	1	3
671.640	1	-6
671.979	1	5
672.317	1	-3
672.656	1	0
672.995	1	5
673.334	1	6
673.673	1	9
674.011	1	11
674.350	1	3
674.689	1	-3
675.028	1	3
675.367	1	5
675.705	1	-8
676.044	1	-4
676.383	1	0
676.722	1	8
677.060	1	-2
677.399	1	2
677.738	1	-2
678.077	1	3
678.416	1	1
678.754	1	-3
679.093	1	-3
679.432	1	-1
679.771	1	3
680.109	1	5
680.448	1	-3
680.787	1	-4
681.125	1	-6
681.464	1	4
681.803	1	-20
682.142	1	12
682.480	1	-10
682.819	1	3
683.158	1	2
683.496	1	-4
683.835	1	4
684.174	1	10
684.512	1	-2
684.851	1	-2
685.190	1	5
685.529	1	3
685.867	1	2
686.206	1	1
686.545	1	13
686.883	1	-11
687.222	1	-4
687.561	1	4
687.899	1	4
688.238	1	2
688.577	1	-5
688.746	1	2