File: Analysis/GaN_68K_200ms/GaN_sample E_spot4_UVVIS_68 K_200um_200 ms 2x2mm1_174.txt
340.368	1	6
340.710	1	0
341.052	1	8
341.394	1	1
341.737	1	11
342.079	1	-6
342.421	1	0
342.763	1	-1
343.105	1	14
343.447	1	7
343.789	1	-2
344.131	1	2
344.473	1	3
344.815	1	14
345.157	1	12
345.499	1	11
345.841	1	5
346.183	1	3
346.526	1	2
346.868	1	18
347.210	1	3
347.552	1	8
347.894	1	5
348.236	1	12
348.578	1	9
348.920	1	7
349.262	1	0
349.604	1	18
349.946	1	16
350.288	1	7
350.630	1	-4
350.972	1	-4
351.314	1	0
351.656	1	11
351.998	1	7
352.340	1	2
352.682	1	-1
353.024	1	2
353.366	1	10
353.708	1	12
354.050	1	19
354.392	1	8
354.734	1	1
355.076	1	9
355.418	1	0
355.760	1	10
356.102	1	-3
356.444	1	3
356.785	1	11
357.127	1	12
357.469	1	0
357.811	1	14
358.153	1	-1
358.495	1	18
358.837	1	8
359.179	1	12
359.521	1	11
359.863	1	4
360.205	1	3
360.547	1	16
360.889	1	9
361.231	1	14
361.572	1	8
361.914	1	3
362.256	1	24
362.598	1	13
362.940	1	14
363.282	1	19
363.624	1	23
363.966	1	23
364.308	1	22
364.649	1	24
364.991	1	26
365.333	1	35
365.675	1	22
366.017	1	37
366.359	1	30
366.701	1	38
367.042	1	42
367.384	1	49
367.726	1	42
368.068	1	34
368.410	1	33
368.752	1	21
369.093	1	16
369.435	1	32
369.777	1	16
370.119	1	27
370.461	1	17
370.803	1	24
371.144	1	30
371.486	1	31
371.828	1	28
372.170	1	23
372.512	1	19
372.853	1	19
373.195	1	16
373.537	1	20
373.879	1	26
374.220	1	22
374.562	1	25
374.904	1	20
375.246	1	10
375.588	1	17
375.929	1	15
376.271	1	18
376.613	1	15
376.955	1	10
377.296	1	16
377.638	1	12
377.980	1	17
378.321	1	22
378.663	1	10
379.005	1	12
379.347	1	16
379.688	1	5
380.030	1	8
380.372	1	12
380.714	1	17
381.055	1	13
381.397	1	13
381.739	1	28
382.080	1	5
382.422	1	32
382.764	1	15
383.105	1	22
383.447	1	26
383.789	1	27
384.130	1	14
384.472	1	22
384.814	1	34
385.156	1	41
385.497	1	39
385.839	1	23
386.180	1	39
386.522	1	44
386.864	1	26
387.205	1	36
387.547	1	34
387.889	1	48
388.230	1	43
388.572	1	36
388.914	1	36
389.255	1	32
389.597	1	32
389.939	1	35
390.280	1	41
390.622	1	32
390.963	1	40
391.305	1	39
391.647	1	25
391.988	1	32
392.330	1	46
392.671	1	31
393.013	1	37
393.355	1	43
393.696	1	24
394.038	1	32
394.379	1	29
394.721	1	29
395.062	1	16
395.404	1	41
395.746	1	20
396.087	1	15
396.429	1	38
396.770	1	38
397.112	1	24
397.453	1	19
397.795	1	34
398.136	1	36
398.478	1	29
398.819	1	33
399.161	1	29
399.503	1	36
399.844	1	38
400.186	1	38
400.527	1	42
400.869	1	35
401.210	1	29
401.552	1	39
401.893	1	23
402.235	1	31
402.576	1	26
402.918	1	27
403.259	1	18
403.601	1	16
403.942	1	22
404.284	1	17
404.625	1	23
404.967	1	23
405.308	1	40
405.649	1	25
405.991	1	26
406.332	1	20
406.674	1	32
407.015	1	14
407.357	1	21
407.698	1	14
408.040	1	15
408.381	1	18
408.722	1	23
409.064	1	15
409.405	1	26
409.747	1	23
410.088	1	19
410.430	1	17
410.771	1	17
411.112	1	24
411.454	1	32
411.795	1	25
412.137	1	19
412.478	1	13
412.819	1	13
413.161	1	11
413.502	1	14
413.844	1	15
414.185	1	21
414.526	1	21
414.868	1	23
415.209	1	16
415.550	1	19
415.892	1	20
416.233	1	8
416.575	1	15
416.916	1	9
417.257	1	15
417.599	1	23
417.940	1	10
418.281	1	17
418.623	1	15
418.964	1	18
419.305	1	14
419.647	1	20
419.988	1	17
420.329	1	19
420.671	1	27
421.012	1	26
421.353	1	19
421.695	1	17
422.036	1	14
422.377	1	13
422.718	1	12
423.060	1	17
423.401	1	12
423.742	1	7
424.084	1	15
424.425	1	14
424.766	1	13
425.107	1	24
425.449	1	16
425.790	1	19
426.131	1	10
426.472	1	9
426.814	1	24
427.155	1	12
427.496	1	20
427.837	1	6
428.179	1	7
428.520	1	2
428.861	1	17
429.202	1	19
429.544	1	12
429.885	1	13
430.226	1	15
430.567	1	18
430.909	1	-7
431.250	1	1
431.591	1	14
431.932	1	17
432.273	1	9
432.615	1	20
432.956	1	17
433.297	1	21
433.638	1	4
433.979	1	12
434.320	1	11
434.662	1	1
435.003	1	16
435.344	1	15
435.685	1	21
436.026	1	11
436.368	1	12
436.709	1	4
437.050	1	13
437.391	1	16
437.732	1	10
438.073	1	12
438.414	1	14
438.756	1	12
439.097	1	8
439.438	1	13
439.779	1	5
440.120	1	3
440.461	1	-1
440.802	1	13
441.143	1	17
441.485	1	1
441.826	1	-2
442.167	1	13
442.508	1	6
442.849	1	18
443.190	1	-4
443.531	1	0
443.872	1	5
444.213	1	7
444.554	1	6
444.895	1	8
445.237	1	3
445.578	1	15
445.919	1	2
446.260	1	9
446.601	1	5
446.942	1	3
447.283	1	0
447.624	1	6
447.965	1	-3
448.306	1	14
448.647	1	23
448.988	1	9
449.329	1	7
449.670	1	16
450.011	1	10
450.352	1	20
450.693	1	12
451.034	1	4
451.375	1	11
451.716	1	12
452.057	1	12
452.398	1	5
452.739	1	1
453.080	1	19
453.421	1	16
453.762	1	9
454.103	1	9
454.444	1	19
454.785	1	0
455.126	1	5
455.467	1	9
455.808	1	2
456.149	1	-4
456.490	1	15
456.831	1	11
457.172	1	-2
457.513	1	12
457.854	1	6
458.195	1	3
458.536	1	3
458.877	1	8
459.218	1	6
459.559	1	8
459.899	1	16
460.240	1	2
460.581	1	5
460.922	1	11
461.263	1	13
461.604	1	-1
461.945	1	15
462.286	1	17
462.627	1	10
462.968	1	5
463.309	1	10
463.649	1	8
463.990	1	4
464.331	1	5
464.672	1	5
465.013	1	-3
465.354	1	12
465.695	1	10
466.036	1	2
466.376	1	4
466.717	1	1
467.058	1	12
467.399	1	5
467.740	1	0
468.081	1	8
468.422	1	17
468.762	1	-9
469.103	1	2
469.444	1	4
469.785	1	16
470.126	1	14
470.467	1	7
470.807	1	3
471.148	1	2
471.489	1	2
471.830	1	23
472.171	1	10
472.511	1	11
472.852	1	5
473.193	1	-1
473.534	1	0
473.875	1	10
474.215	1	8
474.556	1	-8
474.897	1	14
475.238	1	13
475.578	1	7
475.919	1	11
476.260	1	-2
476.601	1	0
476.942	1	5
477.282	1	-8
477.623	1	9
477.964	1	12
478.305	1	15
478.645	1	3
478.986	1	7
479.327	1	7
479.667	1	14
480.008	1	5
480.349	1	-1
480.690	1	7
481.030	1	-2
481.371	1	3
481.712	1	4
482.053	1	19
482.393	1	3
482.734	1	4
483.075	1	10
483.415	1	10
483.756	1	13
484.097	1	-3
484.437	1	1
484.778	1	11
485.119	1	16
485.459	1	9
485.800	1	10
486.141	1	0
486.481	1	8
486.822	1	12
487.163	1	-3
487.503	1	-7
487.844	1	3
488.185	1	7
488.525	1	-3
488.866	1	12
489.207	1	13
489.547	1	3
489.888	1	9
490.228	1	2
490.569	1	15
490.910	1	4
491.250	1	7
491.591	1	-4
491.932	1	10
492.272	1	15
492.613	1	14
492.953	1	11
493.294	1	13
493.635	1	7
493.975	1	11
494.316	1	15
494.656	1	5
494.997	1	3
495.337	1	21
495.678	1	20
496.019	1	9
496.359	1	5
496.700	1	13
497.040	1	6
497.381	1	-10
497.721	1	15
498.062	1	10
498.403	1	19
498.743	1	15
499.084	1	5
499.424	1	21
499.765	1	4
500.105	1	24
500.446	1	19
500.786	1	22
501.127	1	16
501.467	1	7
501.808	1	2
502.148	1	15
502.489	1	19
502.829	1	18
503.170	1	18
503.510	1	-3
503.851	1	5
504.191	1	21
504.532	1	8
504.872	1	2
505.213	1	13
505.553	1	17
505.894	1	13
506.234	1	27
506.575	1	10
506.915	1	14
507.256	1	7
507.596	1	29
507.936	1	12
508.277	1	11
508.617	1	25
508.958	1	20
509.298	1	30
509.639	1	33
509.979	1	21
510.319	1	17
510.660	1	20
511.000	1	14
511.341	1	7
511.681	1	18
512.022	1	15
512.362	1	14
512.702	1	19
513.043	1	21
513.383	1	7
513.724	1	33
514.064	1	18
514.404	1	14
514.745	1	12
515.085	1	24
515.425	1	15
515.766	1	26
516.106	1	24
516.447	1	30
516.787	1	13
517.127	1	23
517.468	1	18
517.808	1	26
518.148	1	23
518.489	1	18
518.829	1	16
519.169	1	32
519.510	1	18
519.850	1	23
520.190	1	25
520.531	1	26
520.871	1	16
521.211	1	26
521.552	1	27
521.892	1	17
522.232	1	16
522.573	1	27
522.913	1	32
523.253	1	25
523.593	1	11
523.934	1	33
524.274	1	21
524.614	1	25
524.955	1	24
525.295	1	15
525.635	1	40
525.975	1	13
526.316	1	21
526.656	1	39
526.996	1	35
527.337	1	28
527.677	1	49
528.017	1	14
528.357	1	28
528.698	1	11
529.038	1	20
529.378	1	32
529.718	1	31
530.058	1	30
530.399	1	28
530.739	1	21
531.079	1	34
531.419	1	30
531.760	1	33
532.100	1	35
532.440	1	18
532.780	1	23
533.120	1	14
533.461	1	34
533.801	1	25
534.141	1	37
534.481	1	26
534.821	1	28
535.162	1	24
535.502	1	27
535.842	1	25
536.182	1	24
536.522	1	36
536.862	1	27
537.203	1	26
537.543	1	21
537.883	1	24
538.223	1	23
538.563	1	30
538.903	1	28
539.243	1	25
539.584	1	19
539.924	1	34
540.264	1	22
540.604	1	23
540.944	1	19
541.284	1	31
541.624	1	19
541.964	1	21
542.305	1	10
542.645	1	17
542.985	1	10
543.325	1	23
543.665	1	34
544.005	1	21
544.345	1	16
544.685	1	32
545.025	1	22
545.365	1	32
545.705	1	25
546.045	1	27
546.386	1	20
546.726	1	19
547.066	1	18
547.406	1	25
547.746	1	27
548.086	1	24
548.426	1	15
548.766	1	24
549.106	1	25
549.446	1	22
549.786	1	24
550.126	1	23
550.466	1	17
550.806	1	35
551.146	1	16
551.486	1	28
551.826	1	36
552.166	1	19
552.506	1	3
552.846	1	17
553.186	1	16
553.526	1	13
553.866	1	25
554.206	1	22
554.546	1	13
554.886	1	19
555.226	1	12
555.566	1	19
555.906	1	18
556.246	1	27
556.586	1	29
556.926	1	25
557.266	1	21
557.606	1	13
557.946	1	26
558.286	1	25
558.626	1	17
558.966	1	21
559.306	1	16
559.646	1	17
559.986	1	15
560.325	1	8
560.665	1	20
561.005	1	19
561.345	1	9
561.685	1	3
562.025	1	12
562.365	1	13
562.705	1	16
563.045	1	20
563.385	1	14
563.725	1	19
564.064	1	22
564.404	1	13
564.744	1	14
565.084	1	13
565.424	1	13
565.764	1	29
566.104	1	11
566.444	1	23
566.783	1	16
567.123	1	31
567.463	1	14
567.803	1	11
568.143	1	8
568.483	1	7
568.823	1	15
569.162	1	24
569.502	1	13
569.842	1	8
570.182	1	11
570.522	1	18
570.862	1	25
571.201	1	13
571.541	1	7
571.881	1	12
572.221	1	11
572.561	1	4
572.900	1	22
573.240	1	7
573.580	1	16
573.920	1	5
574.260	1	7
574.599	1	0
574.939	1	12
575.279	1	21
575.619	1	9
575.959	1	5
576.298	1	2
576.638	1	13
576.978	1	17
577.318	1	14
577.657	1	10
577.997	1	10
578.337	1	7
578.677	1	14
579.016	1	21
579.356	1	4
579.696	1	14
580.036	1	13
580.375	1	12
580.715	1	18
581.055	1	10
581.394	1	5
581.734	1	20
582.074	1	7
582.414	1	19
582.753	1	14
583.093	1	2
583.433	1	-6
583.772	1	12
584.112	1	13
584.452	1	8
584.791	1	16
585.131	1	-1
585.471	1	19
585.811	1	7
586.150	1	8
586.490	1	7
586.830	1	5
587.169	1	9
587.509	1	5
587.849	1	8
588.188	1	0
588.528	1	14
588.867	1	6
589.207	1	-1
589.547	1	4
589.886	1	-5
590.226	1	11
590.566	1	14
590.905	1	7
591.245	1	2
591.585	1	5
591.924	1	7
592.264	1	6
592.603	1	14
592.943	1	7
593.283	1	18
593.622	1	2
593.962	1	8
594.301	1	17
594.641	1	-3
594.981	1	3
595.320	1	22
595.660	1	6
595.999	1	12
596.339	1	7
596.678	1	3
597.018	1	7
597.358	1	25
597.697	1	-3
598.037	1	11
598.376	1	4
598.716	1	-2
599.055	1	18
599.395	1	13
599.734	1	5
600.074	1	-3
600.413	1	-3
600.753	1	6
601.092	1	-1
601.432	1	6
601.771	1	18
602.111	1	-5
602.451	1	17
602.790	1	-1
603.130	1	15
603.469	1	4
603.809	1	10
604.148	1	11
604.487	1	8
604.827	1	-3
605.166	1	-1
605.506	1	19
605.845	1	7
606.185	1	1
606.524	1	-2
606.864	1	3
607.203	1	16
607.543	1	1
607.882	1	7
608.222	1	12
608.561	1	13
608.901	1	9
609.240	1	3
609.579	1	4
609.919	1	-5
610.258	1	14
610.598	1	7
610.937	1	8
611.277	1	17
611.616	1	0
611.955	1	13
612.295	1	8
612.634	1	9
612.974	1	3
613.313	1	10
613.652	1	-6
613.992	1	14
614.331	1	9
614.671	1	11
615.010	1	6
615.349	1	11
615.689	1	3
616.028	1	1
616.368	1	-2
616.707	1	-6
617.046	1	6
617.386	1	10
617.725	1	9
618.064	1	9
618.404	1	8
618.743	1	6
619.082	1	7
619.422	1	2
619.761	1	3
620.100	1	2
620.440	1	9
620.779	1	-2
621.118	1	4
621.458	1	9
621.797	1	4
622.136	1	12
622.476	1	10
622.815	1	5
623.154	1	11
623.494	1	15
623.833	1	5
624.172	1	19
624.511	1	12
624.851	1	0
625.190	1	12
625.529	1	7
625.869	1	15
626.208	1	-5
626.547	1	17
626.886	1	-3
627.226	1	1
627.565	1	2
627.904	1	8
628.243	1	-4
628.583	1	-1
628.922	1	-3
629.261	1	18
629.600	1	11
629.940	1	9
630.279	1	0
630.618	1	4
630.957	1	2
631.297	1	8
631.636	1	5
631.975	1	3
632.314	1	9
632.653	1	-6
632.993	1	13
633.332	1	9
633.671	1	4
634.010	1	3
634.349	1	7
634.689	1	3
635.028	1	9
635.367	1	0
635.706	1	-2
636.045	1	1
636.384	1	19
636.724	1	7
637.063	1	11
637.402	1	7
637.741	1	7
638.080	1	16
638.419	1	2
638.759	1	7
639.098	1	8
639.437	1	1
639.776	1	-1
640.115	1	-2
640.454	1	12
640.793	1	12
641.132	1	5
641.472	1	4
641.811	1	12
642.150	1	13
642.489	1	5
642.828	1	8
643.167	1	17
643.506	1	7
643.845	1	8
644.184	1	15
644.524	1	-7
644.863	1	0
645.202	1	6
645.541	1	7
645.880	1	4
646.219	1	1
646.558	1	8
646.897	1	5
647.236	1	15
647.575	1	7
647.914	1	1
648.253	1	4
648.592	1	6
648.931	1	16
649.270	1	14
649.610	1	18
649.949	1	6
650.288	1	9
650.627	1	11
650.966	1	6
651.305	1	-2
651.644	1	4
651.983	1	10
652.322	1	12
652.661	1	9
653.000	1	1
653.339	1	16
653.678	1	4
654.017	1	4
654.356	1	10
654.695	1	8
655.034	1	0
655.373	1	1
655.712	1	0
656.051	1	11
656.390	1	1
656.729	1	8
657.068	1	6
657.406	1	6
657.745	1	7
658.084	1	11
658.423	1	-3
658.762	1	-2
659.101	1	-10
659.440	1	13
659.779	1	5
660.118	1	21
660.457	1	10
660.796	1	-5
661.135	1	4
661.474	1	4
661.813	1	2
662.152	1	6
662.491	1	3
662.829	1	-3
663.168	1	1
663.507	1	4
663.846	1	17
664.185	1	-2
664.524	1	-1
664.863	1	2
665.202	1	-5
665.541	1	4
665.879	1	7
666.218	1	4
666.557	1	2
666.896	1	3
667.235	1	-4
667.574	1	11
667.913	1	5
668.251	1	6
668.590	1	3
668.929	1	3
669.268	1	6
669.607	1	-10
669.946	1	2
670.285	1	9
670.623	1	10
670.962	1	1
671.301	1	0
671.640	1	-11
671.979	1	8
672.317	1	3
672.656	1	8
672.995	1	0
673.334	1	10
673.673	1	18
674.011	1	10
674.350	1	-1
674.689	1	2
675.028	1	10
675.367	1	2
675.705	1	-2
676.044	1	4
676.383	1	-6
676.722	1	3
677.060	1	5
677.399	1	10
677.738	1	2
678.077	1	7
678.416	1	10
678.754	1	3
679.093	1	7
679.432	1	-3
679.771	1	1
680.109	1	7
680.448	1	5
680.787	1	-1
681.125	1	10
681.464	1	10
681.803	1	-6
682.142	1	21
682.480	1	5
682.819	1	5
683.158	1	3
683.496	1	-5
683.835	1	8
684.174	1	14
684.512	1	-5
684.851	1	-3
685.190	1	11
685.529	1	10
685.867	1	3
686.206	1	15
686.545	1	9
686.883	1	-4
687.222	1	0
687.561	1	10
687.899	1	1
688.238	1	5
688.577	1	2
688.746	1	11