File: Analysis/GaN_68K_200ms/GaN_sample E_spot4_UVVIS_68 K_200um_200 ms 2x2mm1_140.txt
340.368	1	7
340.710	1	-7
341.052	1	5
341.394	1	-7
341.737	1	6
342.079	1	7
342.421	1	-3
342.763	1	5
343.105	1	8
343.447	1	-1
343.789	1	1
344.131	1	1
344.473	1	11
344.815	1	2
345.157	1	2
345.499	1	7
345.841	1	2
346.183	1	8
346.526	1	8
346.868	1	2
347.210	1	-2
347.552	1	6
347.894	1	1
348.236	1	11
348.578	1	4
348.920	1	17
349.262	1	-2
349.604	1	16
349.946	1	7
350.288	1	0
350.630	1	5
350.972	1	1
351.314	1	4
351.656	1	3
351.998	1	2
352.340	1	10
352.682	1	8
353.024	1	5
353.366	1	8
353.708	1	11
354.050	1	7
354.392	1	14
354.734	1	6
355.076	1	9
355.418	1	-1
355.760	1	14
356.102	1	7
356.444	1	10
356.785	1	23
357.127	1	12
357.469	1	13
357.811	1	24
358.153	1	20
358.495	1	20
358.837	1	13
359.179	1	14
359.521	1	22
359.863	1	5
360.205	1	20
360.547	1	31
360.889	1	23
361.231	1	19
361.572	1	25
361.914	1	38
362.256	1	34
362.598	1	37
362.940	1	43
363.282	1	52
363.624	1	65
363.966	1	60
364.308	1	62
364.649	1	55
364.991	1	84
365.333	1	90
365.675	1	83
366.017	1	79
366.359	1	99
366.701	1	82
367.042	1	104
367.384	1	101
367.726	1	102
368.068	1	97
368.410	1	89
368.752	1	72
369.093	1	84
369.435	1	71
369.777	1	79
370.119	1	67
370.461	1	66
370.803	1	60
371.144	1	67
371.486	1	70
371.828	1	57
372.170	1	59
372.512	1	56
372.853	1	54
373.195	1	44
373.537	1	49
373.879	1	46
374.220	1	52
374.562	1	48
374.904	1	48
375.246	1	40
375.588	1	42
375.929	1	38
376.271	1	29
376.613	1	40
376.955	1	31
377.296	1	36
377.638	1	26
377.980	1	31
378.321	1	28
378.663	1	20
379.005	1	35
379.347	1	38
379.688	1	23
380.030	1	17
380.372	1	37
380.714	1	39
381.055	1	34
381.397	1	17
381.739	1	47
382.080	1	41
382.422	1	65
382.764	1	44
383.105	1	56
383.447	1	64
383.789	1	66
384.130	1	68
384.472	1	62
384.814	1	89
385.156	1	91
385.497	1	95
385.839	1	96
386.180	1	101
386.522	1	99
386.864	1	102
387.205	1	99
387.547	1	92
387.889	1	114
388.230	1	90
388.572	1	104
388.914	1	102
389.255	1	107
389.597	1	95
389.939	1	98
390.280	1	104
390.622	1	87
390.963	1	100
391.305	1	95
391.647	1	88
391.988	1	89
392.330	1	93
392.671	1	99
393.013	1	82
393.355	1	87
393.696	1	68
394.038	1	64
394.379	1	66
394.721	1	88
395.062	1	77
395.404	1	95
395.746	1	83
396.087	1	81
396.429	1	99
396.770	1	100
397.112	1	88
397.453	1	95
397.795	1	100
398.136	1	99
398.478	1	84
398.819	1	96
399.161	1	95
399.503	1	98
399.844	1	83
400.186	1	81
400.527	1	82
400.869	1	85
401.210	1	77
401.552	1	82
401.893	1	80
402.235	1	81
402.576	1	66
402.918	1	61
403.259	1	63
403.601	1	62
403.942	1	73
404.284	1	59
404.625	1	67
404.967	1	69
405.308	1	74
405.649	1	57
405.991	1	68
406.332	1	51
406.674	1	71
407.015	1	47
407.357	1	60
407.698	1	48
408.040	1	47
408.381	1	60
408.722	1	49
409.064	1	53
409.405	1	58
409.747	1	51
410.088	1	58
410.430	1	64
410.771	1	56
411.112	1	55
411.454	1	69
411.795	1	59
412.137	1	54
412.478	1	52
412.819	1	44
413.161	1	40
413.502	1	38
413.844	1	36
414.185	1	56
414.526	1	47
414.868	1	47
415.209	1	45
415.550	1	29
415.892	1	47
416.233	1	50
416.575	1	48
416.916	1	28
417.257	1	39
417.599	1	47
417.940	1	30
418.281	1	38
418.623	1	38
418.964	1	38
419.305	1	39
419.647	1	32
419.988	1	35
420.329	1	40
420.671	1	26
421.012	1	40
421.353	1	46
421.695	1	24
422.036	1	38
422.377	1	35
422.718	1	26
423.060	1	27
423.401	1	33
423.742	1	40
424.084	1	28
424.425	1	23
424.766	1	40
425.107	1	25
425.449	1	34
425.790	1	23
426.131	1	19
426.472	1	21
426.814	1	27
427.155	1	18
427.496	1	31
427.837	1	17
428.179	1	7
428.520	1	21
428.861	1	23
429.202	1	25
429.544	1	32
429.885	1	23
430.226	1	24
430.567	1	24
430.909	1	16
431.250	1	17
431.591	1	19
431.932	1	28
432.273	1	17
432.615	1	15
432.956	1	19
433.297	1	24
433.638	1	20
433.979	1	25
434.320	1	13
434.662	1	12
435.003	1	21
435.344	1	24
435.685	1	26
436.026	1	13
436.368	1	13
436.709	1	13
437.050	1	19
437.391	1	20
437.732	1	18
438.073	1	19
438.414	1	21
438.756	1	24
439.097	1	16
439.438	1	24
439.779	1	9
440.120	1	12
440.461	1	7
440.802	1	24
441.143	1	16
441.485	1	7
441.826	1	2
442.167	1	21
442.508	1	9
442.849	1	25
443.190	1	3
443.531	1	14
443.872	1	11
444.213	1	14
444.554	1	11
444.895	1	11
445.237	1	11
445.578	1	21
445.919	1	14
446.260	1	19
446.601	1	5
446.942	1	16
447.283	1	16
447.624	1	16
447.965	1	7
448.306	1	23
448.647	1	21
448.988	1	2
449.329	1	9
449.670	1	26
450.011	1	19
450.352	1	19
450.693	1	15
451.034	1	14
451.375	1	18
451.716	1	21
452.057	1	17
452.398	1	11
452.739	1	20
453.080	1	22
453.421	1	8
453.762	1	13
454.103	1	15
454.444	1	27
454.785	1	10
455.126	1	23
455.467	1	6
455.808	1	8
456.149	1	9
456.490	1	18
456.831	1	26
457.172	1	13
457.513	1	19
457.854	1	6
458.195	1	9
458.536	1	8
458.877	1	7
459.218	1	15
459.559	1	15
459.899	1	14
460.240	1	15
460.581	1	14
460.922	1	9
461.263	1	25
461.604	1	13
461.945	1	20
462.286	1	19
462.627	1	8
462.968	1	7
463.309	1	13
463.649	1	19
463.990	1	12
464.331	1	5
464.672	1	7
465.013	1	-4
465.354	1	14
465.695	1	15
466.036	1	11
466.376	1	10
466.717	1	2
467.058	1	17
467.399	1	7
467.740	1	11
468.081	1	18
468.422	1	8
468.762	1	7
469.103	1	10
469.444	1	7
469.785	1	11
470.126	1	15
470.467	1	11
470.807	1	10
471.148	1	11
471.489	1	12
471.830	1	15
472.171	1	12
472.511	1	20
472.852	1	7
473.193	1	2
473.534	1	12
473.875	1	15
474.215	1	8
474.556	1	6
474.897	1	4
475.238	1	8
475.578	1	15
475.919	1	15
476.260	1	9
476.601	1	6
476.942	1	13
477.282	1	-2
477.623	1	14
477.964	1	14
478.305	1	11
478.645	1	9
478.986	1	21
479.327	1	14
479.667	1	13
480.008	1	15
480.349	1	18
480.690	1	13
481.030	1	4
481.371	1	10
481.712	1	21
482.053	1	17
482.393	1	-3
482.734	1	17
483.075	1	20
483.415	1	14
483.756	1	24
484.097	1	0
484.437	1	10
484.778	1	12
485.119	1	20
485.459	1	10
485.800	1	2
486.141	1	5
486.481	1	8
486.822	1	22
487.163	1	11
487.503	1	1
487.844	1	10
488.185	1	7
488.525	1	11
488.866	1	26
489.207	1	31
489.547	1	4
489.888	1	20
490.228	1	11
490.569	1	22
490.910	1	12
491.250	1	13
491.591	1	9
491.932	1	12
492.272	1	23
492.613	1	22
492.953	1	18
493.294	1	21
493.635	1	21
493.975	1	22
494.316	1	17
494.656	1	21
494.997	1	14
495.337	1	37
495.678	1	32
496.019	1	12
496.359	1	21
496.700	1	24
497.040	1	25
497.381	1	10
497.721	1	18
498.062	1	24
498.403	1	32
498.743	1	24
499.084	1	13
499.424	1	32
499.765	1	31
500.105	1	35
500.446	1	28
500.786	1	34
501.127	1	30
501.467	1	26
501.808	1	17
502.148	1	33
502.489	1	43
502.829	1	36
503.170	1	31
503.510	1	33
503.851	1	31
504.191	1	36
504.532	1	28
504.872	1	28
505.213	1	35
505.553	1	38
505.894	1	53
506.234	1	52
506.575	1	41
506.915	1	41
507.256	1	37
507.596	1	42
507.936	1	47
508.277	1	41
508.617	1	56
508.958	1	51
509.298	1	65
509.639	1	48
509.979	1	52
510.319	1	44
510.660	1	50
511.000	1	45
511.341	1	39
511.681	1	50
512.022	1	54
512.362	1	45
512.702	1	30
513.043	1	55
513.383	1	49
513.724	1	61
514.064	1	56
514.404	1	52
514.745	1	53
515.085	1	55
515.425	1	51
515.766	1	58
516.106	1	50
516.447	1	57
516.787	1	54
517.127	1	55
517.468	1	59
517.808	1	58
518.148	1	58
518.489	1	67
518.829	1	57
519.169	1	78
519.510	1	61
519.850	1	65
520.190	1	67
520.531	1	62
520.871	1	62
521.211	1	59
521.552	1	69
521.892	1	51
522.232	1	48
522.573	1	66
522.913	1	75
523.253	1	64
523.593	1	50
523.934	1	70
524.274	1	66
524.614	1	79
524.955	1	61
525.295	1	55
525.635	1	69
525.975	1	62
526.316	1	62
526.656	1	71
526.996	1	75
527.337	1	73
527.677	1	76
528.017	1	58
528.357	1	67
528.698	1	66
529.038	1	77
529.378	1	68
529.718	1	62
530.058	1	76
530.399	1	79
530.739	1	61
531.079	1	83
531.419	1	67
531.760	1	79
532.100	1	75
532.440	1	73
532.780	1	62
533.120	1	77
533.461	1	83
533.801	1	66
534.141	1	78
534.481	1	79
534.821	1	72
535.162	1	67
535.502	1	67
535.842	1	78
536.182	1	69
536.522	1	73
536.862	1	72
537.203	1	76
537.543	1	67
537.883	1	72
538.223	1	66
538.563	1	65
538.903	1	65
539.243	1	65
539.584	1	61
539.924	1	72
540.264	1	58
540.604	1	65
540.944	1	57
541.284	1	79
541.624	1	59
541.964	1	68
542.305	1	56
542.645	1	70
542.985	1	61
543.325	1	51
543.665	1	70
544.005	1	57
544.345	1	52
544.685	1	62
545.025	1	57
545.365	1	51
545.705	1	67
546.045	1	63
546.386	1	51
546.726	1	67
547.066	1	38
547.406	1	66
547.746	1	59
548.086	1	66
548.426	1	50
548.766	1	60
549.106	1	66
549.446	1	54
549.786	1	58
550.126	1	53
550.466	1	51
550.806	1	59
551.146	1	55
551.486	1	64
551.826	1	56
552.166	1	54
552.506	1	49
552.846	1	62
553.186	1	65
553.526	1	60
553.866	1	67
554.206	1	53
554.546	1	47
554.886	1	56
555.226	1	45
555.566	1	59
555.906	1	48
556.246	1	40
556.586	1	52
556.926	1	50
557.266	1	51
557.606	1	40
557.946	1	59
558.286	1	50
558.626	1	51
558.966	1	39
559.306	1	51
559.646	1	38
559.986	1	40
560.325	1	40
560.665	1	46
561.005	1	49
561.345	1	37
561.685	1	32
562.025	1	31
562.365	1	46
562.705	1	45
563.045	1	44
563.385	1	36
563.725	1	35
564.064	1	48
564.404	1	40
564.744	1	35
565.084	1	41
565.424	1	37
565.764	1	58
566.104	1	38
566.444	1	47
566.783	1	38
567.123	1	51
567.463	1	46
567.803	1	29
568.143	1	30
568.483	1	22
568.823	1	51
569.162	1	44
569.502	1	39
569.842	1	35
570.182	1	24
570.522	1	44
570.862	1	47
571.201	1	31
571.541	1	25
571.881	1	39
572.221	1	38
572.561	1	23
572.900	1	50
573.240	1	26
573.580	1	27
573.920	1	32
574.260	1	27
574.599	1	15
574.939	1	25
575.279	1	32
575.619	1	25
575.959	1	21
576.298	1	29
576.638	1	24
576.978	1	24
577.318	1	31
577.657	1	12
577.997	1	22
578.337	1	18
578.677	1	25
579.016	1	35
579.356	1	16
579.696	1	30
580.036	1	23
580.375	1	26
580.715	1	26
581.055	1	34
581.394	1	23
581.734	1	27
582.074	1	15
582.414	1	23
582.753	1	31
583.093	1	23
583.433	1	12
583.772	1	19
584.112	1	16
584.452	1	19
584.791	1	16
585.131	1	18
585.471	1	19
585.811	1	12
586.150	1	21
586.490	1	14
586.830	1	13
587.169	1	23
587.509	1	19
587.849	1	24
588.188	1	24
588.528	1	15
588.867	1	18
589.207	1	10
589.547	1	18
589.886	1	18
590.226	1	10
590.566	1	18
590.905	1	23
591.245	1	17
591.585	1	16
591.924	1	5
592.264	1	11
592.603	1	13
592.943	1	14
593.283	1	13
593.622	1	19
593.962	1	17
594.301	1	23
594.641	1	16
594.981	1	18
595.320	1	21
595.660	1	11
595.999	1	12
596.339	1	19
596.678	1	7
597.018	1	13
597.358	1	23
597.697	1	-5
598.037	1	21
598.376	1	29
598.716	1	8
599.055	1	20
599.395	1	24
599.734	1	18
600.074	1	7
600.413	1	12
600.753	1	22
601.092	1	3
601.432	1	14
601.771	1	14
602.111	1	2
602.451	1	8
602.790	1	11
603.130	1	21
603.469	1	5
603.809	1	19
604.148	1	11
604.487	1	5
604.827	1	1
605.166	1	-8
605.506	1	25
605.845	1	3
606.185	1	8
606.524	1	11
606.864	1	12
607.203	1	29
607.543	1	4
607.882	1	7
608.222	1	17
608.561	1	9
608.901	1	12
609.240	1	12
609.579	1	32
609.919	1	7
610.258	1	18
610.598	1	12
610.937	1	7
611.277	1	22
611.616	1	-2
611.955	1	10
612.295	1	15
612.634	1	9
612.974	1	18
613.313	1	8
613.652	1	-4
613.992	1	15
614.331	1	9
614.671	1	9
615.010	1	15
615.349	1	10
615.689	1	9
616.028	1	11
616.368	1	7
616.707	1	6
617.046	1	5
617.386	1	7
617.725	1	19
618.064	1	10
618.404	1	19
618.743	1	12
619.082	1	10
619.422	1	3
619.761	1	8
620.100	1	20
620.440	1	5
620.779	1	11
621.118	1	10
621.458	1	11
621.797	1	12
622.136	1	16
622.476	1	15
622.815	1	9
623.154	1	18
623.494	1	11
623.833	1	3
624.172	1	22
624.511	1	16
624.851	1	-6
625.190	1	11
625.529	1	9
625.869	1	23
626.208	1	10
626.547	1	17
626.886	1	3
627.226	1	12
627.565	1	27
627.904	1	11
628.243	1	7
628.583	1	8
628.922	1	3
629.261	1	19
629.600	1	19
629.940	1	10
630.279	1	0
630.618	1	2
630.957	1	-1
631.297	1	8
631.636	1	4
631.975	1	15
632.314	1	20
632.653	1	5
632.993	1	6
633.332	1	18
633.671	1	10
634.010	1	11
634.349	1	15
634.689	1	20
635.028	1	15
635.367	1	-2
635.706	1	-2
636.045	1	-3
636.384	1	15
636.724	1	3
637.063	1	8
637.402	1	13
637.741	1	19
638.080	1	6
638.419	1	12
638.759	1	4
639.098	1	7
639.437	1	10
639.776	1	18
640.115	1	7
640.454	1	16
640.793	1	13
641.132	1	11
641.472	1	6
641.811	1	11
642.150	1	8
642.489	1	7
642.828	1	3
643.167	1	17
643.506	1	-3
643.845	1	7
644.184	1	7
644.524	1	4
644.863	1	8
645.202	1	10
645.541	1	-2
645.880	1	10
646.219	1	11
646.558	1	8
646.897	1	0
647.236	1	8
647.575	1	10
647.914	1	0
648.253	1	11
648.592	1	-2
648.931	1	16
649.270	1	20
649.610	1	20
649.949	1	6
650.288	1	-6
650.627	1	7
650.966	1	0
651.305	1	7
651.644	1	3
651.983	1	6
652.322	1	10
652.661	1	11
653.000	1	13
653.339	1	15
653.678	1	0
654.017	1	5
654.356	1	9
654.695	1	5
655.034	1	10
655.373	1	0
655.712	1	4
656.051	1	17
656.390	1	14
656.729	1	10
657.068	1	4
657.406	1	7
657.745	1	2
658.084	1	15
658.423	1	-4
658.762	1	-4
659.101	1	5
659.440	1	14
659.779	1	-4
660.118	1	14
660.457	1	7
660.796	1	7
661.135	1	8
661.474	1	4
661.813	1	-2
662.152	1	-1
662.491	1	8
662.829	1	5
663.168	1	2
663.507	1	7
663.846	1	-2
664.185	1	5
664.524	1	-4
664.863	1	9
665.202	1	2
665.541	1	7
665.879	1	9
666.218	1	3
666.557	1	8
666.896	1	3
667.235	1	3
667.574	1	11
667.913	1	11
668.251	1	1
668.590	1	-3
668.929	1	12
669.268	1	3
669.607	1	0
669.946	1	17
670.285	1	1
670.623	1	-1
670.962	1	10
671.301	1	4
671.640	1	-3
671.979	1	20
672.317	1	4
672.656	1	2
672.995	1	1
673.334	1	16
673.673	1	13
674.011	1	10
674.350	1	-1
674.689	1	3
675.028	1	5
675.367	1	19
675.705	1	-4
676.044	1	2
676.383	1	7
676.722	1	12
677.060	1	3
677.399	1	1
677.738	1	-3
678.077	1	11
678.416	1	-2
678.754	1	-2
679.093	1	7
679.432	1	5
679.771	1	4
680.109	1	22
680.448	1	8
680.787	1	6
681.125	1	15
681.464	1	-7
681.803	1	-4
682.142	1	18
682.480	1	5
682.819	1	13
683.158	1	14
683.496	1	2
683.835	1	4
684.174	1	4
684.512	1	7
684.851	1	5
685.190	1	4
685.529	1	3
685.867	1	-1
686.206	1	14
686.545	1	13
686.883	1	0
687.222	1	0
687.561	1	4
687.899	1	11
688.238	1	10
688.577	1	3
688.746	1	3