File: Analysis/GaN_68K_200ms/GaN_sample E_spot4_UVVIS_68 K_200um_200 ms 2x2mm1_576.txt
340.368	1	-3
340.710	1	-7
341.052	1	-2
341.394	1	2
341.737	1	10
342.079	1	-3
342.421	1	-10
342.763	1	-3
343.105	1	11
343.447	1	2
343.789	1	-5
344.131	1	2
344.473	1	5
344.815	1	1
345.157	1	6
345.499	1	-1
345.841	1	7
346.183	1	10
346.526	1	4
346.868	1	-2
347.210	1	-6
347.552	1	11
347.894	1	2
348.236	1	4
348.578	1	5
348.920	1	19
349.262	1	-3
349.604	1	9
349.946	1	6
350.288	1	4
350.630	1	-6
350.972	1	4
351.314	1	0
351.656	1	5
351.998	1	0
352.340	1	0
352.682	1	-3
353.024	1	-1
353.366	1	8
353.708	1	1
354.050	1	7
354.392	1	7
354.734	1	-5
355.076	1	12
355.418	1	-1
355.760	1	3
356.102	1	-6
356.444	1	8
356.785	1	13
357.127	1	1
357.469	1	-4
357.811	1	13
358.153	1	1
358.495	1	6
358.837	1	-3
359.179	1	1
359.521	1	2
359.863	1	-18
360.205	1	-1
360.547	1	0
360.889	1	7
361.231	1	-1
361.572	1	-3
361.914	1	1
362.256	1	4
362.598	1	3
362.940	1	1
363.282	1	8
363.624	1	-4
363.966	1	3
364.308	1	3
364.649	1	-4
364.991	1	14
365.333	1	5
365.675	1	-4
366.017	1	-1
366.359	1	-5
366.701	1	-5
367.042	1	8
367.384	1	13
367.726	1	3
368.068	1	-4
368.410	1	-4
368.752	1	-6
369.093	1	2
369.435	1	-3
369.777	1	4
370.119	1	7
370.461	1	6
370.803	1	-1
371.144	1	-1
371.486	1	10
371.828	1	5
372.170	1	5
372.512	1	-5
372.853	1	3
373.195	1	2
373.537	1	-6
373.879	1	2
374.220	1	8
374.562	1	4
374.904	1	-1
375.246	1	1
375.588	1	-1
375.929	1	5
376.271	1	2
376.613	1	4
376.955	1	0
377.296	1	2
377.638	1	9
377.980	1	7
378.321	1	1
378.663	1	1
379.005	1	5
379.347	1	7
379.688	1	-1
380.030	1	-4
380.372	1	5
380.714	1	-2
381.055	1	10
381.397	1	0
381.739	1	4
382.080	1	-7
382.422	1	8
382.764	1	2
383.105	1	-4
383.447	1	8
383.789	1	1
384.130	1	-3
384.472	1	0
384.814	1	14
385.156	1	14
385.497	1	10
385.839	1	2
386.180	1	-1
386.522	1	7
386.864	1	3
387.205	1	-10
387.547	1	0
387.889	1	13
388.230	1	3
388.572	1	9
388.914	1	18
389.255	1	-2
389.597	1	-13
389.939	1	10
390.280	1	6
390.622	1	11
390.963	1	9
391.305	1	8
391.647	1	-2
391.988	1	-4
392.330	1	5
392.671	1	8
393.013	1	16
393.355	1	7
393.696	1	3
394.038	1	-1
394.379	1	-2
394.721	1	5
395.062	1	-3
395.404	1	11
395.746	1	3
396.087	1	-3
396.429	1	1
396.770	1	5
397.112	1	3
397.453	1	-3
397.795	1	6
398.136	1	-1
398.478	1	6
398.819	1	5
399.161	1	10
399.503	1	-1
399.844	1	-11
400.186	1	12
400.527	1	2
400.869	1	9
401.210	1	-14
401.552	1	14
401.893	1	5
402.235	1	17
402.576	1	22
402.918	1	-8
403.259	1	-8
403.601	1	-5
403.942	1	18
404.284	1	-1
404.625	1	5
404.967	1	9
405.308	1	6
405.649	1	0
405.991	1	4
406.332	1	-1
406.674	1	2
407.015	1	3
407.357	1	0
407.698	1	-7
408.040	1	-6
408.381	1	9
408.722	1	-3
409.064	1	-8
409.405	1	8
409.747	1	-2
410.088	1	7
410.430	1	7
410.771	1	-3
411.112	1	2
411.454	1	12
411.795	1	8
412.137	1	1
412.478	1	-4
412.819	1	-2
413.161	1	-5
413.502	1	9
413.844	1	4
414.185	1	6
414.526	1	3
414.868	1	12
415.209	1	-2
415.550	1	1
415.892	1	-7
416.233	1	6
416.575	1	-2
416.916	1	4
417.257	1	6
417.599	1	2
417.940	1	-3
418.281	1	-5
418.623	1	-12
418.964	1	0
419.305	1	3
419.647	1	7
419.988	1	0
420.329	1	-1
420.671	1	13
421.012	1	9
421.353	1	1
421.695	1	-2
422.036	1	-3
422.377	1	4
422.718	1	1
423.060	1	-4
423.401	1	-2
423.742	1	-2
424.084	1	1
424.425	1	1
424.766	1	8
425.107	1	-2
425.449	1	8
425.790	1	-3
426.131	1	7
426.472	1	-9
426.814	1	3
427.155	1	4
427.496	1	11
427.837	1	-9
428.179	1	-4
428.520	1	-7
428.861	1	0
429.202	1	-2
429.544	1	3
429.885	1	1
430.226	1	-4
430.567	1	-1
430.909	1	-3
431.250	1	-3
431.591	1	8
431.932	1	8
432.273	1	-8
432.615	1	4
432.956	1	-2
433.297	1	6
433.638	1	1
433.979	1	1
434.320	1	-7
434.662	1	5
435.003	1	9
435.344	1	5
435.685	1	2
436.026	1	1
436.368	1	4
436.709	1	-11
437.050	1	2
437.391	1	3
437.732	1	0
438.073	1	16
438.414	1	3
438.756	1	12
439.097	1	3
439.438	1	10
439.779	1	-9
440.120	1	14
440.461	1	-8
440.802	1	-3
441.143	1	12
441.485	1	-7
441.826	1	-3
442.167	1	-2
442.508	1	4
442.849	1	0
443.190	1	-12
443.531	1	1
443.872	1	6
444.213	1	-7
444.554	1	-3
444.895	1	-7
445.237	1	-4
445.578	1	6
445.919	1	-2
446.260	1	2
446.601	1	-8
446.942	1	2
447.283	1	-1
447.624	1	5
447.965	1	-6
448.306	1	0
448.647	1	11
448.988	1	-7
449.329	1	5
449.670	1	1
450.011	1	-6
450.352	1	9
450.693	1	7
451.034	1	3
451.375	1	13
451.716	1	2
452.057	1	18
452.398	1	6
452.739	1	1
453.080	1	15
453.421	1	0
453.762	1	9
454.103	1	2
454.444	1	7
454.785	1	6
455.126	1	1
455.467	1	2
455.808	1	7
456.149	1	-6
456.490	1	-9
456.831	1	9
457.172	1	-9
457.513	1	14
457.854	1	-4
458.195	1	-1
458.536	1	-1
458.877	1	-5
459.218	1	7
459.559	1	-2
459.899	1	6
460.240	1	0
460.581	1	9
460.922	1	2
461.263	1	8
461.604	1	-5
461.945	1	3
462.286	1	9
462.627	1	-2
462.968	1	0
463.309	1	8
463.649	1	-1
463.990	1	-1
464.331	1	0
464.672	1	0
465.013	1	-9
465.354	1	-1
465.695	1	11
466.036	1	2
466.376	1	-2
466.717	1	-7
467.058	1	13
467.399	1	8
467.740	1	-4
468.081	1	-2
468.422	1	11
468.762	1	-12
469.103	1	-6
469.444	1	-2
469.785	1	8
470.126	1	1
470.467	1	-6
470.807	1	3
471.148	1	-7
471.489	1	8
471.830	1	3
472.171	1	2
472.511	1	9
472.852	1	4
473.193	1	-5
473.534	1	2
473.875	1	0
474.215	1	-11
474.556	1	-6
474.897	1	3
475.238	1	-2
475.578	1	0
475.919	1	9
476.260	1	-9
476.601	1	5
476.942	1	4
477.282	1	-8
477.623	1	3
477.964	1	7
478.305	1	2
478.645	1	0
478.986	1	4
479.327	1	-10
479.667	1	0
480.008	1	5
480.349	1	11
480.690	1	4
481.030	1	-6
481.371	1	4
481.712	1	16
482.053	1	11
482.393	1	-13
482.734	1	15
483.075	1	3
483.415	1	14
483.756	1	9
484.097	1	-10
484.437	1	-8
484.778	1	3
485.119	1	8
485.459	1	6
485.800	1	-2
486.141	1	-3
486.481	1	7
486.822	1	-2
487.163	1	-9
487.503	1	-8
487.844	1	2
488.185	1	-10
488.525	1	-1
488.866	1	9
489.207	1	9
489.547	1	-1
489.888	1	6
490.228	1	-1
490.569	1	11
490.910	1	-4
491.250	1	-9
491.591	1	-12
491.932	1	2
492.272	1	1
492.613	1	-2
492.953	1	-5
493.294	1	3
493.635	1	-2
493.975	1	-8
494.316	1	-1
494.656	1	5
494.997	1	0
495.337	1	6
495.678	1	11
496.019	1	-7
496.359	1	0
496.700	1	-6
497.040	1	-1
497.381	1	-6
497.721	1	-5
498.062	1	-7
498.403	1	0
498.743	1	5
499.084	1	-2
499.424	1	11
499.765	1	5
500.105	1	1
500.446	1	9
500.786	1	3
501.127	1	13
501.467	1	6
501.808	1	-10
502.148	1	0
502.489	1	10
502.829	1	-7
503.170	1	1
503.510	1	1
503.851	1	-14
504.191	1	14
504.532	1	-6
504.872	1	0
505.213	1	1
505.553	1	4
505.894	1	12
506.234	1	4
506.575	1	4
506.915	1	-1
507.256	1	0
507.596	1	2
507.936	1	-3
508.277	1	-7
508.617	1	9
508.958	1	6
509.298	1	18
509.639	1	11
509.979	1	-11
510.319	1	-3
510.660	1	9
511.000	1	11
511.341	1	-1
511.681	1	6
512.022	1	-6
512.362	1	4
512.702	1	-8
513.043	1	2
513.383	1	-7
513.724	1	5
514.064	1	3
514.404	1	-1
514.745	1	-1
515.085	1	6
515.425	1	-9
515.766	1	5
516.106	1	2
516.447	1	3
516.787	1	-10
517.127	1	1
517.468	1	1
517.808	1	-3
518.148	1	0
518.489	1	5
518.829	1	-10
519.169	1	12
519.510	1	0
519.850	1	-14
520.190	1	-2
520.531	1	12
520.871	1	-6
521.211	1	5
521.552	1	0
521.892	1	-12
522.232	1	-3
522.573	1	5
522.913	1	3
523.253	1	0
523.593	1	-14
523.934	1	4
524.274	1	-2
524.614	1	0
524.955	1	9
525.295	1	-5
525.635	1	15
525.975	1	5
526.316	1	4
526.656	1	13
526.996	1	11
527.337	1	-3
527.677	1	5
528.017	1	-1
528.357	1	12
528.698	1	-2
529.038	1	5
529.378	1	0
529.718	1	3
530.058	1	2
530.399	1	4
530.739	1	-8
531.079	1	3
531.419	1	4
531.760	1	13
532.100	1	6
532.440	1	2
532.780	1	0
533.120	1	-4
533.461	1	5
533.801	1	6
534.141	1	10
534.481	1	5
534.821	1	-2
535.162	1	8
535.502	1	6
535.842	1	1
536.182	1	-3
536.522	1	-2
536.862	1	7
537.203	1	2
537.543	1	6
537.883	1	6
538.223	1	9
538.563	1	3
538.903	1	-5
539.243	1	2
539.584	1	7
539.924	1	14
540.264	1	2
540.604	1	9
540.944	1	-5
541.284	1	2
541.624	1	0
541.964	1	-4
542.305	1	8
542.645	1	0
542.985	1	-3
543.325	1	2
543.665	1	8
544.005	1	4
544.345	1	-10
544.685	1	0
545.025	1	-9
545.365	1	2
545.705	1	1
546.045	1	1
546.386	1	3
546.726	1	-7
547.066	1	-5
547.406	1	-4
547.746	1	10
548.086	1	8
548.426	1	-10
548.766	1	2
549.106	1	11
549.446	1	1
549.786	1	1
550.126	1	-3
550.466	1	2
550.806	1	8
551.146	1	-1
551.486	1	-2
551.826	1	3
552.166	1	4
552.506	1	1
552.846	1	9
553.186	1	0
553.526	1	1
553.866	1	3
554.206	1	-1
554.546	1	-9
554.886	1	-1
555.226	1	-1
555.566	1	4
555.906	1	7
556.246	1	4
556.586	1	8
556.926	1	-2
557.266	1	14
557.606	1	-11
557.946	1	4
558.286	1	3
558.626	1	4
558.966	1	0
559.306	1	-7
559.646	1	-2
559.986	1	3
560.325	1	1
560.665	1	0
561.005	1	4
561.345	1	2
561.685	1	-3
562.025	1	3
562.365	1	-4
562.705	1	7
563.045	1	-2
563.385	1	0
563.725	1	-8
564.064	1	18
564.404	1	2
564.744	1	4
565.084	1	-15
565.424	1	-3
565.764	1	9
566.104	1	-9
566.444	1	2
566.783	1	0
567.123	1	20
567.463	1	3
567.803	1	1
568.143	1	-5
568.483	1	-4
568.823	1	7
569.162	1	-3
569.502	1	-3
569.842	1	-8
570.182	1	4
570.522	1	5
570.862	1	2
571.201	1	4
571.541	1	3
571.881	1	8
572.221	1	-4
572.561	1	-2
572.900	1	9
573.240	1	-1
573.580	1	11
573.920	1	2
574.260	1	-2
574.599	1	-7
574.939	1	4
575.279	1	5
575.619	1	8
575.959	1	-6
576.298	1	-5
576.638	1	-1
576.978	1	-7
577.318	1	5
577.657	1	-16
577.997	1	-7
578.337	1	0
578.677	1	-7
579.016	1	6
579.356	1	-3
579.696	1	5
580.036	1	-4
580.375	1	1
580.715	1	1
581.055	1	1
581.394	1	-7
581.734	1	8
582.074	1	-6
582.414	1	4
582.753	1	4
583.093	1	-10
583.433	1	-5
583.772	1	-2
584.112	1	6
584.452	1	4
584.791	1	1
585.131	1	-2
585.471	1	-6
585.811	1	-1
586.150	1	-9
586.490	1	-17
586.830	1	-4
587.169	1	-9
587.509	1	11
587.849	1	8
588.188	1	7
588.528	1	12
588.867	1	8
589.207	1	-9
589.547	1	-10
589.886	1	-4
590.226	1	4
590.566	1	-5
590.905	1	8
591.245	1	-5
591.585	1	-3
591.924	1	-2
592.264	1	-1
592.603	1	-2
592.943	1	1
593.283	1	2
593.622	1	-8
593.962	1	14
594.301	1	7
594.641	1	-6
594.981	1	0
595.320	1	6
595.660	1	-13
595.999	1	5
596.339	1	7
596.678	1	6
597.018	1	12
597.358	1	-5
597.697	1	-2
598.037	1	6
598.376	1	0
598.716	1	-4
599.055	1	3
599.395	1	10
599.734	1	4
600.074	1	-2
600.413	1	3
600.753	1	7
601.092	1	-9
601.432	1	3
601.771	1	9
602.111	1	-7
602.451	1	-3
602.790	1	13
603.130	1	2
603.469	1	1
603.809	1	9
604.148	1	1
604.487	1	2
604.827	1	-9
605.166	1	-7
605.506	1	0
605.845	1	2
606.185	1	5
606.524	1	3
606.864	1	3
607.203	1	14
607.543	1	-5
607.882	1	-2
608.222	1	0
608.561	1	1
608.901	1	7
609.240	1	-4
609.579	1	6
609.919	1	-8
610.258	1	4
610.598	1	2
610.937	1	5
611.277	1	9
611.616	1	-9
611.955	1	4
612.295	1	3
612.634	1	-6
612.974	1	7
613.313	1	-2
613.652	1	-2
613.992	1	6
614.331	1	4
614.671	1	6
615.010	1	-2
615.349	1	-2
615.689	1	-4
616.028	1	-6
616.368	1	3
616.707	1	0
617.046	1	1
617.386	1	-1
617.725	1	11
618.064	1	9
618.404	1	13
618.743	1	-4
619.082	1	1
619.422	1	-4
619.761	1	5
620.100	1	6
620.440	1	0
620.779	1	-3
621.118	1	-8
621.458	1	-8
621.797	1	4
622.136	1	10
622.476	1	5
622.815	1	0
623.154	1	-9
623.494	1	9
623.833	1	-5
624.172	1	14
624.511	1	-1
624.851	1	-11
625.190	1	-2
625.529	1	4
625.869	1	6
626.208	1	0
626.547	1	0
626.886	1	-4
627.226	1	-2
627.565	1	2
627.904	1	3
628.243	1	0
628.583	1	4
628.922	1	-7
629.261	1	0
629.600	1	7
629.940	1	8
630.279	1	-5
630.618	1	1
630.957	1	0
631.297	1	-8
631.636	1	0
631.975	1	3
632.314	1	18
632.653	1	-8
632.993	1	6
633.332	1	3
633.671	1	-5
634.010	1	2
634.349	1	1
634.689	1	10
635.028	1	-5
635.367	1	1
635.706	1	-1
636.045	1	-5
636.384	1	3
636.724	1	4
637.063	1	8
637.402	1	7
637.741	1	0
638.080	1	1
638.419	1	9
638.759	1	4
639.098	1	-1
639.437	1	-5
639.776	1	-1
640.115	1	-2
640.454	1	17
640.793	1	3
641.132	1	9
641.472	1	-8
641.811	1	-2
642.150	1	0
642.489	1	-9
642.828	1	-7
643.167	1	8
643.506	1	-4
643.845	1	1
644.184	1	9
644.524	1	-7
644.863	1	-8
645.202	1	6
645.541	1	-4
645.880	1	4
646.219	1	9
646.558	1	-5
646.897	1	-1
647.236	1	3
647.575	1	10
647.914	1	0
648.253	1	3
648.592	1	-1
648.931	1	-2
649.270	1	11
649.610	1	19
649.949	1	-2
650.288	1	-4
650.627	1	-6
650.966	1	-2
651.305	1	1
651.644	1	-13
651.983	1	4
652.322	1	1
652.661	1	-1
653.000	1	-1
653.339	1	5
653.678	1	0
654.017	1	-2
654.356	1	6
654.695	1	3
655.034	1	5
655.373	1	2
655.712	1	1
656.051	1	4
656.390	1	4
656.729	1	7
657.068	1	0
657.406	1	9
657.745	1	-10
658.084	1	12
658.423	1	-7
658.762	1	1
659.101	1	-2
659.440	1	10
659.779	1	-3
660.118	1	6
660.457	1	7
660.796	1	-4
661.135	1	8
661.474	1	2
661.813	1	2
662.152	1	-5
662.491	1	4
662.829	1	-6
663.168	1	-16
663.507	1	4
663.846	1	3
664.185	1	-4
664.524	1	-8
664.863	1	7
665.202	1	-7
665.541	1	-3
665.879	1	-5
666.218	1	-1
666.557	1	8
666.896	1	-11
667.235	1	1
667.574	1	6
667.913	1	1
668.251	1	-4
668.590	1	4
668.929	1	7
669.268	1	-5
669.607	1	-9
669.946	1	12
670.285	1	0
670.623	1	10
670.962	1	-1
671.301	1	-3
671.640	1	-15
671.979	1	10
672.317	1	-4
672.656	1	11
672.995	1	-4
673.334	1	6
673.673	1	21
674.011	1	13
674.350	1	-6
674.689	1	1
675.028	1	4
675.367	1	9
675.705	1	-8
676.044	1	0
676.383	1	-12
676.722	1	0
677.060	1	2
677.399	1	7
677.738	1	-11
678.077	1	7
678.416	1	0
678.754	1	9
679.093	1	-2
679.432	1	-1
679.771	1	0
680.109	1	3
680.448	1	-1
680.787	1	-3
681.125	1	4
681.464	1	1
681.803	1	-11
682.142	1	11
682.480	1	1
682.819	1	3
683.158	1	-3
683.496	1	-6
683.835	1	2
684.174	1	3
684.512	1	0
684.851	1	-6
685.190	1	10
685.529	1	4
685.867	1	0
686.206	1	-1
686.545	1	6
686.883	1	-1
687.222	1	0
687.561	1	5
687.899	1	-3
688.238	1	7
688.577	1	-8
688.746	1	4