File: Analysis/GaN_68K_200ms/GaN_sample E_spot4_UVVIS_68 K_200um_200 ms 2x2mm1_257.txt
340.368	1	4
340.710	1	-6
341.052	1	6
341.394	1	-2
341.737	1	8
342.079	1	2
342.421	1	-2
342.763	1	3
343.105	1	16
343.447	1	4
343.789	1	1
344.131	1	-3
344.473	1	-1
344.815	1	0
345.157	1	14
345.499	1	10
345.841	1	12
346.183	1	-3
346.526	1	2
346.868	1	-3
347.210	1	1
347.552	1	2
347.894	1	10
348.236	1	-2
348.578	1	4
348.920	1	12
349.262	1	4
349.604	1	9
349.946	1	10
350.288	1	9
350.630	1	0
350.972	1	7
351.314	1	2
351.656	1	5
351.998	1	1
352.340	1	5
352.682	1	-3
353.024	1	0
353.366	1	11
353.708	1	10
354.050	1	5
354.392	1	8
354.734	1	2
355.076	1	0
355.418	1	11
355.760	1	13
356.102	1	4
356.444	1	0
356.785	1	15
357.127	1	1
357.469	1	-2
357.811	1	20
358.153	1	12
358.495	1	16
358.837	1	9
359.179	1	6
359.521	1	6
359.863	1	-1
360.205	1	2
360.547	1	8
360.889	1	6
361.231	1	4
361.572	1	1
361.914	1	2
362.256	1	11
362.598	1	7
362.940	1	14
363.282	1	8
363.624	1	5
363.966	1	12
364.308	1	5
364.649	1	12
364.991	1	12
365.333	1	21
365.675	1	4
366.017	1	10
366.359	1	3
366.701	1	4
367.042	1	19
367.384	1	23
367.726	1	24
368.068	1	2
368.410	1	14
368.752	1	-2
369.093	1	9
369.435	1	10
369.777	1	1
370.119	1	15
370.461	1	9
370.803	1	5
371.144	1	10
371.486	1	14
371.828	1	1
372.170	1	12
372.512	1	6
372.853	1	7
373.195	1	1
373.537	1	3
373.879	1	17
374.220	1	4
374.562	1	8
374.904	1	4
375.246	1	4
375.588	1	12
375.929	1	15
376.271	1	8
376.613	1	2
376.955	1	-4
377.296	1	17
377.638	1	6
377.980	1	6
378.321	1	18
378.663	1	3
379.005	1	8
379.347	1	4
379.688	1	6
380.030	1	-3
380.372	1	2
380.714	1	5
381.055	1	9
381.397	1	1
381.739	1	6
382.080	1	5
382.422	1	19
382.764	1	8
383.105	1	9
383.447	1	15
383.789	1	5
384.130	1	-2
384.472	1	2
384.814	1	14
385.156	1	18
385.497	1	14
385.839	1	18
386.180	1	22
386.522	1	23
386.864	1	11
387.205	1	18
387.547	1	9
387.889	1	27
388.230	1	10
388.572	1	18
388.914	1	30
389.255	1	23
389.597	1	1
389.939	1	16
390.280	1	23
390.622	1	13
390.963	1	28
391.305	1	24
391.647	1	13
391.988	1	10
392.330	1	21
392.671	1	21
393.013	1	13
393.355	1	24
393.696	1	11
394.038	1	12
394.379	1	4
394.721	1	17
395.062	1	2
395.404	1	10
395.746	1	9
396.087	1	15
396.429	1	20
396.770	1	14
397.112	1	6
397.453	1	-5
397.795	1	20
398.136	1	17
398.478	1	11
398.819	1	26
399.161	1	22
399.503	1	17
399.844	1	16
400.186	1	30
400.527	1	9
400.869	1	20
401.210	1	-4
401.552	1	22
401.893	1	8
402.235	1	11
402.576	1	21
402.918	1	13
403.259	1	4
403.601	1	9
403.942	1	25
404.284	1	18
404.625	1	9
404.967	1	9
405.308	1	13
405.649	1	8
405.991	1	9
406.332	1	2
406.674	1	17
407.015	1	-1
407.357	1	8
407.698	1	3
408.040	1	13
408.381	1	11
408.722	1	13
409.064	1	16
409.405	1	13
409.747	1	5
410.088	1	15
410.430	1	12
410.771	1	13
411.112	1	13
411.454	1	17
411.795	1	11
412.137	1	14
412.478	1	11
412.819	1	1
413.161	1	4
413.502	1	11
413.844	1	9
414.185	1	12
414.526	1	6
414.868	1	20
415.209	1	4
415.550	1	7
415.892	1	0
416.233	1	4
416.575	1	7
416.916	1	5
417.257	1	17
417.599	1	11
417.940	1	12
418.281	1	10
418.623	1	1
418.964	1	12
419.305	1	2
419.647	1	17
419.988	1	-5
420.329	1	15
420.671	1	13
421.012	1	9
421.353	1	13
421.695	1	12
422.036	1	2
422.377	1	6
422.718	1	15
423.060	1	6
423.401	1	8
423.742	1	11
424.084	1	8
424.425	1	5
424.766	1	15
425.107	1	9
425.449	1	3
425.790	1	-1
426.131	1	4
426.472	1	9
426.814	1	21
427.155	1	3
427.496	1	7
427.837	1	9
428.179	1	1
428.520	1	0
428.861	1	10
429.202	1	10
429.544	1	-1
429.885	1	4
430.226	1	1
430.567	1	10
430.909	1	-8
431.250	1	-1
431.591	1	4
431.932	1	4
432.273	1	7
432.615	1	11
432.956	1	9
433.297	1	13
433.638	1	3
433.979	1	3
434.320	1	8
434.662	1	6
435.003	1	18
435.344	1	6
435.685	1	8
436.026	1	16
436.368	1	0
436.709	1	0
437.050	1	8
437.391	1	11
437.732	1	1
438.073	1	9
438.414	1	8
438.756	1	20
439.097	1	11
439.438	1	11
439.779	1	1
440.120	1	12
440.461	1	3
440.802	1	11
441.143	1	11
441.485	1	-3
441.826	1	-6
442.167	1	7
442.508	1	-4
442.849	1	2
443.190	1	-6
443.531	1	-1
443.872	1	10
444.213	1	-9
444.554	1	-3
444.895	1	-5
445.237	1	6
445.578	1	9
445.919	1	7
446.260	1	2
446.601	1	11
446.942	1	-1
447.283	1	5
447.624	1	8
447.965	1	-1
448.306	1	7
448.647	1	14
448.988	1	0
449.329	1	-1
449.670	1	7
450.011	1	5
450.352	1	8
450.693	1	6
451.034	1	7
451.375	1	19
451.716	1	7
452.057	1	16
452.398	1	-6
452.739	1	4
453.080	1	11
453.421	1	8
453.762	1	6
454.103	1	2
454.444	1	20
454.785	1	6
455.126	1	1
455.467	1	12
455.808	1	8
456.149	1	-2
456.490	1	3
456.831	1	16
457.172	1	-5
457.513	1	10
457.854	1	6
458.195	1	6
458.536	1	10
458.877	1	1
459.218	1	11
459.559	1	5
459.899	1	15
460.240	1	-1
460.581	1	10
460.922	1	7
461.263	1	18
461.604	1	1
461.945	1	6
462.286	1	3
462.627	1	8
462.968	1	1
463.309	1	2
463.649	1	8
463.990	1	8
464.331	1	2
464.672	1	4
465.013	1	-4
465.354	1	1
465.695	1	13
466.036	1	-1
466.376	1	-3
466.717	1	2
467.058	1	16
467.399	1	7
467.740	1	-2
468.081	1	7
468.422	1	0
468.762	1	-1
469.103	1	-8
469.444	1	-2
469.785	1	10
470.126	1	14
470.467	1	-6
470.807	1	7
471.148	1	1
471.489	1	4
471.830	1	22
472.171	1	-1
472.511	1	13
472.852	1	5
473.193	1	-11
473.534	1	0
473.875	1	10
474.215	1	-1
474.556	1	-5
474.897	1	10
475.238	1	-7
475.578	1	-1
475.919	1	6
476.260	1	3
476.601	1	1
476.942	1	0
477.282	1	-5
477.623	1	6
477.964	1	12
478.305	1	6
478.645	1	-2
478.986	1	0
479.327	1	0
479.667	1	12
480.008	1	9
480.349	1	-1
480.690	1	5
481.030	1	-1
481.371	1	-1
481.712	1	9
482.053	1	8
482.393	1	-1
482.734	1	1
483.075	1	5
483.415	1	7
483.756	1	10
484.097	1	-7
484.437	1	-9
484.778	1	3
485.119	1	10
485.459	1	8
485.800	1	-2
486.141	1	-6
486.481	1	5
486.822	1	6
487.163	1	-4
487.503	1	0
487.844	1	4
488.185	1	-2
488.525	1	-2
488.866	1	10
489.207	1	1
489.547	1	8
489.888	1	6
490.228	1	-1
490.569	1	12
490.910	1	-3
491.250	1	2
491.591	1	-1
491.932	1	13
492.272	1	6
492.613	1	9
492.953	1	9
493.294	1	8
493.635	1	0
493.975	1	-4
494.316	1	7
494.656	1	2
494.997	1	8
495.337	1	8
495.678	1	16
496.019	1	5
496.359	1	20
496.700	1	-1
497.040	1	10
497.381	1	-11
497.721	1	5
498.062	1	9
498.403	1	3
498.743	1	9
499.084	1	-11
499.424	1	24
499.765	1	8
500.105	1	15
500.446	1	11
500.786	1	-1
501.127	1	14
501.467	1	9
501.808	1	-1
502.148	1	7
502.489	1	13
502.829	1	16
503.170	1	8
503.510	1	-1
503.851	1	-11
504.191	1	8
504.532	1	-5
504.872	1	-4
505.213	1	9
505.553	1	6
505.894	1	14
506.234	1	16
506.575	1	0
506.915	1	4
507.256	1	0
507.596	1	13
507.936	1	11
508.277	1	12
508.617	1	13
508.958	1	16
509.298	1	22
509.639	1	6
509.979	1	10
510.319	1	5
510.660	1	26
511.000	1	5
511.341	1	1
511.681	1	10
512.022	1	-1
512.362	1	1
512.702	1	-3
513.043	1	12
513.383	1	3
513.724	1	15
514.064	1	9
514.404	1	6
514.745	1	2
515.085	1	12
515.425	1	4
515.766	1	2
516.106	1	4
516.447	1	6
516.787	1	-4
517.127	1	11
517.468	1	8
517.808	1	-2
518.148	1	9
518.489	1	13
518.829	1	7
519.169	1	16
519.510	1	12
519.850	1	-2
520.190	1	9
520.531	1	3
520.871	1	4
521.211	1	6
521.552	1	16
521.892	1	-4
522.232	1	-2
522.573	1	8
522.913	1	3
523.253	1	10
523.593	1	-6
523.934	1	15
524.274	1	-2
524.614	1	12
524.955	1	-1
525.295	1	-2
525.635	1	19
525.975	1	-1
526.316	1	4
526.656	1	16
526.996	1	17
527.337	1	4
527.677	1	24
528.017	1	3
528.357	1	14
528.698	1	6
529.038	1	15
529.378	1	6
529.718	1	9
530.058	1	0
530.399	1	8
530.739	1	7
531.079	1	13
531.419	1	15
531.760	1	21
532.100	1	14
532.440	1	1
532.780	1	1
533.120	1	10
533.461	1	24
533.801	1	16
534.141	1	12
534.481	1	7
534.821	1	10
535.162	1	14
535.502	1	19
535.842	1	9
536.182	1	12
536.522	1	16
536.862	1	19
537.203	1	10
537.543	1	9
537.883	1	11
538.223	1	22
538.563	1	10
538.903	1	3
539.243	1	5
539.584	1	4
539.924	1	12
540.264	1	12
540.604	1	8
540.944	1	10
541.284	1	0
541.624	1	8
541.964	1	9
542.305	1	1
542.645	1	6
542.985	1	2
543.325	1	9
543.665	1	16
544.005	1	5
544.345	1	1
544.685	1	14
545.025	1	5
545.365	1	2
545.705	1	12
546.045	1	16
546.386	1	10
546.726	1	5
547.066	1	-3
547.406	1	11
547.746	1	15
548.086	1	5
548.426	1	0
548.766	1	15
549.106	1	13
549.446	1	10
549.786	1	7
550.126	1	7
550.466	1	4
550.806	1	14
551.146	1	0
551.486	1	5
551.826	1	11
552.166	1	6
552.506	1	5
552.846	1	8
553.186	1	4
553.526	1	4
553.866	1	8
554.206	1	15
554.546	1	3
554.886	1	3
555.226	1	-12
555.566	1	6
555.906	1	13
556.246	1	2
556.586	1	18
556.926	1	6
557.266	1	19
557.606	1	-1
557.946	1	16
558.286	1	8
558.626	1	5
558.966	1	3
559.306	1	3
559.646	1	7
559.986	1	-4
560.325	1	-13
560.665	1	11
561.005	1	2
561.345	1	8
561.685	1	6
562.025	1	-1
562.365	1	11
562.705	1	10
563.045	1	9
563.385	1	9
563.725	1	5
564.064	1	5
564.404	1	12
564.744	1	8
565.084	1	-2
565.424	1	0
565.764	1	17
566.104	1	2
566.444	1	15
566.783	1	3
567.123	1	13
567.463	1	-5
567.803	1	3
568.143	1	1
568.483	1	11
568.823	1	25
569.162	1	13
569.502	1	10
569.842	1	6
570.182	1	10
570.522	1	16
570.862	1	9
571.201	1	10
571.541	1	-1
571.881	1	14
572.221	1	7
572.561	1	-7
572.900	1	17
573.240	1	0
573.580	1	12
573.920	1	11
574.260	1	-1
574.599	1	1
574.939	1	4
575.279	1	6
575.619	1	4
575.959	1	2
576.298	1	-3
576.638	1	4
576.978	1	3
577.318	1	17
577.657	1	-1
577.997	1	1
578.337	1	3
578.677	1	-1
579.016	1	14
579.356	1	2
579.696	1	9
580.036	1	-7
580.375	1	3
580.715	1	7
581.055	1	12
581.394	1	-9
581.734	1	11
582.074	1	5
582.414	1	9
582.753	1	9
583.093	1	1
583.433	1	-6
583.772	1	3
584.112	1	5
584.452	1	-4
584.791	1	2
585.131	1	-2
585.471	1	3
585.811	1	-2
586.150	1	10
586.490	1	-2
586.830	1	-2
587.169	1	6
587.509	1	10
587.849	1	1
588.188	1	0
588.528	1	8
588.867	1	2
589.207	1	-12
589.547	1	-3
589.886	1	4
590.226	1	8
590.566	1	11
590.905	1	3
591.245	1	5
591.585	1	2
591.924	1	2
592.264	1	5
592.603	1	3
592.943	1	4
593.283	1	11
593.622	1	9
593.962	1	19
594.301	1	17
594.641	1	-4
594.981	1	0
595.320	1	11
595.660	1	0
595.999	1	4
596.339	1	-1
596.678	1	-5
597.018	1	2
597.358	1	0
597.697	1	2
598.037	1	7
598.376	1	14
598.716	1	-7
599.055	1	7
599.395	1	8
599.734	1	8
600.074	1	-2
600.413	1	4
600.753	1	8
601.092	1	-5
601.432	1	-8
601.771	1	10
602.111	1	-7
602.451	1	3
602.790	1	-1
603.130	1	5
603.469	1	-3
603.809	1	8
604.148	1	7
604.487	1	11
604.827	1	-6
605.166	1	0
605.506	1	2
605.845	1	9
606.185	1	3
606.524	1	3
606.864	1	4
607.203	1	7
607.543	1	-6
607.882	1	-2
608.222	1	5
608.561	1	7
608.901	1	7
609.240	1	2
609.579	1	13
609.919	1	-7
610.258	1	10
610.598	1	6
610.937	1	0
611.277	1	3
611.616	1	-6
611.955	1	6
612.295	1	8
612.634	1	4
612.974	1	10
613.313	1	13
613.652	1	0
613.992	1	9
614.331	1	1
614.671	1	9
615.010	1	9
615.349	1	4
615.689	1	4
616.028	1	-2
616.368	1	-2
616.707	1	11
617.046	1	9
617.386	1	4
617.725	1	4
618.064	1	6
618.404	1	15
618.743	1	6
619.082	1	9
619.422	1	0
619.761	1	6
620.100	1	8
620.440	1	1
620.779	1	-4
621.118	1	12
621.458	1	5
621.797	1	2
622.136	1	5
622.476	1	7
622.815	1	13
623.154	1	-3
623.494	1	4
623.833	1	5
624.172	1	12
624.511	1	2
624.851	1	-8
625.190	1	8
625.529	1	9
625.869	1	6
626.208	1	2
626.547	1	6
626.886	1	-1
627.226	1	6
627.565	1	8
627.904	1	6
628.243	1	-3
628.583	1	0
628.922	1	-5
629.261	1	7
629.600	1	11
629.940	1	5
630.279	1	0
630.618	1	8
630.957	1	-1
631.297	1	4
631.636	1	5
631.975	1	7
632.314	1	10
632.653	1	-8
632.993	1	9
633.332	1	10
633.671	1	5
634.010	1	3
634.349	1	9
634.689	1	11
635.028	1	8
635.367	1	2
635.706	1	-9
636.045	1	6
636.384	1	8
636.724	1	0
637.063	1	12
637.402	1	4
637.741	1	20
638.080	1	7
638.419	1	16
638.759	1	7
639.098	1	4
639.437	1	1
639.776	1	5
640.115	1	-7
640.454	1	11
640.793	1	5
641.132	1	4
641.472	1	-6
641.811	1	0
642.150	1	1
642.489	1	6
642.828	1	14
643.167	1	6
643.506	1	-6
643.845	1	-2
644.184	1	18
644.524	1	-2
644.863	1	3
645.202	1	10
645.541	1	-3
645.880	1	6
646.219	1	5
646.558	1	-8
646.897	1	-1
647.236	1	5
647.575	1	13
647.914	1	5
648.253	1	1
648.592	1	11
648.931	1	9
649.270	1	6
649.610	1	6
649.949	1	10
650.288	1	-5
650.627	1	8
650.966	1	0
651.305	1	3
651.644	1	5
651.983	1	5
652.322	1	13
652.661	1	3
653.000	1	12
653.339	1	13
653.678	1	8
654.017	1	1
654.356	1	11
654.695	1	9
655.034	1	3
655.373	1	5
655.712	1	-9
656.051	1	8
656.390	1	7
656.729	1	2
657.068	1	-2
657.406	1	9
657.745	1	-5
658.084	1	7
658.423	1	-1
658.762	1	-7
659.101	1	5
659.440	1	14
659.779	1	-3
660.118	1	10
660.457	1	2
660.796	1	0
661.135	1	5
661.474	1	0
661.813	1	2
662.152	1	0
662.491	1	3
662.829	1	-3
663.168	1	4
663.507	1	1
663.846	1	10
664.185	1	7
664.524	1	-10
664.863	1	3
665.202	1	-11
665.541	1	-2
665.879	1	-1
666.218	1	-8
666.557	1	8
666.896	1	2
667.235	1	1
667.574	1	6
667.913	1	7
668.251	1	0
668.590	1	1
668.929	1	10
669.268	1	1
669.607	1	-2
669.946	1	10
670.285	1	0
670.623	1	10
670.962	1	7
671.301	1	0
671.640	1	-18
671.979	1	15
672.317	1	0
672.656	1	9
672.995	1	1
673.334	1	11
673.673	1	19
674.011	1	6
674.350	1	3
674.689	1	2
675.028	1	-1
675.367	1	-3
675.705	1	-1
676.044	1	-3
676.383	1	7
676.722	1	9
677.060	1	-5
677.399	1	1
677.738	1	8
678.077	1	3
678.416	1	-2
678.754	1	2
679.093	1	8
679.432	1	-3
679.771	1	-1
680.109	1	9
680.448	1	5
680.787	1	2
681.125	1	8
681.464	1	3
681.803	1	-10
682.142	1	18
682.480	1	3
682.819	1	16
683.158	1	8
683.496	1	-1
683.835	1	8
684.174	1	0
684.512	1	-5
684.851	1	-1
685.190	1	11
685.529	1	-2
685.867	1	3
686.206	1	9
686.545	1	10
686.883	1	5
687.222	1	1
687.561	1	3
687.899	1	-3
688.238	1	1
688.577	1	-2
688.746	1	-1