File: Analysis/GaN_68K_200ms/GaN_sample E_spot4_UVVIS_68 K_200um_200 ms 2x2mm1_786.txt
340.368	1	2
340.710	1	-10
341.052	1	4
341.394	1	-6
341.737	1	5
342.079	1	-2
342.421	1	-4
342.763	1	0
343.105	1	6
343.447	1	3
343.789	1	2
344.131	1	-8
344.473	1	2
344.815	1	3
345.157	1	3
345.499	1	5
345.841	1	4
346.183	1	4
346.526	1	7
346.868	1	-1
347.210	1	-5
347.552	1	3
347.894	1	-1
348.236	1	-6
348.578	1	-1
348.920	1	9
349.262	1	-8
349.604	1	16
349.946	1	2
350.288	1	5
350.630	1	-8
350.972	1	0
351.314	1	-10
351.656	1	-7
351.998	1	-8
352.340	1	-13
352.682	1	2
353.024	1	-2
353.366	1	5
353.708	1	3
354.050	1	9
354.392	1	9
354.734	1	-5
355.076	1	-1
355.418	1	-4
355.760	1	-4
356.102	1	3
356.444	1	4
356.785	1	6
357.127	1	-1
357.469	1	-1
357.811	1	10
358.153	1	-6
358.495	1	17
358.837	1	-9
359.179	1	-1
359.521	1	-4
359.863	1	-8
360.205	1	1
360.547	1	1
360.889	1	4
361.231	1	5
361.572	1	-6
361.914	1	-11
362.256	1	9
362.598	1	-3
362.940	1	-8
363.282	1	4
363.624	1	-8
363.966	1	1
364.308	1	3
364.649	1	-1
364.991	1	10
365.333	1	2
365.675	1	-1
366.017	1	9
366.359	1	-2
366.701	1	-13
367.042	1	8
367.384	1	8
367.726	1	4
368.068	1	-3
368.410	1	3
368.752	1	-13
369.093	1	-3
369.435	1	1
369.777	1	-1
370.119	1	-3
370.461	1	8
370.803	1	-2
371.144	1	1
371.486	1	10
371.828	1	-4
372.170	1	6
372.512	1	-10
372.853	1	9
373.195	1	-8
373.537	1	8
373.879	1	6
374.220	1	0
374.562	1	-2
374.904	1	4
375.246	1	2
375.588	1	3
375.929	1	4
376.271	1	-14
376.613	1	2
376.955	1	-3
377.296	1	6
377.638	1	-4
377.980	1	0
378.321	1	5
378.663	1	-10
379.005	1	8
379.347	1	10
379.688	1	-2
380.030	1	-4
380.372	1	-1
380.714	1	1
381.055	1	0
381.397	1	-8
381.739	1	4
382.080	1	-8
382.422	1	12
382.764	1	-3
383.105	1	-10
383.447	1	0
383.789	1	7
384.130	1	-1
384.472	1	-4
384.814	1	-2
385.156	1	13
385.497	1	10
385.839	1	4
386.180	1	0
386.522	1	2
386.864	1	0
387.205	1	-2
387.547	1	-4
387.889	1	7
388.230	1	0
388.572	1	-10
388.914	1	6
389.255	1	11
389.597	1	-4
389.939	1	9
390.280	1	14
390.622	1	-6
390.963	1	3
391.305	1	7
391.647	1	5
391.988	1	-6
392.330	1	10
392.671	1	14
393.013	1	9
393.355	1	17
393.696	1	2
394.038	1	-2
394.379	1	-2
394.721	1	1
395.062	1	-9
395.404	1	8
395.746	1	-8
396.087	1	2
396.429	1	5
396.770	1	4
397.112	1	-3
397.453	1	-9
397.795	1	8
398.136	1	5
398.478	1	-7
398.819	1	16
399.161	1	12
399.503	1	3
399.844	1	-6
400.186	1	-3
400.527	1	-3
400.869	1	3
401.210	1	-4
401.552	1	9
401.893	1	4
402.235	1	11
402.576	1	6
402.918	1	-8
403.259	1	-1
403.601	1	-8
403.942	1	1
404.284	1	-3
404.625	1	4
404.967	1	2
405.308	1	4
405.649	1	1
405.991	1	4
406.332	1	-5
406.674	1	13
407.015	1	-11
407.357	1	4
407.698	1	-5
408.040	1	-6
408.381	1	6
408.722	1	-3
409.064	1	0
409.405	1	-1
409.747	1	0
410.088	1	5
410.430	1	6
410.771	1	8
411.112	1	5
411.454	1	12
411.795	1	11
412.137	1	15
412.478	1	8
412.819	1	-3
413.161	1	-3
413.502	1	-8
413.844	1	1
414.185	1	-7
414.526	1	-1
414.868	1	9
415.209	1	-11
415.550	1	-8
415.892	1	2
416.233	1	-3
416.575	1	-2
416.916	1	-5
417.257	1	6
417.599	1	0
417.940	1	-1
418.281	1	5
418.623	1	-4
418.964	1	-4
419.305	1	5
419.647	1	6
419.988	1	-7
420.329	1	0
420.671	1	-8
421.012	1	8
421.353	1	3
421.695	1	-3
422.036	1	-9
422.377	1	2
422.718	1	-1
423.060	1	1
423.401	1	3
423.742	1	1
424.084	1	0
424.425	1	2
424.766	1	8
425.107	1	-7
425.449	1	1
425.790	1	2
426.131	1	-6
426.472	1	-4
426.814	1	5
427.155	1	1
427.496	1	10
427.837	1	-6
428.179	1	-4
428.520	1	-8
428.861	1	-1
429.202	1	6
429.544	1	5
429.885	1	-4
430.226	1	-11
430.567	1	0
430.909	1	-6
431.250	1	-7
431.591	1	-6
431.932	1	-2
432.273	1	-11
432.615	1	1
432.956	1	-11
433.297	1	8
433.638	1	6
433.979	1	3
434.320	1	-3
434.662	1	-12
435.003	1	2
435.344	1	-2
435.685	1	0
436.026	1	0
436.368	1	-5
436.709	1	-8
437.050	1	6
437.391	1	1
437.732	1	11
438.073	1	0
438.414	1	3
438.756	1	6
439.097	1	2
439.438	1	6
439.779	1	2
440.120	1	-5
440.461	1	-6
440.802	1	2
441.143	1	5
441.485	1	-6
441.826	1	-13
442.167	1	3
442.508	1	-1
442.849	1	-3
443.190	1	-13
443.531	1	-4
443.872	1	-5
444.213	1	-4
444.554	1	-4
444.895	1	5
445.237	1	-16
445.578	1	9
445.919	1	0
446.260	1	2
446.601	1	0
446.942	1	5
447.283	1	-7
447.624	1	6
447.965	1	2
448.306	1	2
448.647	1	8
448.988	1	-19
449.329	1	-3
449.670	1	8
450.011	1	-3
450.352	1	10
450.693	1	2
451.034	1	8
451.375	1	-1
451.716	1	4
452.057	1	11
452.398	1	1
452.739	1	0
453.080	1	11
453.421	1	2
453.762	1	4
454.103	1	0
454.444	1	-1
454.785	1	-9
455.126	1	0
455.467	1	2
455.808	1	2
456.149	1	-8
456.490	1	4
456.831	1	6
457.172	1	-7
457.513	1	9
457.854	1	-2
458.195	1	-3
458.536	1	-2
458.877	1	-5
459.218	1	0
459.559	1	6
459.899	1	9
460.240	1	-2
460.581	1	0
460.922	1	-4
461.263	1	2
461.604	1	-6
461.945	1	-2
462.286	1	5
462.627	1	-3
462.968	1	-7
463.309	1	-1
463.649	1	-2
463.990	1	-5
464.331	1	5
464.672	1	4
465.013	1	-9
465.354	1	10
465.695	1	8
466.036	1	-2
466.376	1	-6
466.717	1	-13
467.058	1	11
467.399	1	5
467.740	1	-7
468.081	1	-1
468.422	1	-3
468.762	1	-10
469.103	1	8
469.444	1	-9
469.785	1	6
470.126	1	2
470.467	1	3
470.807	1	0
471.148	1	-6
471.489	1	-4
471.830	1	15
472.171	1	-4
472.511	1	14
472.852	1	-5
473.193	1	-6
473.534	1	-3
473.875	1	-1
474.215	1	4
474.556	1	-18
474.897	1	-1
475.238	1	-4
475.578	1	3
475.919	1	4
476.260	1	2
476.601	1	1
476.942	1	-3
477.282	1	-8
477.623	1	7
477.964	1	2
478.305	1	-6
478.645	1	-2
478.986	1	-3
479.327	1	-5
479.667	1	0
480.008	1	12
480.349	1	0
480.690	1	1
481.030	1	-2
481.371	1	-2
481.712	1	3
482.053	1	6
482.393	1	-5
482.734	1	-1
483.075	1	9
483.415	1	4
483.756	1	3
484.097	1	-4
484.437	1	-8
484.778	1	5
485.119	1	1
485.459	1	1
485.800	1	-2
486.141	1	-4
486.481	1	-3
486.822	1	6
487.163	1	-5
487.503	1	-10
487.844	1	6
488.185	1	-8
488.525	1	-3
488.866	1	2
489.207	1	7
489.547	1	-10
489.888	1	-1
490.228	1	-9
490.569	1	12
490.910	1	-10
491.250	1	4
491.591	1	-2
491.932	1	-1
492.272	1	7
492.613	1	5
492.953	1	-1
493.294	1	13
493.635	1	-5
493.975	1	-2
494.316	1	4
494.656	1	-9
494.997	1	-4
495.337	1	5
495.678	1	8
496.019	1	-10
496.359	1	5
496.700	1	3
497.040	1	6
497.381	1	-22
497.721	1	2
498.062	1	-8
498.403	1	2
498.743	1	-2
499.084	1	-9
499.424	1	11
499.765	1	3
500.105	1	2
500.446	1	10
500.786	1	5
501.127	1	8
501.467	1	-5
501.808	1	-18
502.148	1	7
502.489	1	6
502.829	1	-10
503.170	1	-2
503.510	1	-1
503.851	1	-6
504.191	1	4
504.532	1	-6
504.872	1	-5
505.213	1	-6
505.553	1	9
505.894	1	-1
506.234	1	11
506.575	1	-1
506.915	1	-3
507.256	1	-5
507.596	1	9
507.936	1	11
508.277	1	-3
508.617	1	3
508.958	1	4
509.298	1	14
509.639	1	11
509.979	1	-1
510.319	1	-8
510.660	1	6
511.000	1	4
511.341	1	-9
511.681	1	11
512.022	1	-3
512.362	1	-1
512.702	1	-9
513.043	1	-2
513.383	1	-1
513.724	1	5
514.064	1	-7
514.404	1	5
514.745	1	-12
515.085	1	1
515.425	1	-2
515.766	1	6
516.106	1	-10
516.447	1	-1
516.787	1	0
517.127	1	2
517.468	1	5
517.808	1	-3
518.148	1	-6
518.489	1	-3
518.829	1	-1
519.169	1	7
519.510	1	-1
519.850	1	-7
520.190	1	-2
520.531	1	1
520.871	1	-10
521.211	1	2
521.552	1	-3
521.892	1	-7
522.232	1	-12
522.573	1	0
522.913	1	0
523.253	1	-5
523.593	1	-14
523.934	1	2
524.274	1	-14
524.614	1	-2
524.955	1	-3
525.295	1	1
525.635	1	9
525.975	1	-13
526.316	1	-1
526.656	1	26
526.996	1	9
527.337	1	-1
527.677	1	10
528.017	1	-7
528.357	1	5
528.698	1	-5
529.038	1	5
529.378	1	0
529.718	1	-6
530.058	1	-8
530.399	1	8
530.739	1	-8
531.079	1	2
531.419	1	10
531.760	1	5
532.100	1	2
532.440	1	-9
532.780	1	6
533.120	1	-2
533.461	1	5
533.801	1	2
534.141	1	1
534.481	1	1
534.821	1	3
535.162	1	8
535.502	1	5
535.842	1	1
536.182	1	-9
536.522	1	5
536.862	1	5
537.203	1	5
537.543	1	5
537.883	1	5
538.223	1	-2
538.563	1	-2
538.903	1	-8
539.243	1	2
539.584	1	0
539.924	1	-2
540.264	1	-2
540.604	1	3
540.944	1	-7
541.284	1	-4
541.624	1	0
541.964	1	7
542.305	1	-4
542.645	1	-10
542.985	1	-4
543.325	1	-5
543.665	1	12
544.005	1	2
544.345	1	-8
544.685	1	-6
545.025	1	-9
545.365	1	7
545.705	1	11
546.045	1	2
546.386	1	-5
546.726	1	-5
547.066	1	-12
547.406	1	3
547.746	1	6
548.086	1	5
548.426	1	-8
548.766	1	-1
549.106	1	0
549.446	1	6
549.786	1	0
550.126	1	0
550.466	1	-1
550.806	1	-1
551.146	1	-8
551.486	1	0
551.826	1	-2
552.166	1	5
552.506	1	-8
552.846	1	2
553.186	1	-1
553.526	1	0
553.866	1	7
554.206	1	-2
554.546	1	-5
554.886	1	4
555.226	1	-13
555.566	1	2
555.906	1	3
556.246	1	-5
556.586	1	10
556.926	1	-2
557.266	1	4
557.606	1	-10
557.946	1	10
558.286	1	5
558.626	1	4
558.966	1	5
559.306	1	-9
559.646	1	-3
559.986	1	-6
560.325	1	-8
560.665	1	7
561.005	1	-3
561.345	1	0
561.685	1	1
562.025	1	-5
562.365	1	-3
562.705	1	5
563.045	1	-3
563.385	1	-5
563.725	1	0
564.064	1	5
564.404	1	-1
564.744	1	-1
565.084	1	-7
565.424	1	-6
565.764	1	0
566.104	1	-4
566.444	1	5
566.783	1	0
567.123	1	14
567.463	1	-8
567.803	1	-3
568.143	1	-17
568.483	1	-5
568.823	1	6
569.162	1	0
569.502	1	1
569.842	1	3
570.182	1	-2
570.522	1	0
570.862	1	5
571.201	1	9
571.541	1	-4
571.881	1	1
572.221	1	9
572.561	1	-8
572.900	1	5
573.240	1	1
573.580	1	3
573.920	1	0
574.260	1	-3
574.599	1	-6
574.939	1	-6
575.279	1	6
575.619	1	-1
575.959	1	-3
576.298	1	-13
576.638	1	-5
576.978	1	-3
577.318	1	2
577.657	1	-15
577.997	1	-8
578.337	1	-2
578.677	1	-1
579.016	1	5
579.356	1	-4
579.696	1	2
580.036	1	-3
580.375	1	-7
580.715	1	11
581.055	1	3
581.394	1	-1
581.734	1	6
582.074	1	-15
582.414	1	8
582.753	1	1
583.093	1	0
583.433	1	-11
583.772	1	-1
584.112	1	2
584.452	1	0
584.791	1	8
585.131	1	0
585.471	1	0
585.811	1	-7
586.150	1	-2
586.490	1	-7
586.830	1	-12
587.169	1	-5
587.509	1	-3
587.849	1	6
588.188	1	0
588.528	1	6
588.867	1	0
589.207	1	-11
589.547	1	-3
589.886	1	-9
590.226	1	-2
590.566	1	-6
590.905	1	9
591.245	1	-2
591.585	1	-8
591.924	1	-1
592.264	1	-11
592.603	1	-3
592.943	1	7
593.283	1	1
593.622	1	0
593.962	1	6
594.301	1	5
594.641	1	2
594.981	1	3
595.320	1	0
595.660	1	3
595.999	1	2
596.339	1	5
596.678	1	-4
597.018	1	6
597.358	1	2
597.697	1	-8
598.037	1	7
598.376	1	6
598.716	1	-12
599.055	1	-7
599.395	1	1
599.734	1	-4
600.074	1	0
600.413	1	-8
600.753	1	0
601.092	1	-14
601.432	1	-1
601.771	1	5
602.111	1	-11
602.451	1	-4
602.790	1	1
603.130	1	3
603.469	1	1
603.809	1	5
604.148	1	6
604.487	1	6
604.827	1	-12
605.166	1	-6
605.506	1	0
605.845	1	-4
606.185	1	-4
606.524	1	-2
606.864	1	-8
607.203	1	16
607.543	1	-9
607.882	1	-3
608.222	1	2
608.561	1	-2
608.901	1	6
609.240	1	4
609.579	1	7
609.919	1	-7
610.258	1	3
610.598	1	3
610.937	1	-4
611.277	1	-5
611.616	1	-14
611.955	1	9
612.295	1	2
612.634	1	-8
612.974	1	5
613.313	1	2
613.652	1	-17
613.992	1	6
614.331	1	-2
614.671	1	1
615.010	1	-1
615.349	1	1
615.689	1	4
616.028	1	0
616.368	1	-1
616.707	1	-5
617.046	1	13
617.386	1	1
617.725	1	10
618.064	1	8
618.404	1	9
618.743	1	-5
619.082	1	1
619.422	1	0
619.761	1	3
620.100	1	-5
620.440	1	3
620.779	1	-4
621.118	1	2
621.458	1	8
621.797	1	-5
622.136	1	11
622.476	1	11
622.815	1	4
623.154	1	-3
623.494	1	1
623.833	1	-5
624.172	1	9
624.511	1	-5
624.851	1	-10
625.190	1	-8
625.529	1	11
625.869	1	0
626.208	1	-5
626.547	1	2
626.886	1	-3
627.226	1	-1
627.565	1	7
627.904	1	5
628.243	1	-10
628.583	1	1
628.922	1	-6
629.261	1	0
629.600	1	13
629.940	1	-1
630.279	1	-8
630.618	1	-6
630.957	1	-8
631.297	1	-6
631.636	1	-3
631.975	1	-4
632.314	1	7
632.653	1	-5
632.993	1	0
633.332	1	2
633.671	1	3
634.010	1	0
634.349	1	2
634.689	1	8
635.028	1	-1
635.367	1	2
635.706	1	-15
636.045	1	-2
636.384	1	11
636.724	1	3
637.063	1	-1
637.402	1	7
637.741	1	9
638.080	1	1
638.419	1	5
638.759	1	-2
639.098	1	-1
639.437	1	-3
639.776	1	-1
640.115	1	-4
640.454	1	11
640.793	1	4
641.132	1	7
641.472	1	-2
641.811	1	7
642.150	1	2
642.489	1	4
642.828	1	-2
643.167	1	6
643.506	1	0
643.845	1	-1
644.184	1	-1
644.524	1	-18
644.863	1	-10
645.202	1	2
645.541	1	-12
645.880	1	0
646.219	1	5
646.558	1	-3
646.897	1	-6
647.236	1	-3
647.575	1	-2
647.914	1	-13
648.253	1	-2
648.592	1	-5
648.931	1	6
649.270	1	10
649.610	1	9
649.949	1	-4
650.288	1	-1
650.627	1	1
650.966	1	-8
651.305	1	-5
651.644	1	4
651.983	1	2
652.322	1	3
652.661	1	3
653.000	1	-3
653.339	1	8
653.678	1	1
654.017	1	-10
654.356	1	11
654.695	1	2
655.034	1	-2
655.373	1	0
655.712	1	0
656.051	1	5
656.390	1	-1
656.729	1	0
657.068	1	-10
657.406	1	4
657.745	1	0
658.084	1	6
658.423	1	-6
658.762	1	-10
659.101	1	-4
659.440	1	11
659.779	1	-5
660.118	1	-3
660.457	1	-6
660.796	1	-8
661.135	1	-3
661.474	1	2
661.813	1	-4
662.152	1	-7
662.491	1	-3
662.829	1	-2
663.168	1	-5
663.507	1	-5
663.846	1	3
664.185	1	-5
664.524	1	-8
664.863	1	4
665.202	1	-5
665.541	1	-4
665.879	1	-1
666.218	1	-6
666.557	1	2
666.896	1	-1
667.235	1	-6
667.574	1	-8
667.913	1	6
668.251	1	-2
668.590	1	-10
668.929	1	2
669.268	1	-5
669.607	1	-7
669.946	1	7
670.285	1	-2
670.623	1	3
670.962	1	1
671.301	1	2
671.640	1	-16
671.979	1	4
672.317	1	-7
672.656	1	0
672.995	1	-4
673.334	1	8
673.673	1	13
674.011	1	4
674.350	1	-3
674.689	1	-8
675.028	1	4
675.367	1	2
675.705	1	-7
676.044	1	-9
676.383	1	-2
676.722	1	3
677.060	1	6
677.399	1	1
677.738	1	-11
678.077	1	1
678.416	1	-2
678.754	1	-10
679.093	1	-3
679.432	1	-3
679.771	1	-6
680.109	1	11
680.448	1	2
680.787	1	0
681.125	1	6
681.464	1	-1
681.803	1	-4
682.142	1	8
682.480	1	-4
682.819	1	0
683.158	1	-2
683.496	1	2
683.835	1	0
684.174	1	1
684.512	1	-5
684.851	1	-2
685.190	1	5
685.529	1	5
685.867	1	-5
686.206	1	3
686.545	1	3
686.883	1	-8
687.222	1	-5
687.561	1	0
687.899	1	3
688.238	1	-2
688.577	1	-9
688.746	1	1