File: Analysis/GaN_68K_200ms/GaN_sample E_spot4_UVVIS_68 K_200um_200 ms 2x2mm1_804.txt
340.368	1	2
340.710	1	-5
341.052	1	-3
341.394	1	-4
341.737	1	5
342.079	1	-6
342.421	1	0
342.763	1	-10
343.105	1	3
343.447	1	3
343.789	1	4
344.131	1	-11
344.473	1	2
344.815	1	0
345.157	1	-2
345.499	1	1
345.841	1	-9
346.183	1	1
346.526	1	12
346.868	1	7
347.210	1	-5
347.552	1	-2
347.894	1	1
348.236	1	1
348.578	1	0
348.920	1	8
349.262	1	0
349.604	1	9
349.946	1	3
350.288	1	9
350.630	1	-13
350.972	1	-13
351.314	1	-5
351.656	1	13
351.998	1	-2
352.340	1	-6
352.682	1	-5
353.024	1	-5
353.366	1	12
353.708	1	6
354.050	1	0
354.392	1	9
354.734	1	-8
355.076	1	6
355.418	1	3
355.760	1	4
356.102	1	-1
356.444	1	6
356.785	1	11
357.127	1	2
357.469	1	4
357.811	1	13
358.153	1	3
358.495	1	11
358.837	1	-3
359.179	1	0
359.521	1	3
359.863	1	-13
360.205	1	-8
360.547	1	-2
360.889	1	13
361.231	1	-4
361.572	1	-6
361.914	1	3
362.256	1	3
362.598	1	1
362.940	1	3
363.282	1	-7
363.624	1	-12
363.966	1	-3
364.308	1	3
364.649	1	0
364.991	1	5
365.333	1	8
365.675	1	-10
366.017	1	0
366.359	1	-4
366.701	1	-2
367.042	1	9
367.384	1	3
367.726	1	13
368.068	1	-4
368.410	1	4
368.752	1	-12
369.093	1	2
369.435	1	-1
369.777	1	-3
370.119	1	0
370.461	1	1
370.803	1	-5
371.144	1	11
371.486	1	7
371.828	1	3
372.170	1	11
372.512	1	-5
372.853	1	6
373.195	1	-9
373.537	1	3
373.879	1	-7
374.220	1	3
374.562	1	0
374.904	1	1
375.246	1	-1
375.588	1	1
375.929	1	4
376.271	1	-5
376.613	1	5
376.955	1	-4
377.296	1	5
377.638	1	-8
377.980	1	4
378.321	1	3
378.663	1	2
379.005	1	4
379.347	1	7
379.688	1	-6
380.030	1	-3
380.372	1	-2
380.714	1	5
381.055	1	-6
381.397	1	-3
381.739	1	2
382.080	1	-15
382.422	1	4
382.764	1	4
383.105	1	-3
383.447	1	0
383.789	1	8
384.130	1	-6
384.472	1	-8
384.814	1	3
385.156	1	8
385.497	1	8
385.839	1	2
386.180	1	4
386.522	1	5
386.864	1	-1
387.205	1	-11
387.547	1	-5
387.889	1	14
388.230	1	-3
388.572	1	0
388.914	1	9
389.255	1	3
389.597	1	-4
389.939	1	1
390.280	1	11
390.622	1	-7
390.963	1	12
391.305	1	-4
391.647	1	9
391.988	1	-6
392.330	1	4
392.671	1	11
393.013	1	5
393.355	1	5
393.696	1	1
394.038	1	-9
394.379	1	-3
394.721	1	4
395.062	1	-10
395.404	1	3
395.746	1	-5
396.087	1	2
396.429	1	10
396.770	1	1
397.112	1	-3
397.453	1	-3
397.795	1	2
398.136	1	7
398.478	1	-4
398.819	1	2
399.161	1	-1
399.503	1	7
399.844	1	-3
400.186	1	9
400.527	1	3
400.869	1	19
401.210	1	-2
401.552	1	-2
401.893	1	1
402.235	1	7
402.576	1	17
402.918	1	-3
403.259	1	-9
403.601	1	-9
403.942	1	1
404.284	1	0
404.625	1	10
404.967	1	2
405.308	1	-1
405.649	1	-1
405.991	1	10
406.332	1	-4
406.674	1	2
407.015	1	1
407.357	1	5
407.698	1	-1
408.040	1	-7
408.381	1	-4
408.722	1	-1
409.064	1	8
409.405	1	4
409.747	1	-2
410.088	1	2
410.430	1	3
410.771	1	11
411.112	1	-4
411.454	1	10
411.795	1	0
412.137	1	14
412.478	1	6
412.819	1	-7
413.161	1	4
413.502	1	1
413.844	1	-1
414.185	1	8
414.526	1	4
414.868	1	2
415.209	1	-2
415.550	1	-4
415.892	1	-7
416.233	1	0
416.575	1	-1
416.916	1	0
417.257	1	3
417.599	1	7
417.940	1	0
418.281	1	-2
418.623	1	1
418.964	1	2
419.305	1	2
419.647	1	4
419.988	1	-7
420.329	1	4
420.671	1	2
421.012	1	12
421.353	1	5
421.695	1	3
422.036	1	1
422.377	1	-1
422.718	1	-5
423.060	1	-3
423.401	1	-4
423.742	1	-1
424.084	1	-1
424.425	1	0
424.766	1	2
425.107	1	-6
425.449	1	6
425.790	1	-2
426.131	1	0
426.472	1	2
426.814	1	6
427.155	1	-1
427.496	1	1
427.837	1	2
428.179	1	-9
428.520	1	0
428.861	1	0
429.202	1	5
429.544	1	0
429.885	1	-8
430.226	1	3
430.567	1	10
430.909	1	-4
431.250	1	-14
431.591	1	-3
431.932	1	-1
432.273	1	-2
432.615	1	-4
432.956	1	-5
433.297	1	6
433.638	1	-2
433.979	1	4
434.320	1	-5
434.662	1	-2
435.003	1	7
435.344	1	-1
435.685	1	1
436.026	1	-2
436.368	1	-4
436.709	1	5
437.050	1	1
437.391	1	-4
437.732	1	-5
438.073	1	7
438.414	1	4
438.756	1	5
439.097	1	3
439.438	1	5
439.779	1	0
440.120	1	-1
440.461	1	-11
440.802	1	-5
441.143	1	10
441.485	1	-6
441.826	1	0
442.167	1	8
442.508	1	-3
442.849	1	2
443.190	1	-13
443.531	1	-5
443.872	1	-3
444.213	1	-1
444.554	1	0
444.895	1	-7
445.237	1	-4
445.578	1	5
445.919	1	2
446.260	1	-6
446.601	1	0
446.942	1	6
447.283	1	-4
447.624	1	3
447.965	1	-1
448.306	1	5
448.647	1	14
448.988	1	-13
449.329	1	3
449.670	1	6
450.011	1	0
450.352	1	10
450.693	1	5
451.034	1	8
451.375	1	10
451.716	1	1
452.057	1	1
452.398	1	4
452.739	1	-4
453.080	1	10
453.421	1	4
453.762	1	-2
454.103	1	4
454.444	1	5
454.785	1	-2
455.126	1	-1
455.467	1	-7
455.808	1	5
456.149	1	-9
456.490	1	0
456.831	1	11
457.172	1	0
457.513	1	8
457.854	1	0
458.195	1	-7
458.536	1	7
458.877	1	1
459.218	1	-1
459.559	1	1
459.899	1	7
460.240	1	2
460.581	1	3
460.922	1	-5
461.263	1	-2
461.604	1	1
461.945	1	9
462.286	1	21
462.627	1	-1
462.968	1	-4
463.309	1	3
463.649	1	-5
463.990	1	-5
464.331	1	-3
464.672	1	-5
465.013	1	-10
465.354	1	10
465.695	1	6
466.036	1	12
466.376	1	-4
466.717	1	-5
467.058	1	2
467.399	1	0
467.740	1	-4
468.081	1	4
468.422	1	7
468.762	1	2
469.103	1	-2
469.444	1	-2
469.785	1	6
470.126	1	-5
470.467	1	-10
470.807	1	2
471.148	1	1
471.489	1	2
471.830	1	5
472.171	1	0
472.511	1	7
472.852	1	-6
473.193	1	-5
473.534	1	0
473.875	1	7
474.215	1	-6
474.556	1	-8
474.897	1	5
475.238	1	-3
475.578	1	1
475.919	1	7
476.260	1	-3
476.601	1	-7
476.942	1	-7
477.282	1	-2
477.623	1	2
477.964	1	4
478.305	1	3
478.645	1	-3
478.986	1	3
479.327	1	-9
479.667	1	6
480.008	1	13
480.349	1	0
480.690	1	-1
481.030	1	-6
481.371	1	-5
481.712	1	-1
482.053	1	10
482.393	1	-2
482.734	1	5
483.075	1	2
483.415	1	14
483.756	1	6
484.097	1	-1
484.437	1	-13
484.778	1	-1
485.119	1	7
485.459	1	5
485.800	1	2
486.141	1	-6
486.481	1	4
486.822	1	1
487.163	1	-2
487.503	1	-13
487.844	1	1
488.185	1	-7
488.525	1	-1
488.866	1	6
489.207	1	4
489.547	1	2
489.888	1	5
490.228	1	-4
490.569	1	4
490.910	1	-5
491.250	1	1
491.591	1	-13
491.932	1	2
492.272	1	9
492.613	1	-3
492.953	1	3
493.294	1	2
493.635	1	6
493.975	1	-8
494.316	1	17
494.656	1	1
494.997	1	-5
495.337	1	8
495.678	1	11
496.019	1	-1
496.359	1	8
496.700	1	0
497.040	1	6
497.381	1	-19
497.721	1	-6
498.062	1	-3
498.403	1	9
498.743	1	-5
499.084	1	-14
499.424	1	10
499.765	1	2
500.105	1	5
500.446	1	3
500.786	1	3
501.127	1	14
501.467	1	1
501.808	1	-8
502.148	1	8
502.489	1	7
502.829	1	5
503.170	1	-1
503.510	1	-6
503.851	1	-14
504.191	1	5
504.532	1	-8
504.872	1	-10
505.213	1	-5
505.553	1	-6
505.894	1	5
506.234	1	7
506.575	1	8
506.915	1	-9
507.256	1	-6
507.596	1	4
507.936	1	4
508.277	1	-7
508.617	1	7
508.958	1	11
509.298	1	9
509.639	1	5
509.979	1	-4
510.319	1	-7
510.660	1	-2
511.000	1	3
511.341	1	-7
511.681	1	5
512.022	1	0
512.362	1	2
512.702	1	-10
513.043	1	-4
513.383	1	-2
513.724	1	7
514.064	1	7
514.404	1	-3
514.745	1	12
515.085	1	2
515.425	1	-7
515.766	1	-5
516.106	1	-2
516.447	1	0
516.787	1	-5
517.127	1	13
517.468	1	5
517.808	1	1
518.148	1	2
518.489	1	1
518.829	1	-9
519.169	1	9
519.510	1	-4
519.850	1	-7
520.190	1	-11
520.531	1	-3
520.871	1	-7
521.211	1	2
521.552	1	5
521.892	1	-10
522.232	1	-3
522.573	1	-8
522.913	1	-4
523.253	1	0
523.593	1	-11
523.934	1	7
524.274	1	-10
524.614	1	1
524.955	1	6
525.295	1	-3
525.635	1	11
525.975	1	-6
526.316	1	-4
526.656	1	18
526.996	1	10
527.337	1	-1
527.677	1	12
528.017	1	1
528.357	1	-1
528.698	1	1
529.038	1	9
529.378	1	-2
529.718	1	7
530.058	1	2
530.399	1	8
530.739	1	-10
531.079	1	5
531.419	1	3
531.760	1	10
532.100	1	5
532.440	1	0
532.780	1	-2
533.120	1	-4
533.461	1	6
533.801	1	-3
534.141	1	7
534.481	1	-3
534.821	1	1
535.162	1	5
535.502	1	0
535.842	1	1
536.182	1	1
536.522	1	3
536.862	1	-1
537.203	1	3
537.543	1	-5
537.883	1	15
538.223	1	8
538.563	1	-6
538.903	1	-5
539.243	1	-2
539.584	1	6
539.924	1	-6
540.264	1	-2
540.604	1	6
540.944	1	-9
541.284	1	-8
541.624	1	3
541.964	1	1
542.305	1	-12
542.645	1	5
542.985	1	-2
543.325	1	-3
543.665	1	4
544.005	1	1
544.345	1	-12
544.685	1	4
545.025	1	-8
545.365	1	5
545.705	1	10
546.045	1	7
546.386	1	0
546.726	1	4
547.066	1	-16
547.406	1	-1
547.746	1	14
548.086	1	5
548.426	1	-6
548.766	1	-1
549.106	1	5
549.446	1	-4
549.786	1	10
550.126	1	-7
550.466	1	-1
550.806	1	2
551.146	1	-1
551.486	1	1
551.826	1	2
552.166	1	5
552.506	1	-9
552.846	1	-2
553.186	1	-4
553.526	1	2
553.866	1	-7
554.206	1	1
554.546	1	-4
554.886	1	-1
555.226	1	-3
555.566	1	2
555.906	1	8
556.246	1	-5
556.586	1	-6
556.926	1	4
557.266	1	0
557.606	1	1
557.946	1	8
558.286	1	-4
558.626	1	10
558.966	1	-2
559.306	1	-1
559.646	1	-5
559.986	1	-7
560.325	1	-9
560.665	1	-7
561.005	1	5
561.345	1	3
561.685	1	-9
562.025	1	-10
562.365	1	2
562.705	1	5
563.045	1	6
563.385	1	-7
563.725	1	-4
564.064	1	7
564.404	1	-3
564.744	1	-12
565.084	1	-10
565.424	1	-6
565.764	1	10
566.104	1	-3
566.444	1	5
566.783	1	3
567.123	1	14
567.463	1	-8
567.803	1	-3
568.143	1	-11
568.483	1	-13
568.823	1	6
569.162	1	1
569.502	1	7
569.842	1	4
570.182	1	-1
570.522	1	2
570.862	1	8
571.201	1	2
571.541	1	-4
571.881	1	7
572.221	1	-2
572.561	1	-8
572.900	1	18
573.240	1	0
573.580	1	-3
573.920	1	-10
574.260	1	-3
574.599	1	-5
574.939	1	-10
575.279	1	4
575.619	1	-2
575.959	1	-16
576.298	1	-7
576.638	1	-5
576.978	1	7
577.318	1	4
577.657	1	-7
577.997	1	-9
578.337	1	-5
578.677	1	-11
579.016	1	22
579.356	1	-7
579.696	1	8
580.036	1	-6
580.375	1	2
580.715	1	7
581.055	1	-2
581.394	1	2
581.734	1	5
582.074	1	-6
582.414	1	0
582.753	1	9
583.093	1	-5
583.433	1	-3
583.772	1	0
584.112	1	3
584.452	1	-3
584.791	1	4
585.131	1	-4
585.471	1	4
585.811	1	1
586.150	1	-1
586.490	1	-4
586.830	1	-11
587.169	1	6
587.509	1	-3
587.849	1	2
588.188	1	6
588.528	1	10
588.867	1	9
589.207	1	-7
589.547	1	-5
589.886	1	-5
590.226	1	1
590.566	1	-3
590.905	1	7
591.245	1	5
591.585	1	-13
591.924	1	1
592.264	1	-5
592.603	1	-11
592.943	1	-6
593.283	1	4
593.622	1	0
593.962	1	5
594.301	1	18
594.641	1	-12
594.981	1	-2
595.320	1	3
595.660	1	-7
595.999	1	6
596.339	1	7
596.678	1	0
597.018	1	2
597.358	1	12
597.697	1	-3
598.037	1	-9
598.376	1	3
598.716	1	-7
599.055	1	11
599.395	1	14
599.734	1	1
600.074	1	-11
600.413	1	-3
600.753	1	7
601.092	1	-15
601.432	1	5
601.771	1	7
602.111	1	0
602.451	1	4
602.790	1	-3
603.130	1	-2
603.469	1	0
603.809	1	8
604.148	1	1
604.487	1	9
604.827	1	-5
605.166	1	-10
605.506	1	0
605.845	1	4
606.185	1	6
606.524	1	-6
606.864	1	-9
607.203	1	10
607.543	1	-1
607.882	1	-13
608.222	1	-1
608.561	1	5
608.901	1	6
609.240	1	-2
609.579	1	7
609.919	1	-3
610.258	1	10
610.598	1	-6
610.937	1	3
611.277	1	-1
611.616	1	-14
611.955	1	8
612.295	1	1
612.634	1	-6
612.974	1	8
613.313	1	-1
613.652	1	-13
613.992	1	-1
614.331	1	-1
614.671	1	4
615.010	1	-3
615.349	1	4
615.689	1	-3
616.028	1	3
616.368	1	-11
616.707	1	-6
617.046	1	5
617.386	1	-3
617.725	1	1
618.064	1	2
618.404	1	10
618.743	1	6
619.082	1	-6
619.422	1	-1
619.761	1	-3
620.100	1	0
620.440	1	3
620.779	1	-11
621.118	1	-4
621.458	1	11
621.797	1	-2
622.136	1	6
622.476	1	-3
622.815	1	2
623.154	1	-2
623.494	1	0
623.833	1	-3
624.172	1	16
624.511	1	8
624.851	1	-3
625.190	1	6
625.529	1	9
625.869	1	0
626.208	1	-1
626.547	1	6
626.886	1	-11
627.226	1	4
627.565	1	3
627.904	1	-7
628.243	1	-1
628.583	1	1
628.922	1	6
629.261	1	8
629.600	1	4
629.940	1	6
630.279	1	-11
630.618	1	-4
630.957	1	-2
631.297	1	-4
631.636	1	-6
631.975	1	10
632.314	1	13
632.653	1	-5
632.993	1	-3
633.332	1	-4
633.671	1	-1
634.010	1	-4
634.349	1	0
634.689	1	11
635.028	1	1
635.367	1	1
635.706	1	-9
636.045	1	-3
636.384	1	0
636.724	1	1
637.063	1	11
637.402	1	3
637.741	1	-1
638.080	1	1
638.419	1	7
638.759	1	-1
639.098	1	1
639.437	1	-9
639.776	1	-1
640.115	1	-7
640.454	1	12
640.793	1	-5
641.132	1	4
641.472	1	-2
641.811	1	-2
642.150	1	-2
642.489	1	0
642.828	1	-5
643.167	1	1
643.506	1	-1
643.845	1	-10
644.184	1	7
644.524	1	-7
644.863	1	-12
645.202	1	-5
645.541	1	-2
645.880	1	13
646.219	1	-6
646.558	1	-3
646.897	1	-2
647.236	1	-8
647.575	1	0
647.914	1	-2
648.253	1	3
648.592	1	0
648.931	1	13
649.270	1	11
649.610	1	13
649.949	1	0
650.288	1	-8
650.627	1	-1
650.966	1	-2
651.305	1	-2
651.644	1	-7
651.983	1	5
652.322	1	3
652.661	1	2
653.000	1	-5
653.339	1	3
653.678	1	-4
654.017	1	-9
654.356	1	5
654.695	1	-1
655.034	1	5
655.373	1	8
655.712	1	-7
656.051	1	3
656.390	1	-6
656.729	1	7
657.068	1	0
657.406	1	5
657.745	1	-7
658.084	1	0
658.423	1	1
658.762	1	-12
659.101	1	-8
659.440	1	1
659.779	1	1
660.118	1	3
660.457	1	5
660.796	1	-4
661.135	1	5
661.474	1	0
661.813	1	1
662.152	1	2
662.491	1	-7
662.829	1	-3
663.168	1	0
663.507	1	4
663.846	1	4
664.185	1	-6
664.524	1	-9
664.863	1	-2
665.202	1	-13
665.541	1	-4
665.879	1	-10
666.218	1	-8
666.557	1	-1
666.896	1	1
667.235	1	5
667.574	1	10
667.913	1	0
668.251	1	6
668.590	1	-1
668.929	1	0
669.268	1	-3
669.607	1	-14
669.946	1	6
670.285	1	2
670.623	1	-2
670.962	1	5
671.301	1	-1
671.640	1	-18
671.979	1	15
672.317	1	-6
672.656	1	-3
672.995	1	6
673.334	1	1
673.673	1	7
674.011	1	2
674.350	1	-9
674.689	1	-9
675.028	1	18
675.367	1	8
675.705	1	-4
676.044	1	-12
676.383	1	-2
676.722	1	1
677.060	1	2
677.399	1	-7
677.738	1	-5
678.077	1	3
678.416	1	8
678.754	1	-11
679.093	1	6
679.432	1	0
679.771	1	-3
680.109	1	3
680.448	1	-3
680.787	1	2
681.125	1	4
681.464	1	-6
681.803	1	-9
682.142	1	16
682.480	1	0
682.819	1	-5
683.158	1	-8
683.496	1	-6
683.835	1	5
684.174	1	-4
684.512	1	0
684.851	1	-4
685.190	1	9
685.529	1	-7
685.867	1	-2
686.206	1	5
686.545	1	-5
686.883	1	0
687.222	1	-11
687.561	1	3
687.899	1	-5
688.238	1	-1
688.577	1	-8
688.746	1	7