File: Analysis/GaN_68K_200ms/GaN_sample E_spot4_UVVIS_68 K_200um_200 ms 2x2mm1_435.txt
340.368	1	0
340.710	1	0
341.052	1	2
341.394	1	-3
341.737	1	9
342.079	1	-3
342.421	1	-4
342.763	1	-4
343.105	1	9
343.447	1	2
343.789	1	-2
344.131	1	-4
344.473	1	-2
344.815	1	-4
345.157	1	9
345.499	1	2
345.841	1	-2
346.183	1	2
346.526	1	7
346.868	1	-1
347.210	1	-3
347.552	1	-3
347.894	1	-3
348.236	1	3
348.578	1	5
348.920	1	7
349.262	1	-4
349.604	1	6
349.946	1	1
350.288	1	10
350.630	1	2
350.972	1	0
351.314	1	3
351.656	1	2
351.998	1	1
352.340	1	-3
352.682	1	6
353.024	1	0
353.366	1	0
353.708	1	9
354.050	1	13
354.392	1	4
354.734	1	1
355.076	1	0
355.418	1	-5
355.760	1	3
356.102	1	-12
356.444	1	7
356.785	1	12
357.127	1	0
357.469	1	1
357.811	1	8
358.153	1	5
358.495	1	11
358.837	1	0
359.179	1	5
359.521	1	4
359.863	1	-9
360.205	1	-3
360.547	1	-1
360.889	1	11
361.231	1	0
361.572	1	-6
361.914	1	0
362.256	1	1
362.598	1	11
362.940	1	3
363.282	1	9
363.624	1	4
363.966	1	7
364.308	1	1
364.649	1	-4
364.991	1	4
365.333	1	10
365.675	1	0
366.017	1	10
366.359	1	8
366.701	1	8
367.042	1	12
367.384	1	9
367.726	1	10
368.068	1	-8
368.410	1	9
368.752	1	-5
369.093	1	2
369.435	1	12
369.777	1	-1
370.119	1	2
370.461	1	6
370.803	1	1
371.144	1	3
371.486	1	11
371.828	1	9
372.170	1	9
372.512	1	0
372.853	1	11
373.195	1	-2
373.537	1	-1
373.879	1	7
374.220	1	5
374.562	1	-5
374.904	1	9
375.246	1	2
375.588	1	2
375.929	1	7
376.271	1	5
376.613	1	-1
376.955	1	-8
377.296	1	4
377.638	1	0
377.980	1	-1
378.321	1	7
378.663	1	2
379.005	1	11
379.347	1	9
379.688	1	8
380.030	1	3
380.372	1	4
380.714	1	5
381.055	1	3
381.397	1	-2
381.739	1	11
382.080	1	-12
382.422	1	9
382.764	1	5
383.105	1	2
383.447	1	8
383.789	1	3
384.130	1	-3
384.472	1	0
384.814	1	16
385.156	1	10
385.497	1	9
385.839	1	6
386.180	1	-2
386.522	1	17
386.864	1	3
387.205	1	6
387.547	1	1
387.889	1	13
388.230	1	0
388.572	1	10
388.914	1	8
389.255	1	5
389.597	1	-5
389.939	1	11
390.280	1	10
390.622	1	-3
390.963	1	9
391.305	1	-3
391.647	1	8
391.988	1	-2
392.330	1	13
392.671	1	1
393.013	1	2
393.355	1	12
393.696	1	0
394.038	1	3
394.379	1	-5
394.721	1	11
395.062	1	-12
395.404	1	3
395.746	1	0
396.087	1	-1
396.429	1	6
396.770	1	1
397.112	1	2
397.453	1	-8
397.795	1	14
398.136	1	8
398.478	1	0
398.819	1	13
399.161	1	8
399.503	1	16
399.844	1	5
400.186	1	8
400.527	1	8
400.869	1	9
401.210	1	-12
401.552	1	10
401.893	1	9
402.235	1	10
402.576	1	16
402.918	1	0
403.259	1	-3
403.601	1	4
403.942	1	1
404.284	1	6
404.625	1	2
404.967	1	8
405.308	1	3
405.649	1	0
405.991	1	13
406.332	1	4
406.674	1	-1
407.015	1	-4
407.357	1	3
407.698	1	-3
408.040	1	-2
408.381	1	2
408.722	1	-2
409.064	1	-1
409.405	1	4
409.747	1	0
410.088	1	7
410.430	1	10
410.771	1	9
411.112	1	7
411.454	1	15
411.795	1	11
412.137	1	14
412.478	1	16
412.819	1	-7
413.161	1	7
413.502	1	-3
413.844	1	4
414.185	1	8
414.526	1	0
414.868	1	11
415.209	1	5
415.550	1	-2
415.892	1	-6
416.233	1	4
416.575	1	0
416.916	1	0
417.257	1	14
417.599	1	13
417.940	1	-2
418.281	1	7
418.623	1	4
418.964	1	-3
419.305	1	5
419.647	1	3
419.988	1	5
420.329	1	10
420.671	1	1
421.012	1	9
421.353	1	5
421.695	1	6
422.036	1	4
422.377	1	2
422.718	1	8
423.060	1	-2
423.401	1	4
423.742	1	8
424.084	1	10
424.425	1	0
424.766	1	7
425.107	1	4
425.449	1	2
425.790	1	-1
426.131	1	8
426.472	1	-5
426.814	1	4
427.155	1	3
427.496	1	8
427.837	1	-3
428.179	1	-2
428.520	1	2
428.861	1	-8
429.202	1	15
429.544	1	12
429.885	1	-5
430.226	1	-6
430.567	1	14
430.909	1	-3
431.250	1	-5
431.591	1	2
431.932	1	5
432.273	1	3
432.615	1	8
432.956	1	3
433.297	1	7
433.638	1	-2
433.979	1	1
434.320	1	6
434.662	1	-2
435.003	1	7
435.344	1	5
435.685	1	6
436.026	1	7
436.368	1	-2
436.709	1	-4
437.050	1	2
437.391	1	-2
437.732	1	8
438.073	1	9
438.414	1	0
438.756	1	10
439.097	1	13
439.438	1	13
439.779	1	2
440.120	1	3
440.461	1	3
440.802	1	-4
441.143	1	3
441.485	1	-8
441.826	1	-5
442.167	1	2
442.508	1	-2
442.849	1	12
443.190	1	-4
443.531	1	4
443.872	1	4
444.213	1	4
444.554	1	-1
444.895	1	2
445.237	1	-3
445.578	1	9
445.919	1	-5
446.260	1	-2
446.601	1	-6
446.942	1	-3
447.283	1	0
447.624	1	9
447.965	1	-13
448.306	1	4
448.647	1	11
448.988	1	-5
449.329	1	7
449.670	1	10
450.011	1	-7
450.352	1	10
450.693	1	5
451.034	1	5
451.375	1	13
451.716	1	6
452.057	1	12
452.398	1	9
452.739	1	0
453.080	1	18
453.421	1	1
453.762	1	4
454.103	1	0
454.444	1	14
454.785	1	-6
455.126	1	5
455.467	1	1
455.808	1	8
456.149	1	-4
456.490	1	12
456.831	1	8
457.172	1	5
457.513	1	6
457.854	1	-2
458.195	1	-1
458.536	1	10
458.877	1	-2
459.218	1	7
459.559	1	3
459.899	1	7
460.240	1	4
460.581	1	4
460.922	1	-5
461.263	1	3
461.604	1	3
461.945	1	4
462.286	1	8
462.627	1	3
462.968	1	-5
463.309	1	0
463.649	1	7
463.990	1	-2
464.331	1	2
464.672	1	4
465.013	1	-9
465.354	1	15
465.695	1	9
466.036	1	0
466.376	1	-4
466.717	1	-9
467.058	1	4
467.399	1	3
467.740	1	-2
468.081	1	4
468.422	1	5
468.762	1	-2
469.103	1	-3
469.444	1	4
469.785	1	1
470.126	1	3
470.467	1	-5
470.807	1	3
471.148	1	-1
471.489	1	-1
471.830	1	6
472.171	1	5
472.511	1	13
472.852	1	-10
473.193	1	-3
473.534	1	1
473.875	1	8
474.215	1	-7
474.556	1	-2
474.897	1	-3
475.238	1	-4
475.578	1	6
475.919	1	10
476.260	1	2
476.601	1	-2
476.942	1	-12
477.282	1	-13
477.623	1	13
477.964	1	4
478.305	1	-6
478.645	1	-9
478.986	1	-1
479.327	1	-1
479.667	1	3
480.008	1	7
480.349	1	1
480.690	1	-3
481.030	1	1
481.371	1	4
481.712	1	4
482.053	1	12
482.393	1	1
482.734	1	6
483.075	1	9
483.415	1	8
483.756	1	4
484.097	1	-4
484.437	1	-1
484.778	1	-5
485.119	1	3
485.459	1	16
485.800	1	4
486.141	1	-8
486.481	1	1
486.822	1	9
487.163	1	-6
487.503	1	-11
487.844	1	5
488.185	1	1
488.525	1	1
488.866	1	12
489.207	1	8
489.547	1	-5
489.888	1	2
490.228	1	0
490.569	1	7
490.910	1	-8
491.250	1	-1
491.591	1	1
491.932	1	3
492.272	1	4
492.613	1	2
492.953	1	6
493.294	1	5
493.635	1	0
493.975	1	9
494.316	1	8
494.656	1	0
494.997	1	-1
495.337	1	0
495.678	1	8
496.019	1	-6
496.359	1	11
496.700	1	0
497.040	1	-10
497.381	1	-13
497.721	1	2
498.062	1	-3
498.403	1	14
498.743	1	6
499.084	1	-7
499.424	1	10
499.765	1	-2
500.105	1	17
500.446	1	-3
500.786	1	-2
501.127	1	16
501.467	1	9
501.808	1	-9
502.148	1	4
502.489	1	14
502.829	1	17
503.170	1	2
503.510	1	5
503.851	1	-6
504.191	1	7
504.532	1	-1
504.872	1	-3
505.213	1	2
505.553	1	4
505.894	1	4
506.234	1	15
506.575	1	-4
506.915	1	3
507.256	1	-6
507.596	1	3
507.936	1	8
508.277	1	-6
508.617	1	4
508.958	1	18
509.298	1	11
509.639	1	12
509.979	1	-3
510.319	1	0
510.660	1	8
511.000	1	7
511.341	1	-8
511.681	1	1
512.022	1	-5
512.362	1	1
512.702	1	-6
513.043	1	4
513.383	1	-10
513.724	1	11
514.064	1	0
514.404	1	2
514.745	1	-2
515.085	1	0
515.425	1	7
515.766	1	-1
516.106	1	-2
516.447	1	4
516.787	1	-1
517.127	1	4
517.468	1	2
517.808	1	6
518.148	1	0
518.489	1	12
518.829	1	-5
519.169	1	11
519.510	1	-2
519.850	1	-1
520.190	1	8
520.531	1	11
520.871	1	3
521.211	1	3
521.552	1	11
521.892	1	-3
522.232	1	-2
522.573	1	3
522.913	1	4
523.253	1	6
523.593	1	-11
523.934	1	1
524.274	1	6
524.614	1	3
524.955	1	1
525.295	1	5
525.635	1	15
525.975	1	-1
526.316	1	2
526.656	1	16
526.996	1	8
527.337	1	6
527.677	1	17
528.017	1	-3
528.357	1	16
528.698	1	1
529.038	1	4
529.378	1	8
529.718	1	-4
530.058	1	8
530.399	1	8
530.739	1	0
531.079	1	14
531.419	1	11
531.760	1	4
532.100	1	10
532.440	1	1
532.780	1	10
533.120	1	0
533.461	1	13
533.801	1	4
534.141	1	16
534.481	1	6
534.821	1	6
535.162	1	4
535.502	1	9
535.842	1	15
536.182	1	5
536.522	1	8
536.862	1	3
537.203	1	15
537.543	1	10
537.883	1	-1
538.223	1	16
538.563	1	6
538.903	1	-3
539.243	1	8
539.584	1	5
539.924	1	-5
540.264	1	9
540.604	1	9
540.944	1	1
541.284	1	5
541.624	1	7
541.964	1	7
542.305	1	-4
542.645	1	-4
542.985	1	-6
543.325	1	-2
543.665	1	15
544.005	1	-8
544.345	1	3
544.685	1	13
545.025	1	-5
545.365	1	7
545.705	1	14
546.045	1	16
546.386	1	6
546.726	1	1
547.066	1	-3
547.406	1	8
547.746	1	9
548.086	1	13
548.426	1	-5
548.766	1	-4
549.106	1	1
549.446	1	4
549.786	1	12
550.126	1	3
550.466	1	-2
550.806	1	10
551.146	1	2
551.486	1	6
551.826	1	13
552.166	1	-1
552.506	1	-5
552.846	1	7
553.186	1	1
553.526	1	9
553.866	1	8
554.206	1	3
554.546	1	-7
554.886	1	1
555.226	1	-8
555.566	1	11
555.906	1	1
556.246	1	1
556.586	1	5
556.926	1	7
557.266	1	16
557.606	1	-14
557.946	1	7
558.286	1	5
558.626	1	7
558.966	1	0
559.306	1	2
559.646	1	-1
559.986	1	-9
560.325	1	-9
560.665	1	17
561.005	1	2
561.345	1	10
561.685	1	-2
562.025	1	-5
562.365	1	10
562.705	1	9
563.045	1	4
563.385	1	-2
563.725	1	4
564.064	1	0
564.404	1	-1
564.744	1	4
565.084	1	-16
565.424	1	2
565.764	1	15
566.104	1	-8
566.444	1	4
566.783	1	11
567.123	1	11
567.463	1	-1
567.803	1	-4
568.143	1	-8
568.483	1	-4
568.823	1	10
569.162	1	5
569.502	1	2
569.842	1	6
570.182	1	0
570.522	1	10
570.862	1	-1
571.201	1	9
571.541	1	-4
571.881	1	-1
572.221	1	6
572.561	1	-3
572.900	1	7
573.240	1	2
573.580	1	4
573.920	1	3
574.260	1	3
574.599	1	3
574.939	1	0
575.279	1	10
575.619	1	5
575.959	1	-1
576.298	1	-8
576.638	1	1
576.978	1	-2
577.318	1	7
577.657	1	-14
577.997	1	-4
578.337	1	0
578.677	1	-1
579.016	1	-1
579.356	1	-8
579.696	1	-2
580.036	1	3
580.375	1	-2
580.715	1	11
581.055	1	2
581.394	1	-5
581.734	1	7
582.074	1	-1
582.414	1	9
582.753	1	9
583.093	1	-2
583.433	1	-9
583.772	1	2
584.112	1	4
584.452	1	1
584.791	1	6
585.131	1	-1
585.471	1	-5
585.811	1	0
586.150	1	13
586.490	1	2
586.830	1	4
587.169	1	-4
587.509	1	2
587.849	1	5
588.188	1	-1
588.528	1	10
588.867	1	5
589.207	1	-11
589.547	1	-7
589.886	1	-5
590.226	1	-1
590.566	1	-1
590.905	1	0
591.245	1	4
591.585	1	-12
591.924	1	-11
592.264	1	0
592.603	1	2
592.943	1	4
593.283	1	8
593.622	1	-1
593.962	1	9
594.301	1	13
594.641	1	-8
594.981	1	-6
595.320	1	5
595.660	1	-4
595.999	1	9
596.339	1	0
596.678	1	-1
597.018	1	-1
597.358	1	0
597.697	1	-6
598.037	1	3
598.376	1	13
598.716	1	-16
599.055	1	-2
599.395	1	10
599.734	1	-4
600.074	1	7
600.413	1	5
600.753	1	10
601.092	1	-9
601.432	1	0
601.771	1	3
602.111	1	-4
602.451	1	-3
602.790	1	1
603.130	1	2
603.469	1	3
603.809	1	10
604.148	1	2
604.487	1	-2
604.827	1	-5
605.166	1	-5
605.506	1	-4
605.845	1	9
606.185	1	6
606.524	1	-4
606.864	1	-1
607.203	1	5
607.543	1	-3
607.882	1	0
608.222	1	3
608.561	1	4
608.901	1	0
609.240	1	4
609.579	1	0
609.919	1	2
610.258	1	8
610.598	1	6
610.937	1	-9
611.277	1	14
611.616	1	-8
611.955	1	0
612.295	1	-2
612.634	1	1
612.974	1	1
613.313	1	7
613.652	1	3
613.992	1	-1
614.331	1	1
614.671	1	1
615.010	1	8
615.349	1	2
615.689	1	1
616.028	1	-5
616.368	1	-4
616.707	1	-4
617.046	1	12
617.386	1	0
617.725	1	3
618.064	1	3
618.404	1	11
618.743	1	-1
619.082	1	6
619.422	1	-3
619.761	1	-5
620.100	1	4
620.440	1	11
620.779	1	-3
621.118	1	2
621.458	1	4
621.797	1	5
622.136	1	4
622.476	1	-1
622.815	1	0
623.154	1	2
623.494	1	2
623.833	1	5
624.172	1	12
624.511	1	0
624.851	1	-17
625.190	1	6
625.529	1	12
625.869	1	2
626.208	1	-6
626.547	1	5
626.886	1	2
627.226	1	4
627.565	1	1
627.904	1	-3
628.243	1	-5
628.583	1	-1
628.922	1	-8
629.261	1	6
629.600	1	5
629.940	1	1
630.279	1	0
630.618	1	-1
630.957	1	1
631.297	1	-4
631.636	1	1
631.975	1	4
632.314	1	-7
632.653	1	-2
632.993	1	8
633.332	1	11
633.671	1	2
634.010	1	7
634.349	1	4
634.689	1	6
635.028	1	1
635.367	1	0
635.706	1	0
636.045	1	4
636.384	1	2
636.724	1	7
637.063	1	3
637.402	1	5
637.741	1	17
638.080	1	-4
638.419	1	-2
638.759	1	2
639.098	1	7
639.437	1	-4
639.776	1	2
640.115	1	-10
640.454	1	16
640.793	1	4
641.132	1	11
641.472	1	-9
641.811	1	7
642.150	1	5
642.489	1	6
642.828	1	3
643.167	1	3
643.506	1	8
643.845	1	8
644.184	1	9
644.524	1	3
644.863	1	-8
645.202	1	-4
645.541	1	-5
645.880	1	1
646.219	1	-3
646.558	1	-2
646.897	1	2
647.236	1	2
647.575	1	-1
647.914	1	0
648.253	1	11
648.592	1	-5
648.931	1	8
649.270	1	2
649.610	1	10
649.949	1	3
650.288	1	6
650.627	1	3
650.966	1	1
651.305	1	3
651.644	1	-12
651.983	1	9
652.322	1	5
652.661	1	4
653.000	1	-8
653.339	1	10
653.678	1	-3
654.017	1	-9
654.356	1	3
654.695	1	8
655.034	1	2
655.373	1	6
655.712	1	0
656.051	1	18
656.390	1	-4
656.729	1	4
657.068	1	0
657.406	1	9
657.745	1	0
658.084	1	12
658.423	1	-2
658.762	1	-7
659.101	1	2
659.440	1	4
659.779	1	0
660.118	1	10
660.457	1	-4
660.796	1	2
661.135	1	7
661.474	1	1
661.813	1	1
662.152	1	5
662.491	1	-6
662.829	1	2
663.168	1	-8
663.507	1	2
663.846	1	5
664.185	1	4
664.524	1	-1
664.863	1	4
665.202	1	-5
665.541	1	-2
665.879	1	-1
666.218	1	0
666.557	1	2
666.896	1	0
667.235	1	-1
667.574	1	6
667.913	1	-2
668.251	1	-6
668.590	1	1
668.929	1	10
669.268	1	2
669.607	1	-9
669.946	1	7
670.285	1	4
670.623	1	2
670.962	1	-2
671.301	1	-5
671.640	1	-16
671.979	1	12
672.317	1	-6
672.656	1	5
672.995	1	7
673.334	1	12
673.673	1	14
674.011	1	2
674.350	1	-2
674.689	1	3
675.028	1	12
675.367	1	4
675.705	1	0
676.044	1	-5
676.383	1	-9
676.722	1	6
677.060	1	9
677.399	1	-4
677.738	1	2
678.077	1	5
678.416	1	-4
678.754	1	-3
679.093	1	-2
679.432	1	-10
679.771	1	-4
680.109	1	7
680.448	1	5
680.787	1	0
681.125	1	6
681.464	1	-11
681.803	1	-11
682.142	1	10
682.480	1	1
682.819	1	-5
683.158	1	-3
683.496	1	1
683.835	1	-1
684.174	1	0
684.512	1	9
684.851	1	5
685.190	1	1
685.529	1	1
685.867	1	5
686.206	1	0
686.545	1	9
686.883	1	0
687.222	1	-9
687.561	1	1
687.899	1	8
688.238	1	7
688.577	1	-1
688.746	1	1